time,seconds_elapsed,rotationRateX,rotationRateY,rotationRateZ,gravityX,gravityY,gravityZ,accelerationX,accelerationY,accelerationZ,quaternionW,quaternionX,quaternionY,quaternionZ
1729874607101884400,0.061884521484375,-0.02019941806793213,-0.031331345438957214,-0.11828937381505966,0.06824629008769989,-0.3145085275173187,-0.9467982053756714,-0.012124471366405487,0.010492444038391113,-0.017099499702453613,0.9866099563531403,0.15938848763089317,0.0345862581410759,2.2115117045413523e-17
1729874607111914500,0.07191455078125,-0.009986594319343567,-0.04503149911761284,-0.134563148021698,0.06777478009462357,-0.3144091069698334,-0.9468650817871094,-0.017695434391498566,0.012468218803405762,-0.019321441650390625,0.9866266875663647,0.15935679749852094,0.034247108667809265,-0.000616716242802423
1729874607121945300,0.0819453125,0.0038344119675457478,-0.053860146552324295,-0.13812991976737976,0.06667415052652359,-0.3148669898509979,-0.9467910528182983,-0.02089778333902359,0.013246536254882812,-0.01832735538482666,0.9866073796277762,0.159612670332632,0.033589546138909666,-0.001236620458003661
1729874607131975400,0.091975341796875,0.006792185828089714,-0.06093648448586464,-0.14494813978672028,0.06502047181129456,-0.31541740894317627,-0.9467228651046753,-0.01408664882183075,0.016192585229873657,-0.01621347665786743,0.9865891114391588,0.15991390694390475,0.03265122719443837,-0.0018565746454347028
1729874607142005200,0.102005126953125,-0.017931004986166954,-0.061977777630090714,-0.1473684161901474,0.06317245960235596,-0.315751314163208,-0.9467366933822632,-0.005677342414855957,0.014100342988967896,-0.015238404273986816,0.9865912208308394,0.16010108031063844,0.031611722528190764,-0.002488309146711544
1729874607152036400,0.112036376953125,-0.05176946148276329,-0.05951707437634468,-0.13102540373802185,0.061588749289512634,-0.3158324956893921,-0.9468139410018921,-0.006763923913240433,0.0069641172885894775,-0.01098024845123291,0.986609103530295,0.16015586031405585,0.030710305578721037,-0.003092656903694493
1729874607162066200,0.122066162109375,-0.09397017955780029,-0.057493869215250015,-0.14148736000061035,0.060690756887197495,-0.31530630588531494,-0.9470472931861877,-0.012656092643737793,-0.004609435796737671,-0.004200875759124756,0.9866659830118045,0.15989782551876658,0.030150314420742105,-0.00373418593619276
1729874607172096300,0.13209619140625,-0.12548469007015228,-0.050980255007743835,-0.14477770030498505,0.06028630584478378,-0.3140568435192108,-0.9474881887435913,-0.012221124023199081,-0.010207653045654297,0.0014890432357788086,0.9867747600363851,0.1592675563002891,0.029828626912945244,-0.004451737723587194
1729874607182127400,0.14212744140625,-0.12785890698432922,-0.049300067126750946,-0.14442215859889984,0.06012744829058647,-0.3123972415924072,-0.9480467438697815,-0.013191413134336472,-0.009227484464645386,0.005328238010406494,0.9869126803127495,0.15842566616025308,0.02962979824446093,-0.005186657524278174
1729874607192157200,0.1521572265625,-0.11015187948942184,-0.055071406066417694,-0.16451863944530487,0.059828247874975204,-0.31078141927719116,-0.9485965967178345,-0.007551640272140503,-0.004846632480621338,0.0037418603897094727,0.987047624589669,0.15760651151533572,0.02935798016726148,-0.005941371840975175
1729874607202187300,0.162187255859375,-0.09198565781116486,-0.05552014708518982,-0.1696002185344696,0.05944022163748741,-0.3094063699245453,-0.9490703344345093,0.0025104545056819916,-0.0012319982051849365,0.00015681982040405273,0.9871621665029829,0.15691467691925495,0.0290276089432801,-0.006788106434444518
1729874607212218400,0.17221826171875,-0.08497422188520432,-0.06321433931589127,-0.18064355850219727,0.059210941195487976,-0.30810844898223877,-0.9495068788528442,0.0017784349620342255,0.009204059839248657,0.0012798905372619629,0.9872662725516629,0.15626477977721612,0.028773146654786776,-0.007671036822687796
1729874607222248200,0.182248291015625,-0.047794096171855927,-0.07762550562620163,-0.15645486116409302,0.05900949239730835,-0.30711355805397034,-0.9498416781425476,-0.0008735135197639465,0.015838593244552612,0.0011722445487976074,0.9873436086671291,0.15577312896526974,0.028529033489777138,-0.008581624921375616
1729874607232278300,0.1922783203125,-0.02933206409215927,-0.06791524589061737,-0.12931272387504578,0.05863821133971214,-0.30665817856788635,-0.9500117301940918,0.00024544820189476013,0.014650791883468628,0.00044208765029907227,0.9873800139367315,0.15555492292429865,0.028227436113925725,-0.00930796114119079
1729874607242309400,0.202309326171875,-0.005907697603106499,-0.06123736500740051,-0.11388317495584488,0.058112964034080505,-0.30668389797210693,-0.9500357508659363,-0.005653250962495804,0.01666015386581421,-0.010306715965270996,0.9873800398082904,0.15558205982186202,0.02786325595025966,-0.009929549843021223
1729874607252339500,0.21233935546875,0.010369542986154556,-0.05278422683477402,-0.07810600101947784,0.0576302669942379,-0.30708572268486023,-0.9499353170394897,-0.012784689664840698,0.018084287643432617,-0.012589097023010254,0.9873495824122076,0.15580058963589877,0.027541187318055396,-0.010413011219479294
1729874607262369300,0.222369384765625,0.00467677041888237,-0.054625004529953,-0.04955664649605751,0.057081278413534164,-0.3075072169303894,-0.9498321413993835,-0.01894957199692726,0.01377558708190918,-0.011502087116241455,0.9873199333036377,0.15602447284765839,0.02720855344880836,-0.01074889826374813
1729874607272400400,0.232400390625,-0.0003799072001129389,-0.05509478598833084,-0.03590421751141548,0.05660592019557953,-0.30771711468696594,-0.9497925639152527,-0.007838837802410126,0.01665574312210083,-0.014074623584747314,0.9873072973299855,0.15613622293667498,0.026929234979481784,-0.010987391354766089
1729874607282430500,0.242430419921875,-0.020716337487101555,-0.056850604712963104,-0.03199922293424606,0.056297071278095245,-0.30765700340270996,-0.9498304128646851,0.0019762367010116577,0.012491017580032349,-0.0028520822525024414,0.9873144378369304,0.15610847663350366,0.026738219840843937,-0.011206986342114382
1729874607292460300,0.252460205078125,-0.04712098091840744,-0.051679547876119614,-0.026858791708946228,0.055990852415561676,-0.30714285373687744,-0.9500148892402649,0.0036404915153980255,0.011870086193084717,0.003969967365264893,0.9873589265927128,0.15584420481989847,0.026554389265541132,-0.01140056651088934
1729874607302491400,0.262491455078125,-0.07275204360485077,-0.042008012533187866,-0.022885620594024658,0.055665262043476105,-0.3062542974948883,-0.950320839881897,0.004606951028108597,0.014857232570648193,0.013415932655334473,0.9874346150581474,0.15538427424226584,0.026368650362351934,-0.011554018395852003
1729874607312521200,0.272521240234375,-0.0965050458908081,-0.03687647357583046,-0.023424111306667328,0.0554283931851387,-0.305131733417511,-0.9506956934928894,0.005744084715843201,0.011964648962020874,0.021542251110076904,0.9875276950089517,0.15480352649049717,0.026230059932980672,-0.011700549916729067
1729874607322551300,0.28255126953125,-0.10403672605752945,-0.0402618870139122,-0.03214463219046593,0.05508267879486084,-0.3037954866886139,-0.9511436223983765,0.009614579379558563,0.007134139537811279,0.025209784507751465,0.9876392558203383,0.15411124385877983,0.026036716557488362,-0.011851547268928387
1729874607332582100,0.29258203125,-0.10338571667671204,-0.03476139158010483,-0.04560345038771629,0.05459881201386452,-0.30242541432380676,-0.9516080021858215,0.011258114129304886,0.00553518533706665,0.029229462146759033,0.9877544853080562,0.15340152174739138,0.025767460369000437,-0.01204344007806084
1729874607342612200,0.3026123046875,-0.1013912782073021,-0.029762370511889458,-0.0709570124745369,0.054116781800985336,-0.3011866807937622,-0.9520283341407776,0.013586461544036865,0.006905674934387207,0.030809462070465088,0.9878572598708526,0.1527626650480601,0.025483299092925658,-0.012336315003683764
1729874607352642300,0.312642333984375,-0.07530800998210907,-0.02218807488679886,-0.030084677040576935,0.053889449685811996,-0.3000554144382477,-0.9523983597755432,0.004826363176107407,0.009757012128829956,0.025793135166168213,0.9879475266413389,0.15218132872071413,0.025330822510776046,-0.012611282140697488
1729874607362673400,0.32267333984375,-0.049105435609817505,-0.007983306422829628,-0.012872135266661644,0.05389883369207382,-0.2993493378162384,-0.9526200294494629,-0.014073401689529419,0.009951174259185791,0.01713418960571289,0.9880023574438301,0.15181790268526918,0.025324167698244953,-0.01270653606677462
1729874607372703200,0.332703125,-0.015388084575533867,0.0009648613631725311,-0.020226188004016876,0.05403100699186325,-0.29897865653038025,-0.9527289271354675,-0.01473962888121605,0.012388110160827637,0.0038763880729675293,0.9880287024069627,0.15162945731649144,0.02537794283858429,-0.01280337292016943
1729874607382733300,0.3427333984375,0.01269148662686348,0.009247558191418648,-0.0026416024193167686,0.054259900003671646,-0.298931747674942,-0.952730655670166,-0.018310196697711945,0.010784834623336792,-0.0015997886657714844,0.9880282347617383,0.15160898333035783,0.025483178950006874,-0.01287423388453583
1729874607392764400,0.352764404296875,0.007794332690536976,0.01295611634850502,-0.0021358681842684746,0.05450607091188431,-0.29909655451774597,-0.952664852142334,-0.023607026785612106,0.005868434906005859,-0.0018181800842285156,0.9880115295981097,0.1516965196656375,0.025607249915932436,-0.012872918362705201
1729874607402794200,0.362794189453125,-0.029243579134345055,0.02030564285814762,0.0018024146556854248,0.05487837642431259,-0.2991107702255249,-0.9526390433311462,-0.010811001062393188,0.00574532151222229,0.0018333792686462402,0.9880049513307363,0.1517073180253574,0.025794823115521018,-0.012878585139597365
1729874607412824300,0.37282421875,-0.09172619879245758,0.023243002593517303,-0.010820436291396618,0.05532781779766083,-0.29862740635871887,-0.9527646899223328,-0.0018762871623039246,-0.0023826658725738525,0.014211833477020264,0.9880366951141966,0.15146101012689137,0.02602355342736463,-0.01288571130626891
1729874607422855400,0.38285546875,-0.13330534100532532,0.025181517004966736,-0.013942459598183632,0.055783335119485855,-0.2976139783859253,-0.9530551433563232,-0.0056429579854011536,-0.01307019591331482,0.023215055465698242,0.9881094140635565,0.15094151136954384,0.026250228350528468,-0.012942564995139542
1729874607432885500,0.392885498046875,-0.137644961476326,0.006767995655536652,-0.025230534374713898,0.05609549582004547,-0.29630550742149353,-0.9534444808959961,-0.006916426122188568,-0.019902348518371582,0.026686668395996094,0.9882069985634531,0.15026843034720982,0.026403898198700145,-0.013011592406674839
1729874607442915300,0.402915283203125,-0.15024517476558685,0.022438568994402885,-0.054588958621025085,0.056066710501909256,-0.2949347496032715,-0.9538710713386536,-0.0019132718443870544,-0.018206089735031128,0.023481667041778564,0.9883124399426432,0.14956331749992782,0.02636808808019484,-0.013194715090075892
1729874607452946400,0.412946533203125,-0.16493596136569977,0.02786550484597683,-0.044473472982645035,0.056289903819561005,-0.29334747791290283,-0.9543472528457642,0.006240610033273697,-0.0035274922847747803,0.01620638370513916,0.988430249706013,0.14874906784761774,0.026459023574578334,-0.013392034955571138
1729874607462976300,0.422976318359375,-0.17868293821811676,0.02840319648385048,-0.01568123698234558,0.05644027888774872,-0.2916494905948639,-0.954858660697937,0.011430811136960983,0.00891941785812378,0.014947772026062012,0.9885582802257313,0.1478744584222319,0.026529417167583422,-0.01348619467375569
1729874607473006300,0.43300634765625,-0.20035088062286377,0.028627168387174606,0.018466878682374954,0.056410107761621475,-0.28986629843711853,-0.9554032683372498,0.014726363122463226,-0.00023376941680908203,0.012242257595062256,0.9886968353792929,0.1469502519525968,0.02653269436139868,-0.01342129140002789
1729874607483037200,0.443037109375,-0.21694423258304596,0.03833385929465294,0.0623035728931427,0.05645788088440895,-0.28795620799064636,-0.9559778571128845,0.010436639189720154,-0.004112213850021362,0.013518810272216797,0.9888455448646586,0.14595646249066904,0.02660392120286866,-0.01316675006573221
1729874607493067300,0.4530673828125,-0.2437422275543213,0.05113817751407623,0.11905048042535782,0.05661691725254059,-0.2860422134399414,-0.9565429091453552,0.011101584881544113,0.002152472734451294,0.016982972621917725,0.9889948787590825,0.14495548767887642,0.026766492126878736,-0.0126696530281589
1729874607503097300,0.463097412109375,-0.2759462296962738,0.06062009185552597,0.17727091908454895,0.056635960936546326,-0.28408586978912354,-0.957124650478363,0.023411642760038376,0.010282158851623535,0.021531999111175537,0.9891523385848914,0.14392251686204863,0.026906953594931043,-0.011832087617635479
1729874607513128200,0.473128173828125,-0.3161233961582184,0.027590345591306686,0.23497602343559265,0.05639899522066116,-0.2819039225578308,-0.957783579826355,0.04206595942378044,0.015210837125778198,0.02919471263885498,0.9893313621247631,0.14276443307329928,0.026954376744328865,-0.01073578263127223
1729874607523158300,0.483158203125,-0.3191356956958771,-0.010612431913614273,0.38983190059661865,0.055562861263751984,-0.27945107221603394,-0.9585509300231934,0.05602465569972992,0.021211355924606323,0.04062795639038086,0.9895409779186554,0.1414503580778259,0.026764510244937458,-0.0091682449627436
1729874607533189400,0.493189453125,-0.3841394782066345,0.056039296090602875,0.6587027907371521,0.05434485152363777,-0.27667364478111267,-0.9594260454177856,0.07906273752450943,0.03486764430999756,0.046950459480285645,0.9897825563264303,0.13994144198278294,0.02652116768532544,-0.006590156627101998
1729874607543219200,0.50321923828125,-0.42578864097595215,-0.03803020715713501,0.9364140033721924,0.05267934873700142,-0.2731409966945648,-0.9605305194854736,0.10122079402208328,0.039895206689834595,0.05737805366516113,0.9900803424842971,0.13800572518412307,0.026251800998709607,-0.002523679102760231
1729874607553249300,0.513249267578125,-0.43726295232772827,-0.11834432929754257,1.1921589374542236,0.04892389476299286,-0.26971516013145447,-0.9616965055465698,0.19619327783584595,0.046021342277526855,0.08031833171844482,0.9903741289848229,0.13609921604909286,0.025074764485721414,0.0027292572851716533
1729874607563280400,0.5232802734375,-0.7644149661064148,0.41189369559288025,0.7440517544746399,0.04674641415476799,-0.26455146074295044,-0.9632379412651062,0.1823185235261917,-0.005544304847717285,0.0708124041557312,0.9907324355754829,0.13330717147644533,0.02470296180166991,0.008257763796922668
1729874607573310500,0.533310546875,-1.045088291168213,0.36453762650489807,-1.6566218137741089,0.05513778328895569,-0.2548213601112366,-0.9654148817062378,0.03762039169669151,-0.08918800950050354,0.09105575084686279,0.9912995288573919,0.1283642553002245,0.0285512527588443,0.005717724883077658
1729874607583340300,0.54334033203125,-1.2995517253875732,-0.2062467485666275,-1.6269179582595825,0.05964410677552223,-0.24253062903881073,-0.9683085680007935,-0.33306634426116943,-0.4365464746952057,0.09637558460235596,0.9920413348398545,0.12232493388816486,0.029703982344855943,-0.002897822123670315
1729874607593371400,0.553371337890625,-1.4825359582901,-0.6099891066551208,-0.2876701354980469,0.05799277499318123,-0.22828756272792816,-0.9718650579452515,0.034292373806238174,-0.38880833983421326,0.19539105892181396,0.9929107465431597,0.11518126541343988,0.028297713659249744,-0.007807544321079708
1729874607603401500,0.5634013671875,-1.3659100532531738,-0.4767652750015259,0.8452236652374268,0.051523491740226746,-0.21429204940795898,-0.9754098057746887,0.44319695234298706,-0.06625600159168243,0.19379359483718872,0.9938133834325173,0.10797375148752981,0.025234395788084448,-0.006329923271467668
1729874607613431300,0.573431396484375,-0.9143367409706116,-0.0722079947590828,1.1869913339614868,0.04671075940132141,-0.2034895420074463,-0.9779622554779053,0.3741876780986786,0.09055930376052856,0.12925314903259277,0.9944749709071662,0.10233080492801105,0.023394286324095216,-0.0008828943081458969
1729874607623462100,0.583462158203125,-0.47792848944664,0.2492789626121521,1.0528154373168945,0.04530338570475578,-0.19734641909599304,-0.9792864918708801,0.16506953537464142,0.11703947186470032,-0.017417609691619873,0.9947974867199386,0.09908171719129358,0.023228810140490296,0.0046049767989983
1729874607633492200,0.5934921875,-0.248436838388443,0.18660284578800201,1.1006574630737305,0.04557568207383156,-0.1944144070148468,-0.9798601269721985,0.018572263419628143,0.04565650224685669,-0.053220927715301514,0.9948996449978323,0.09745942674446163,0.023907918289546696,0.010241581685575443
1729874607643522300,0.603522216796875,-0.37734609842300415,0.08165672421455383,0.9653521776199341,0.04496075212955475,-0.19202116131782532,-0.9803603291511536,0.16123126447200775,-0.0513412207365036,0.0047286152839660645,0.994957989673928,0.09612287950153986,0.024087710171161385,0.015458176534718386
1729874607653553200,0.61355322265625,-0.6577044129371643,-0.11044608801603317,1.022533655166626,0.04294852912425995,-0.187346413731575,-0.9813545346260071,0.21066780388355255,-0.1634531021118164,0.07327347993850708,0.9951184891463677,0.09365065091980994,0.023500655173827736,0.020412791051037854
1729874607663583200,0.623583251953125,-0.90892094373703,-0.2838474214076996,1.1704328060150146,0.038980595767498016,-0.18005359172821045,-0.9828841090202332,0.2627466917037964,-0.20420844852924347,0.11240077018737793,0.9953753419307543,0.08987513599040009,0.021917898278039118,0.02588298571067678
1729874607673613300,0.63361328125,-1.0946060419082642,-0.40712958574295044,1.2880688905715942,0.033388156443834305,-0.17055615782737732,-0.9847820997238159,0.3294048011302948,-0.2212132066488266,0.1046704649925232,0.9956744586938356,0.08502201378288858,0.01949857375641944,0.031993514415394914
1729874607683644400,0.64364453125,-1.1719977855682373,-0.4555075168609619,1.3919771909713745,0.02685287967324257,-0.15968383848667145,-0.9868029356002808,0.32609817385673523,-0.18864375352859497,0.08151423931121826,0.9959470141096225,0.0795245840082826,0.01656447567311264,0.03861573875112882
1729874607693674200,0.65367431640625,-1.160946011543274,-0.45068296790122986,1.5115278959274292,0.020108966156840324,-0.14841657876968384,-0.9887204766273499,0.290514200925827,-0.13319960236549377,0.056179583072662354,0.9961256388227097,0.07387732023946236,0.01348741684147209,0.04576070806523781
1729874607703704300,0.663704345703125,-1.1225255727767944,-0.4183037281036377,1.673697590827942,0.01351651269942522,-0.1373298168182373,-0.9904331564903259,0.26718416810035706,-0.09565660357475281,0.03225749731063843,0.9961634229336109,0.06836609729341829,0.010464249928814258,0.05362082390442382
1729874607713735400,0.6737353515625,-1.0803966522216797,-0.3977217376232147,1.8144307136535645,0.007155685219913721,-0.1265687197446823,-0.9919320344924927,0.2583625018596649,-0.0806761085987091,0.040302395820617676,0.9960365802498771,0.06306514250399355,0.0075346660918893865,0.06226831808654597
1729874607723765200,0.68376513671875,-1.0967309474945068,-0.39833560585975647,1.888731598854065,0.0009540594764985144,-0.11584510654211044,-0.9932668209075928,0.2575298249721527,-0.08784443140029907,0.06513571739196777,0.9957562650808537,0.05783737411918836,0.00462829957882343,0.07143527233212199
1729874607733795300,0.69379541015625,-1.132502555847168,-0.40946754813194275,1.9463094472885132,-0.005164757836610079,-0.10468409210443497,-0.9944921135902405,0.2495190054178238,-0.09758637100458145,0.09251457452774048,0.9953390439511178,0.05245146254581313,0.0016692488156444581,0.08090999285939321
1729874607743826400,0.703826416015625,-1.1620814800262451,-0.42309123277664185,2.015026807785034,-0.011277152225375175,-0.09306558221578598,-0.9955961108207703,0.24345488846302032,-0.10157548636198044,0.11679667234420776,0.9947728618308688,0.04690420993083334,-0.0013919931744754699,0.09069247484682358
1729874607753856500,0.7138564453125,-1.2066346406936646,-0.4285804033279419,2.070546865463257,-0.017317939549684525,-0.08093777298927307,-0.9965686798095703,0.24351423978805542,-0.10936980694532394,0.1359729766845703,0.9940478916160672,0.04117114874078292,-0.00453744920147102,0.1007629899969004
1729874607763886300,0.72388623046875,-1.25772225856781,-0.40788203477859497,2.1073813438415527,-0.0230864305049181,-0.06817033141851425,-0.997406542301178,0.23271167278289795,-0.10137002915143967,0.15719658136367798,0.9931613153772093,0.035179651394461456,-0.007688814240172284,0.1110580102144963
1729874607773917400,0.73391748046875,-1.2828785181045532,-0.37727421522140503,2.1236486434936523,-0.028323007747530937,-0.05490221083164215,-0.9980899691581726,0.2111690789461136,-0.08076363801956177,0.1840030550956726,0.9921131442994531,0.02898257058770636,-0.010725388028254016,0.12147665120000246
1729874607783947300,0.743947265625,-1.2785266637802124,-0.3390578627586365,2.1629960536956787,-0.03293581306934357,-0.041358303278684616,-0.9986013770103455,0.18881961703300476,-0.0500417985022068,0.19595855474472046,0.9908960946062192,0.02268062097551659,-0.013597708789566197,0.13200656589861567
1729874607793978000,0.75397802734375,-1.2171939611434937,-0.27459636330604553,2.237079381942749,-0.03678502142429352,-0.028046520426869392,-0.9989295601844788,0.17385472357273102,-0.008421938866376877,0.18086010217666626,0.989480835631899,0.01651107360697651,-0.016205159677121907,0.14280209405732724
1729874607804008200,0.76400830078125,-1.132499098777771,-0.1901017129421234,2.29996395111084,-0.039613258093595505,-0.015386175364255905,-0.9990966320037842,0.1710677295923233,0.023442864418029785,0.14950251579284668,0.9878514377674137,0.010653500058131645,-0.018390025773590554,0.15394146234334705
1729874607814038300,0.774038330078125,-1.060886263847351,-0.08330224454402924,2.340380907058716,-0.04119020700454712,-0.003463067812845111,-0.9991453289985657,0.15407472848892212,0.04281553253531456,0.11657696962356567,0.9860233958138801,0.005114290228016135,-0.02002955638855293,0.16531948519880357
1729874607824069400,0.7840693359375,-1.0350247621536255,0.013473302125930786,2.352350950241089,-0.04147540032863617,0.008009510114789009,-0.9991074204444885,0.12693989276885986,0.05175921320915222,0.09165197610855103,0.9840195150433028,-0.00027438994213412564,-0.02112378087230966,0.17680311284463493
1729874607834099200,0.79409912109375,-1.0274486541748047,0.10358370095491409,2.3572890758514404,-0.040579624474048615,0.019288746640086174,-0.9989901185035706,0.10236246883869171,0.052656494081020355,0.08866602182388306,0.9818557652336792,-0.00565180166205041,-0.02174862090656694,0.1882932736350619
1729874607844129300,0.80412939453125,-1.0551618337631226,0.1902030110359192,2.3453710079193115,-0.03848940134048462,0.03064073994755745,-0.9987891316413879,0.08939272910356522,0.04542437195777893,0.10108405351638794,0.979539281353896,-0.011169665924328701,-0.021924354482020087,0.19974332912305107
1729874607854160400,0.814160400390625,-1.1060593128204346,0.2607397139072418,2.329500436782837,-0.03536517918109894,0.04234565049409866,-0.9984769225120544,0.08489522337913513,0.04421750828623772,0.12640661001205444,0.9770779175908645,-0.01696788068913334,-0.021763122380743464,0.21108568807454903
1729874607864190500,0.8241904296875,-1.1363898515701294,0.3092643618583679,2.3197410106658936,-0.031379684805870056,0.0543501041829586,-0.9980287551879883,0.08640289306640625,0.06282218545675278,0.15072345733642578,0.9744685316697164,-0.023015777829927392,-0.021351815484141112,0.22231838647925223
1729874607874220300,0.83422021484375,-1.1478222608566284,0.35410603880882263,2.3128795623779297,-0.026662174612283707,0.0664721131324768,-0.9974319934844971,0.0918782502412796,0.08903025835752487,0.15638279914855957,0.9717063292253505,-0.02922094860706974,-0.020739770606414687,0.23345851032830145
1729874607884251400,0.84425146484375,-1.1400035619735718,0.425058513879776,2.3086960315704346,-0.021079424768686295,0.07849667966365814,-0.9966914653778076,0.08586826175451279,0.11751776933670044,0.1513393521308899,0.9687888454220982,-0.03550483618452281,-0.019840892520816354,0.2445279095388036
1729874607894281500,0.854281494140625,-1.092812180519104,0.542945921421051,2.3300228118896484,-0.014331147074699402,0.09008584916591644,-0.9958308935165405,0.0663483738899231,0.14679163694381714,0.14144551753997803,0.9657174638385924,-0.04175462300587313,-0.018469087986338544,0.2555488811637051
1729874607904311300,0.864311279296875,-1.0142097473144531,0.6571398377418518,2.3533246517181396,-0.006091574672609568,0.10087299346923828,-0.9948806762695312,0.03706693649291992,0.165408194065094,0.12712860107421875,0.9624656319102365,-0.04785372787698526,-0.016422217313730537,0.26664657073505665
1729874607914342400,0.87434228515625,-0.9251625537872314,0.7915957570075989,2.338853597640991,0.003635177155956626,0.11057217419147491,-0.9938614368438721,0.012432347051799297,0.16825172305107117,0.12807780504226685,0.9590650431413263,-0.053692511629005804,-0.013652442881381217,0.27771413249320703
1729874607924372500,0.88437255859375,-0.8539882302284241,0.9116974472999573,2.2792258262634277,0.014777055941522121,0.11918509006500244,-0.9927620887756348,-0.023672908544540405,0.15533584356307983,0.12125635147094727,0.9555817407203167,-0.05929185996237931,-0.010170203820049385,0.28852171176411817
1729874607934402300,0.89440234375,-0.8470540642738342,1.0280380249023438,2.208883285522461,0.02725008875131607,0.12724636495113373,-0.991496741771698,-0.05688263475894928,0.13920265436172485,0.121959388256073,0.9520514354175129,-0.06492120653386932,-0.0060715984887159315,0.2989087782297623
1729874607944433200,0.90443310546875,-0.8228092193603516,1.1097581386566162,2.1538989543914795,0.04076354578137398,0.134800523519516,-0.9900339245796204,-0.07346310466527939,0.1363329440355301,0.12502843141555786,0.9484654594667035,-0.07057478637060559,-0.0014972041795620812,0.3089179608325486
1729874607954463200,0.914463134765625,-0.8052231669425964,1.17857825756073,2.112529993057251,0.05507928133010864,0.14185504615306854,-0.9883539080619812,-0.06675222516059875,0.14119553565979004,0.1148950457572937,0.9448022296020099,-0.07623135992893319,0.003439829618704955,0.31863110314563536
1729874607964493300,0.924493408203125,-0.7797521948814392,1.239789366722107,2.083944797515869,0.07010468095541,0.1484123319387436,-0.9864376187324524,-0.05193142592906952,0.16286700963974,0.09666711091995239,0.9410471950511944,-0.08188743529453077,0.008697900106340145,0.3280992337245425
1729874607974524200,0.934524169921875,-0.7137704491615295,1.3257564306259155,2.051905632019043,0.08591087907552719,0.15420521795749664,-0.9842967391014099,-0.0438728928565979,0.19883742928504944,0.08109849691390991,0.9372038543589616,-0.08743791667095566,0.014361061227089699,0.33733876999588325
1729874607984554200,0.94455419921875,-0.6078618764877319,1.4215031862258911,2.0172336101531982,0.10264547914266586,0.15883146226406097,-0.9819554090499878,-0.04635576903820038,0.2278568148612976,0.08281606435775757,0.9332923885365262,-0.09272922771149539,0.020580922676482927,0.34632790994684365
1729874607994584300,0.954584228515625,-0.5098966360092163,1.538820505142212,1.9684467315673828,0.12042312324047089,0.1620989888906479,-0.9793989062309265,-0.0572822168469429,0.2433118224143982,0.08791941404342651,0.9293382233207086,-0.09770432178868499,0.027466702784503597,0.35500684866716953
1729874608004615400,0.964615478515625,-0.44004589319229126,1.6533925533294678,1.9134273529052734,0.13927367329597473,0.16422207653522491,-0.9765418171882629,-0.07738399505615234,0.24582740664482117,0.08370435237884521,0.9253553148865413,-0.1024831322203496,0.03501842916168293,0.3633021990219545
1729874608014645200,0.974645263671875,-0.3748668134212494,1.744422435760498,1.8424245119094849,0.15900945663452148,0.1653720587491989,-0.9733283519744873,-0.1013006865978241,0.22894561290740967,0.0959479808807373,0.9213419913197887,-0.10712323581906365,0.04313278943391394,0.37120496408361725
1729874608024675300,0.98467529296875,-0.38732829689979553,1.8214306831359863,1.7248311042785645,0.1793695092201233,0.16599833965301514,-0.9696757793426514,-0.1180901825428009,0.19624535739421844,0.09389758110046387,0.9173569468166644,-0.11178420848459392,0.05163717034932253,0.3785421895552255
1729874608034706400,0.99470654296875,-0.434062659740448,1.8541672229766846,1.6216868162155151,0.200047567486763,0.1668318659067154,-0.9654781818389893,-0.1349840611219406,0.1807633936405182,0.08149075508117676,0.9133996102415735,-0.1167443014441582,0.0602634257847182,0.3852795802074392
1729874608044736500,1.004736572265625,-0.43268418312072754,1.8554668426513672,1.5594993829727173,0.22065837681293488,0.16769267618656158,-0.9608272910118103,-0.130158469080925,0.185304194688797,0.0786556601524353,0.9094413641526901,-0.12184178647167664,0.06885451049503157,0.3915737872063868
1729874608054767400,1.014767333984375,-0.4148840010166168,1.8599480390548706,1.5126128196716309,0.24109748005867004,0.16820479929447174,-0.9558133482933044,-0.10146427154541016,0.19558005034923553,0.017229974269866943,0.9054564118604544,-0.1268798204913019,0.07742635049283185,0.3975616892424014
1729874608064797400,1.02479736328125,-0.3608516752719879,1.8707687854766846,1.5132567882537842,0.2614831030368805,0.16814957559108734,-0.9504484534263611,-0.0857628583908081,0.22487108409404755,-0.05609750747680664,0.9014075773612062,-0.13178491025873798,0.08607261983384815,0.40334694454588454
1729874608074827500,1.03482763671875,-0.25475433468818665,1.900481939315796,1.5462977886199951,0.28198274970054626,0.16692326962947845,-0.9447869658470154,-0.07653835415840149,0.24240905046463013,-0.07941347360610962,0.8972260217604668,-0.1363299013120922,0.09497728973962108,0.40911990621657857
1729874608084858400,1.0448583984375,-0.16977445781230927,1.9469152688980103,1.5370252132415771,0.30272191762924194,0.16434766352176666,-0.9388020634651184,-0.07733428478240967,0.22714713215827942,-0.09257000684738159,0.8929241500692418,-0.14046273548180105,0.1042554028118385,0.41483450253697834
1729874608094888200,1.05488818359375,-0.16427576541900635,1.9926904439926147,1.4844578504562378,0.3236820101737976,0.16112124919891357,-0.9323464632034302,-0.10447421669960022,0.1874200403690338,-0.09725552797317505,0.8885655826379804,-0.1444873933414942,0.11379878443485679,0.42026723112530284
1729874608104917500,1.06491748046875,-0.23173177242279053,1.9987640380859375,1.4108350276947021,0.3446422815322876,0.15810689330101013,-0.9253236651420593,-0.14289051294326782,0.14073653519153595,-0.0642697811126709,0.8841628786964812,-0.1487458550657523,0.12334029144653695,0.42534452053891697
1729874608114948600,1.074948486328125,-0.3473021686077118,1.9707741737365723,1.3369994163513184,0.36515694856643677,0.15586034953594208,-0.917806088924408,-0.15560796856880188,0.096443772315979,-0.02738434076309204,0.879728111022345,-0.15338716446970618,0.1325494051736578,0.43009492972752844
1729874608124978400,1.084978515625,-0.502356767654419,1.928632378578186,1.3019858598709106,0.38512319326400757,0.15480345487594604,-0.9097890257835388,-0.1420201063156128,0.06910406053066254,-0.01603800058364868,0.8751966819445333,-0.15859308785656426,0.14125764782626116,0.4346555435836405
1729874608135008300,1.09500830078125,-0.6026144027709961,1.8532873392105103,1.2811071872711182,0.40432465076446533,0.1547524780035019,-0.9014284610748291,-0.11289697885513306,0.06343299150466919,-0.017669379711151123,0.870537000944534,-0.16423931172415804,0.14936937818406396,0.4391807729000652
1729874608145039600,1.10503955078125,-0.6641219258308411,1.7957849502563477,1.2705861330032349,0.4227294325828552,0.15519095957279205,-0.8928692936897278,-0.07862842082977295,0.07181409001350403,-0.04711782932281494,0.8657800245457735,-0.17007064528974833,0.15697553346482782,0.44368880411398703
1729874608155069400,1.1150693359375,-0.6658357977867126,1.7599360942840576,1.274611234664917,0.44051945209503174,0.1556505411863327,-0.8841468095779419,-0.05586057901382446,0.10153639316558838,-0.0707482099533081,0.8609310679704568,-0.17590946349325695,0.1642633937978772,0.4481866084558054
1729874608165099300,1.125099365234375,-0.6314610242843628,1.766244649887085,1.2984931468963623,0.4580705761909485,0.15559343993663788,-0.8751925826072693,-0.04474043846130371,0.136902317404747,-0.08266264200210571,0.8559616553490248,-0.1816052574452149,0.1715320604322511,0.4526874625798845
1729874608175130400,1.13513037109375,-0.6025838255882263,1.7946027517318726,1.3446820974349976,0.47566017508506775,0.1547892540693283,-0.865902841091156,-0.049833089113235474,0.15061545372009277,-0.0843687653541565,0.8508166720964937,-0.1871399771355195,0.17896148812718565,0.45723350819858183
1729874608185160400,1.145160400390625,-0.6377942562103271,1.841271996498108,1.382056713104248,0.4934661090373993,0.15344661474227905,-0.8561223149299622,-0.06437364220619202,0.14290963113307953,-0.07789868116378784,0.8454209686458262,-0.19268372029359798,0.18657929960048944,0.4618709116124091
1729874608195190500,1.1551904296875,-0.7525549530982971,1.8933104276657104,1.38906991481781,0.5115606784820557,0.15236720442771912,-0.8456299304962158,-0.08118647336959839,0.11788123846054077,-0.07008051872253418,0.8397306209236748,-0.19863963346724955,0.1942352550581705,0.4665485831622837
1729874608205221400,1.165221435546875,-0.8250890970230103,1.8643981218338013,1.3761564493179321,0.5295034646987915,0.15180732309818268,-0.834614098072052,-0.09253746271133423,0.08458186686038971,-0.044810950756073,0.8338051603033596,-0.20500546608346004,0.2016574342058828,0.47124942991851454
1729874608215251500,1.17525146484375,-0.8555333614349365,1.826671838760376,1.3211933374404907,0.5469478964805603,0.15154995024204254,-0.8233350515365601,-0.0814327597618103,0.04995763301849365,-0.051405489444732666,0.8278128053337377,-0.2115339680613045,0.2087722537178421,0.47580821273824814
1729874608225281500,1.185281494140625,-0.8141307830810547,1.7965035438537598,1.2525790929794312,0.5637277364730835,0.15125733613967896,-0.8119927644729614,-0.05672389268875122,0.04169008135795593,-0.07869315147399902,0.821899210112107,-0.2179663474587967,0.2156253119353681,0.4800813878101368
1729874608235312400,1.1953125,-0.6833575367927551,1.8065612316131592,1.2181612253189087,0.5801602602005005,0.15029899775981903,-0.8005149960517883,-0.031026899814605713,0.07150278985500336,-0.0919104814529419,0.816103799843688,-0.22407078406051234,0.222564090736805,0.48397528911427334
1729874608245342500,1.205342529296875,-0.4922163486480713,1.859969139099121,1.2254759073257446,0.5965707898139954,0.14781388640403748,-0.7888309955596924,-0.005780935287475586,0.12129014730453491,-0.10632580518722534,0.8103879844993188,-0.22955414187061124,0.22997693776042533,0.4875313836416809
1729874608255372500,1.21537255859375,-0.3451091945171356,1.9349429607391357,1.2592990398406982,0.6132667660713196,0.14353671669960022,-0.7767245769500732,0.01733320951461792,0.15968596935272217,-0.13489651679992676,0.8046389407091159,-0.23442445852460914,0.23808170238069307,0.4908344007071981
1729874608265403400,1.2254033203125,-0.3327457308769226,2.0131657123565674,1.271315574645996,0.6303362250328064,0.13819949328899384,-0.7639222145080566,0.03485548496246338,0.17263734340667725,-0.15526717901229858,0.7987216529031005,-0.2390973621614564,0.24672116739049657,0.4939685475210201
1729874608275433500,1.23543359375,-0.4378228783607483,2.024482488632202,1.2787963151931763,0.6474364995956421,0.13289952278137207,-0.750442385673523,0.044793784618377686,0.16093900799751282,-0.15789800882339478,0.7925456760427211,-0.24402934549819114,0.25539868445363756,0.4970841515511455
1729874608285463300,1.24546337890625,-0.553364634513855,1.919326663017273,1.2753918170928955,0.6639066338539124,0.12826211750507355,-0.7367339730262756,0.0587649941444397,0.12379783391952515,-0.1560729742050171,0.7861474754027262,-0.24932509013817822,0.2635716702954419,0.5003391655511921
1729874608295494700,1.25549462890625,-0.6141470670700073,1.7870538234710693,1.226273775100708,0.6790614128112793,0.12410451471805573,-0.7235148549079895,0.08906608819961548,0.06426528096199036,-0.17344248294830322,0.7797625231044502,-0.254610422250576,0.2709540863018546,0.5037141556417648
1729874608305524200,1.265524169921875,-0.5710563063621521,1.609889268875122,1.1353044509887695,0.6927645802497864,0.12033171951770782,-0.7110537886619568,0.1229703426361084,0.02355867624282837,-0.21741294860839844,0.7736397617124585,-0.2596629781748865,0.277575627202443,0.5069600197771404
1729874608315555300,1.275555419921875,-0.39937108755111694,1.4728059768676758,1.022752046585083,0.704928457736969,0.11625559628009796,-0.6996860504150391,0.14555072784423828,0.03251761943101883,-0.21516990661621094,0.7680810974157829,-0.2639694403467676,0.28368489830396576,0.5097985129377898
1729874608325585400,1.28558544921875,-0.15077859163284302,1.3792331218719482,0.9617167115211487,0.71597820520401,0.11116649955511093,-0.6892149448394775,0.1701454520225525,0.08806754648685455,-0.24674385786056519,0.7631339742257365,-0.26727130664005805,0.28975607608330034,0.5120878496576192
1729874608335615500,1.295615478515625,0.07490059733390808,1.3267065286636353,0.963106095790863,0.7263002395629883,0.10446418821811676,-0.6793932318687439,0.1929503083229065,0.15591183304786682,-0.24991267919540405,0.7586402951956381,-0.2694691550997149,0.29612454768845964,0.5139663972996417
1729874608345646300,1.305646240234375,0.19203682243824005,1.2669459581375122,0.9778006076812744,0.736077070236206,0.09638896584510803,-0.6699998378753662,0.20871669054031372,0.19297873973846436,-0.2463666796684265,0.7543767448754639,-0.2708303031673769,0.30273919841438174,0.5156702582768071
1729874608355676400,1.315676513671875,0.15724460780620575,1.185915231704712,0.9557000994682312,0.7451711893081665,0.08795329183340073,-0.6610477566719055,0.20423072576522827,0.18372946977615356,-0.2259608507156372,0.7502301657981133,-0.2718280561097437,0.3091692448622527,0.5173766937656168
1729874608365706500,1.32570654296875,0.0566793829202652,1.0483530759811401,0.8693090081214905,0.7533441781997681,0.08035927265882492,-0.6526982188224792,0.1775030493736267,0.13782617449760437,-0.19919991493225098,0.7462310534029937,-0.272914083722221,0.314910787710502,0.5191226608683238
1729874608375737300,1.3357373046875,-0.050120431929826736,0.9320149421691895,0.7233552932739258,0.7604076862335205,0.07430978864431381,-0.6451808214187622,0.14465224742889404,0.08285575360059738,-0.18631625175476074,0.742580808175043,-0.274225999912362,0.31970248141426905,0.5207343652316307
1729874608385767400,1.345767333984375,-0.07401297986507416,0.8169325590133667,0.6081996560096741,0.766524612903595,0.06966891139745712,-0.6384249329566956,0.1235358715057373,0.05409514904022217,-0.20503509044647217,0.739340699750598,-0.27569839481624925,0.3236942124917399,0.5220995040655995
1729874608395797500,1.355797607421875,0.009489434771239758,0.7229605913162231,0.5417172908782959,0.7718250751495361,0.06549514830112457,-0.6324527263641357,0.12961846590042114,0.07017077505588531,-0.20272177457809448,0.7365312715923311,-0.2769239915456549,0.32724108829828913,0.5232093745284718
1729874608405828400,1.365828369140625,0.15387803316116333,0.6593019962310791,0.5113993287086487,0.7765397429466248,0.06090553477406502,-0.6271176338195801,0.15803062915802002,0.10892481356859207,-0.21512168645858765,0.7341167874647351,-0.2775826418516383,0.3307401644057043,0.5240528024594414
1729874608415858400,1.3758583984375,0.28980517387390137,0.5896874666213989,0.5025792121887207,0.7807601690292358,0.05552120879292488,-0.6223591566085815,0.17619478702545166,0.1447046399116516,-0.2037057876586914,0.7320502591441042,-0.27755152944897693,0.33434347883083404,0.5246732029776392
1729874608425888500,1.385888427734375,0.3527364730834961,0.514658510684967,0.47427862882614136,0.7844721078872681,0.049651674926280975,-0.6181732416152954,0.17702996730804443,0.14645430445671082,-0.17947989702224731,0.7302796116483021,-0.2769925741460188,0.3379178893298676,0.5251458932315716
1729874608435919600,1.395919677734375,0.3686593174934387,0.4269244968891144,0.41627469658851624,0.7876003980636597,0.04389236494898796,-0.6146211624145508,0.1618625521659851,0.11792711913585663,-0.15140056610107422,0.7288043939421704,-0.27614918819328405,0.3412199407263488,0.5255043360360573
1729874608445949400,1.405949462890625,0.33846360445022583,0.34401947259902954,0.3485281467437744,0.7901440858840942,0.03868066519498825,-0.6116993427276611,0.14131343364715576,0.07322731614112854,-0.13260900974273682,0.7276217290358731,-0.27521608100162215,0.34410235775365294,0.5257530638100881
1729874608455979300,1.415979248046875,0.29413703083992004,0.2666870951652527,0.28796252608299255,0.7921427488327026,0.03425600379705429,-0.6093736886978149,0.12195032835006714,0.0325012281537056,-0.11804318428039551,0.7266917724054787,-0.27433520152161756,0.34648714101674843,0.5259333202531774
1729874608466010400,1.42601025390625,0.285367488861084,0.18539462983608246,0.2519419491291046,0.7936148047447205,0.03035723976790905,-0.6076628565788269,0.10895788669586182,0.016304152086377144,-0.10568547248840332,0.7259853382608966,-0.2734132290528237,0.3484448106622922,0.5260958687113593
1729874608476040400,1.43604052734375,0.2859855890274048,0.11646147072315216,0.24176494777202606,0.7946268320083618,0.026670629158616066,-0.606512188911438,0.10544341802597046,0.015992963686585426,-0.11486226320266724,0.7254557531597502,-0.2723565789983311,0.350093991690016,0.526279619376274
1729874608486070300,1.4460703125,0.27291586995124817,0.08080121129751205,0.23698298633098602,0.7952863574028015,0.02305104024708271,-0.6057955026626587,0.10217463970184326,0.022069213911890984,-0.11943942308425903,0.7250360634492383,-0.2711708097139046,0.3515233095668949,0.5265172783852994
1729874608496101400,1.456101318359375,0.2169448882341385,0.07538124918937683,0.22658413648605347,0.7958376407623291,0.019711928442120552,-0.6051890850067139,0.0916440486907959,0.01800781860947609,-0.11409485340118408,0.7246131444268819,-0.2700865103330235,0.35278710535209235,0.5268114064355387
1729874608506131500,1.46613134765625,0.1464371681213379,0.04581670090556145,0.20777183771133423,0.7962736487388611,0.01687243953347206,-0.6047012805938721,0.07393515110015869,0.007373804226517677,-0.09102314710617065,0.7241734334614983,-0.2692100371590674,0.35380124303810984,0.5271845167424501
1729874608516161500,1.47616162109375,0.05753765255212784,-0.015532408840954304,0.21611152589321136,0.7964359521865845,0.0146176777780056,-0.6045461893081665,0.0619015097618103,-0.007323947735130787,-0.06540614366531372,0.7237258176233015,-0.26853613553454625,0.3544224064517866,0.5277253698575878
1729874608526192400,1.4861923828125,0.02444974146783352,-0.09164448827505112,0.2537912428379059,0.7961769104003906,0.012546095065772533,-0.6049337983131409,0.05804067850112915,-0.016177667304873466,-0.03497391939163208,0.7232477316769531,-0.26786410419520174,0.35465745137312,0.5285637101371874
1729874608536222500,1.496222412109375,0.01936570182442665,-0.15907733142375946,0.290274977684021,0.7954636216163635,0.01026287954300642,-0.6059145927429199,0.06262975931167603,-0.027642620727419853,-0.015896320343017578,0.7227745393574975,-0.26698428426321086,0.35462953174539147,0.5296738886997278
1729874608546252500,1.50625244140625,0.018673811107873917,-0.19564172625541687,0.2964947819709778,0.7944321036338806,0.00782441720366478,-0.6073026657104492,0.05446028709411621,-0.03742644935846329,-0.004315316677093506,0.7223397384966654,-0.26593141144493293,0.3544420125263541,0.5309207461011727
1729874608556283400,1.516283447265625,0.01400249358266592,-0.20829333364963531,0.30899620056152344,0.793240487575531,0.005323531571775675,-0.6088851690292358,0.025515615940093994,-0.03578006103634834,0.01054239273071289,0.7219172055508976,-0.26480231851329106,0.3541710655851601,0.5322388027232499
1729874608566313500,1.5263134765625,-0.009688986465334892,-0.2022322416305542,0.33513590693473816,0.7920354008674622,0.0027621372137218714,-0.6104690432548523,0.0013149380683898926,-0.04267910495400429,0.02070164680480957,0.7214154813885478,-0.26369410321647935,0.3538797798618593,0.5336612900160979
1729874608576343600,1.536343505859375,-0.0598931685090065,-0.165503591299057,0.35193511843681335,0.7909370064735413,0.00025281880516558886,-0.6118975877761841,-0.014920711517333984,-0.054909780621528625,0.013630986213684082,0.7207742405209503,-0.2627260427188514,0.35359050559577526,0.5351946715473814
1729874608586374400,1.54637451171875,-0.14355850219726562,-0.12399609386920929,0.34922775626182556,0.7900868058204651,-0.0018772479379549623,-0.6129921674728394,-0.026216506958007812,-0.06498674303293228,0.0061959028244018555,0.7199477917882818,-0.2621089042164311,0.35327446245301536,0.5368159064475648
1729874608596404500,1.556404541015625,-0.205694779753685,-0.10868227481842041,0.3514983654022217,0.7894231677055359,-0.0035460626240819693,-0.6138390898704529,-0.03545588254928589,-0.0694061815738678,0.013726294040679932,0.718954396540883,-0.26185114474067617,0.35286603532036354,0.5385388334815198
1729874608606434300,1.566434326171875,-0.23226433992385864,-0.10682658106088638,0.3474138677120209,0.7887758612632751,-0.00493234908208251,-0.6146611571311951,-0.03546464443206787,-0.06911853700876236,0.019034385681152344,0.7179013941530941,-0.2617591018184915,0.3523515013802948,0.540322371224939
1729874608616465400,1.57646533203125,-0.2167946994304657,-0.10633458942174911,0.3481784760951996,0.7881333231925964,-0.00625603087246418,-0.6154727339744568,-0.02874910831451416,-0.058761656284332275,0.010980606079101562,0.716839570491269,-0.26169810234202295,0.3518205978419259,0.5421046177129349
1729874608626495500,1.58649560546875,-0.18142551183700562,-0.0872461199760437,0.35100701451301575,0.7875425815582275,-0.007769864983856678,-0.6162112355232239,-0.024236857891082764,-0.038067519664764404,0.006531119346618652,0.715786696013481,-0.261556522191652,0.3514008715422765,0.5438336293647038
1729874608636526300,1.5965263671875,-0.1374179869890213,-0.07334478944540024,0.3436436355113983,0.787054717540741,-0.009510294534265995,-0.6168099641799927,-0.02266561985015869,-0.015300480648875237,0.0017282366752624512,0.7147585274514963,-0.26132220639464465,0.3511491411544923,0.5454588954023288
1729874608646556400,1.606556396484375,-0.10182376950979233,-0.08697032183408737,0.3443073034286499,0.786555290222168,-0.011465891264379025,-0.6174134016036987,-0.03222173452377319,0.005194555036723614,0.0008668899536132812,0.7137950700933628,-0.260945866684881,0.3509993611111147,0.5469947811653947
1729874608656586500,1.61658642578125,-0.061874691396951675,-0.09313564002513885,0.3256438672542572,0.785974383354187,-0.013610970228910446,-0.6181092262268066,-0.04703700542449951,0.01295485906302929,-0.001672208309173584,0.7129249970267659,-0.26040304492108907,0.3509068911638354,0.5484455565094581
1729874608666617300,1.626617431640625,-0.027404334396123886,-0.08131573349237442,0.31639206409454346,0.7854074239730835,-0.015840590000152588,-0.6187764406204224,-0.06963282823562622,0.01104935072362423,-0.004987537860870361,0.7121292812813929,-0.2597778103746978,0.3508949748975403,0.5497818281905886
1729874608676647400,1.6366474609375,0.018094707280397415,-0.051551397889852524,0.31307747960090637,0.7849673628807068,-0.018259506672620773,-0.619268000125885,-0.09548366069793701,0.010965831577777863,0.0069176554679870605,0.71136994218252,-0.2590785648750069,0.3510616790852683,0.5509871004975099
1729874608686677500,1.646677490234375,0.07992318272590637,-0.0304596945643425,0.3168985843658447,0.784680962562561,-0.021009154617786407,-0.6195436716079712,-0.11274492740631104,0.006650660187005997,0.014181852340698242,0.7106243343329495,-0.25826519934960057,0.35146443699971913,0.5520732456706208
1729874608696708400,1.656708251953125,0.14147590100765228,0.009726821444928646,0.29419541358947754,0.7845603823661804,-0.0241044033318758,-0.6195836663246155,-0.12435835599899292,0.0026963427662849426,0.01391667127609253,0.709941716996325,-0.2573036278636272,0.35214061828488974,0.5529688165739755
1729874608706738400,1.666738525390625,0.17987841367721558,0.04424697905778885,0.267336905002594,0.7846923470497131,-0.027306130155920982,-0.6192837953567505,-0.13298934698104858,0.0032277852296829224,0.009557902812957764,0.7093161959135643,-0.2563262766124668,0.35306507189016006,0.553635745330574
1729874608716768500,1.6767685546875,0.17899510264396667,0.06271243840456009,0.2516162395477295,0.7849839329719543,-0.03046354651451111,-0.6187666654586792,-0.13750767707824707,0.0111917182803154,0.027839601039886475,0.708725444104963,-0.25538900404759696,0.3541089059909503,0.5541584944336606
1729874608726799600,1.686799560546875,0.17569279670715332,0.03446721285581589,0.24761086702346802,0.785237729549408,-0.03353641927242279,-0.618285596370697,-0.12917077541351318,0.015195373445749283,0.0443873405456543,0.7081633172850479,-0.25446100175804015,0.3551152026640116,0.554659882174381
1729874608736829400,1.696829345703125,0.1478014439344406,-0.02319059520959854,0.23596379160881042,0.7852206230163574,-0.036455053836107254,-0.6181421875953674,-0.11807572841644287,0.00964537262916565,0.06276810169219971,0.7076724223293704,-0.25348396097264736,0.35591402520842474,0.5552215470507783
1729874608746859500,1.706859619140625,0.09456351399421692,-0.06897619366645813,0.21660447120666504,0.7848573327064514,-0.038980718702077866,-0.618449330329895,-0.11614084243774414,0.00005556270480155945,0.0803787112236023,0.7072745392671835,-0.2525292250984155,0.3563766679000862,0.5558665004765312
1729874608756890600,1.716890625,0.056086696684360504,-0.08797167241573334,0.18279804289340973,0.7842897772789001,-0.041017431765794754,-0.6190372705459595,-0.12781083583831787,-0.003980718553066254,0.08896225690841675,0.7069486201811227,-0.251689903705629,0.3565579166950736,0.5565450577513844
1729874608766920400,1.72692041015625,0.02175615355372429,-0.07288140058517456,0.15421059727668762,0.7837209701538086,-0.04257817938923836,-0.6196520924568176,-0.14424031972885132,-0.010964889079332352,0.0898212194442749,0.706674502514555,-0.25102680068883665,0.3565943179089113,0.5571690857405698
1729874608776950300,1.7369501953125,-0.01212611235678196,-0.06467652320861816,0.13501639664173126,0.7832444310188293,-0.0437462218105793,-0.6201729774475098,-0.16218113899230957,-0.01101754978299141,0.08982330560684204,0.7063962861860066,-0.2505636353035643,0.3565548754505981,0.5577551884739831
1729874608786981400,1.7469814453125,-0.05220988392829895,-0.04296509921550751,0.11574895679950714,0.7828536033630371,-0.04452954977750778,-0.6206104755401611,-0.17357009649276733,-0.011088721454143524,0.09316003322601318,0.7061013587114042,-0.2503031258014989,0.35643105687816384,0.5583243915649706
1729874608797011500,1.757011474609375,-0.10376561433076859,0.004726416431367397,0.08280778676271439,0.7826882004737854,-0.044817037880420685,-0.6207983493804932,-0.1769142746925354,-0.014249712228775024,0.08608466386795044,0.7057661530318828,-0.2503463519464348,0.3562688987620728,0.5588321098173242
1729874608807041300,1.767041259765625,-0.1702737957239151,0.045780375599861145,0.05780203640460968,0.7828350067138672,-0.044490329921245575,-0.6206367015838623,-0.1771678328514099,-0.01985596865415573,0.08778470754623413,0.7053553979736497,-0.25079096758099645,0.3560695582551011,0.5592781593683406
1729874608817072400,1.777072265625,-0.2043861746788025,0.05735554173588753,0.04123423993587494,0.7831540703773499,-0.04371706023812294,-0.6202892065048218,-0.16697359085083008,-0.02842647209763527,0.09643977880477905,0.7048796285543555,-0.2515191450285729,0.3557998297067436,0.559722728084399
1729874608827102500,1.7871025390625,-0.2377031147480011,0.05003424361348152,0.014600235037505627,0.7835007905960083,-0.042548954486846924,-0.6199323534965515,-0.14667516946792603,-0.04033677652478218,0.09484696388244629,0.7044222833275376,-0.2524159203409112,0.35541530402466304,0.5601387275156745
1729874608837132500,1.797132568359375,-0.27274778485298157,0.035283368080854416,-0.0063979909755289555,0.7837622761726379,-0.04099022224545479,-0.6197067499160767,-0.12964850664138794,-0.043406128883361816,0.10969698429107666,0.7040191406623578,-0.25342608804997657,0.3548546804501664,0.5605447478656875
1729874608847163400,1.807163330078125,-0.3156164288520813,0.033585336059331894,-0.03275582939386368,0.783982515335083,-0.038991015404462814,-0.61955726146698,-0.11543387174606323,-0.03975957632064819,0.11574256420135498,0.7036457565274749,-0.2545983548590779,0.3541201144431577,0.5609468400255777
1729874608857193500,1.817193359375,-0.36422470211982727,0.03839462995529175,-0.04875237122178078,0.784229576587677,-0.03656554967164993,-0.619392454624176,-0.10564064979553223,-0.039499491453170776,0.1156083345413208,0.7032569547230932,-0.2559729766780372,0.3532444156573612,0.5613607542738274
1729874608867223600,1.8272236328125,-0.4206501543521881,0.05369875580072403,-0.05032017454504967,0.7845368385314941,-0.03372526541352272,-0.6191644072532654,-0.09808963537216187,-0.04060027375817299,0.11463260650634766,0.7028132832039617,-0.25757836366977743,0.35223738517869607,0.5618146629121552
1729874608877254400,1.83725439453125,-0.46916696429252625,0.07591569423675537,-0.049355313181877136,0.784959614276886,-0.030556784942746162,-0.6187928915023804,-0.09172224998474121,-0.04395186901092529,0.11307096481323242,0.7022632056221647,-0.2594234920554043,0.3511452621994815,0.5623369774252945
1729874608887284500,1.847284423828125,-0.5188671350479126,0.11442979425191879,-0.05531999468803406,0.7855515480041504,-0.02709055505692959,-0.6182029843330383,-0.09007114171981812,-0.04940174147486687,0.1158074140548706,0.7015935890936486,-0.2615175310118092,0.3500101295664319,0.5629102810612323
1729874608897314600,1.857314453125,-0.5578432083129883,0.18159370124340057,-0.07360552251338959,0.7864819765090942,-0.023239877074956894,-0.6171758770942688,-0.08894163370132446,-0.06164475157856941,0.10577762126922607,0.7008080020838023,-0.2639433289034067,0.3489211481040273,0.5634325583808383
1729874608907345400,1.867345458984375,-0.598600447177887,0.2609822750091553,-0.10628783702850342,0.7878713607788086,-0.018943727016448975,-0.6155483722686768,-0.0839376449584961,-0.07373813539743423,0.09645974636077881,0.6999098042093088,-0.2667601638958429,0.3479437108765364,0.563826593541802
1729874608917375200,1.877375244140625,-0.6360991597175598,0.3366471529006958,-0.14218910038471222,0.7897390127182007,-0.014148037880659103,-0.6132798194885254,-0.06480914354324341,-0.0845152735710144,0.08036673069000244,0.6989145479065443,-0.2699892393908975,0.3470819789294674,0.56405529005783
1729874608927405300,1.8874052734375,-0.6400022506713867,0.366371750831604,-0.17324556410312653,0.7919522523880005,-0.008926749229431152,-0.6105177998542786,-0.03288847208023071,-0.08493005484342575,0.061766088008880615,0.6978752251679302,-0.2735298817994024,0.3462982771319181,0.56411803123454
1729874608937436400,1.8974365234375,-0.5609027147293091,0.323384553194046,-0.18348488211631775,0.7941073775291443,-0.0038089430890977383,-0.6077656149864197,0.004354596138000488,-0.07553673535585403,0.05602312088012695,0.6969283690695175,-0.2769537371078975,0.3455630424329751,0.5640689654993554
1729874608947466500,1.907466552734375,-0.4247632622718811,0.24695129692554474,-0.21810491383075714,0.795856237411499,0.000809200806543231,-0.605485200881958,0.03915053606033325,-0.0648198053240776,0.04138302803039551,0.6963082866968785,-0.27984450902169733,0.3448832592950531,0.5638239751000111
1729874608957497300,1.917497314453125,-0.26772570610046387,0.1894800215959549,-0.24619513750076294,0.7971583008766174,0.004782431293278933,-0.603751540184021,0.047385215759277344,-0.051581114530563354,0.03200477361679077,0.696107384171218,-0.282070370397218,0.3443262088054144,0.5633031903132112
1729874608967527400,1.92752734375,-0.12351768463850021,0.19213493168354034,-0.2390109896659851,0.7982674241065979,0.0079049626365304,-0.6022512316703796,0.0272940993309021,-0.04054350033402443,0.04553443193435669,0.6962023052069464,-0.28369102738028845,0.3440839730898603,0.5625192719518939
1729874608977557500,1.9375576171875,-0.05507244914770126,0.2663429379463196,-0.22030174732208252,0.7996063828468323,0.010235374793410301,-0.600437343120575,-0.0050506591796875,-0.05247168987989426,0.05315041542053223,0.6963374963956356,-0.28501100025271353,0.34431098272501637,0.5615451402331304
1729874608987588400,1.94758837890625,-0.07918816804885864,0.39278876781463623,-0.19902361929416656,0.8015664219856262,0.012282773852348328,-0.5977795124053955,-0.037955522537231445,-0.08476200699806213,0.07138192653656006,0.6962665862537806,-0.2865156495088877,0.34499132690983664,0.5604485416202697
1729874608997618400,1.957618408203125,-0.1705886572599411,0.5051619410514832,-0.1711278110742569,0.8042563199996948,0.014520300552248955,-0.594105064868927,-0.0664786696434021,-0.12249147891998291,0.09616512060165405,0.6958249626991896,-0.2885442915356902,0.34596193600600883,0.559356826241774
1729874609007648500,1.9676484375,-0.32369112968444824,0.5535368919372559,-0.158119335770607,0.8074119091033936,0.01729007251560688,-0.5897347331047058,-0.07152628898620605,-0.16336245834827423,0.11532384157180786,0.6949979759218128,-0.29118090180276796,0.34690964532201823,0.5584310018223724
1729874609017679400,1.977679443359375,-0.5151439905166626,0.5471639633178711,-0.1377514749765396,0.8106487989425659,0.02093716524541378,-0.5851582288742065,-0.05974847078323364,-0.19430752098560333,0.1331014633178711,0.693831553546814,-0.29443934244029996,0.3474569676883182,0.5578323111866496
1729874609027709400,1.98770947265625,-0.7137026190757751,0.49850428104400635,-0.12549854815006256,0.8136770725250244,0.025615202262997627,-0.580752432346344,-0.042619943618774414,-0.2073778659105301,0.13916319608688354,0.6923751249865375,-0.2982734534866206,0.34735676823110784,0.557667322557445
1729874609037739500,1.997739501953125,-0.8814063668251038,0.4426298141479492,-0.10025524348020554,0.8163876533508301,0.031199974939227104,-0.5766608119010925,-0.026714801788330078,-0.20319704711437225,0.12371903657913208,0.6906667854250907,-0.3025720224864409,0.3465829828166592,0.5579513951490144
1729874609047770600,2.0077705078125,-0.954099178314209,0.4083356559276581,-0.08207224309444427,0.8188138008117676,0.03725913539528847,-0.5728487372398376,-0.020214557647705078,-0.17881490290164948,0.0899234414100647,0.688773558332745,-0.307110830694375,0.3453383185046461,0.5585833996010391
1729874609057800400,2.017800537109375,-0.955856204032898,0.3912312090396881,-0.06668263673782349,0.8210782408714294,0.04333909973502159,-0.5691681504249573,-0.027529537677764893,-0.136860191822052,0.05162060260772705,0.6867997476386727,-0.31166094553218,0.34392351193467513,0.5593659682056259
1729874609067830500,2.02783056640625,-0.8884792923927307,0.4146137535572052,-0.046750474721193314,0.8232894539833069,0.04926421493291855,-0.5654799938201904,-0.04612874984741211,-0.08199429512023926,0.01402747631072998,0.6848246385560516,-0.3161289495865022,0.3425236922877916,0.5601387278184577
1729874609077861600,2.037861572265625,-0.7117657661437988,0.4544530510902405,0.007453641854226589,0.825765073299408,0.05390160158276558,-0.5614328384399414,-0.06929522752761841,-0.02280418574810028,-0.000761866569519043,0.6828555011796901,-0.3201182553861643,0.34177166335230363,0.5607361016972705
1729874609087891500,2.047891357421875,-0.6085946559906006,0.4714523255825043,0.0752049908041954,0.8283833861351013,0.057234831154346466,-0.5572299957275391,-0.07362258434295654,0.010651547461748123,-0.04288285970687866,0.6808816286464141,-0.32359407430296716,0.3415726605075439,0.5612622627825119
1729874609097921300,2.05792138671875,-0.5607249736785889,0.46101292967796326,0.14200107753276825,0.8310627341270447,0.05952773615717888,-0.5529839992523193,-0.0870288610458374,0.023068107664585114,-0.005228281021118164,0.6788179405439253,-0.326698759997093,0.34172493114524716,0.5618703661218407
1729874609107952600,2.06795263671875,-0.6110411286354065,0.4284861385822296,0.14482295513153076,0.8336204886436462,0.061504021286964417,-0.5489028692245483,-0.09294342994689941,0.008579611778259277,0.040647923946380615,0.6766816808966378,-0.329677970721056,0.3418493689217513,0.5626309412193088
1729874609117982700,2.077982666015625,-0.7351018786430359,0.38391804695129395,0.12721467018127441,0.8359412550926208,0.06403075158596039,-0.5450710654258728,-0.10004019737243652,-0.019307218492031097,0.0754818320274353,0.6744920291947076,-0.332857465808576,0.3415704453254487,0.5635567576443169
1729874609128012500,2.088012451171875,-0.9161355495452881,0.34522098302841187,0.09545326977968216,0.8380059003829956,0.06757421791553497,-0.5414608120918274,-0.0996330976486206,-0.04134435951709747,0.10066503286361694,0.672165311158236,-0.3364803322007469,0.34066195766630625,0.5647337267420406
1729874609138043600,2.098043701171875,-1.1341487169265747,0.2867351472377777,0.057346366345882416,0.8397995829582214,0.07245634496212006,-0.5380396842956543,-0.08593910932540894,-0.06418606638908386,0.13127100467681885,0.6696556630938489,-0.3407027562611567,0.3389716755446439,0.5661988029091958
1729874609148073700,2.10807373046875,-1.365391731262207,0.1837930530309677,0.018191508948802948,0.8411039710044861,0.07885276526212692,-0.5350948572158813,-0.07308322191238403,-0.07242880761623383,0.16586273908615112,0.6669986690579945,-0.34549561395791833,0.336281658562037,0.5680319667551079
1729874609158103800,2.118103759765625,-1.6029237508773804,0.0681099146604538,-0.040745045989751816,0.8417691588401794,0.08687790483236313,-0.5328011512756348,-0.07383996248245239,-0.07480818033218384,0.19076019525527954,0.6642271763024907,-0.350820872542466,0.3324517148895726,0.57026568187129
1729874609168134700,2.128134765625,-1.8511972427368164,0.01976129226386547,-0.11342750489711761,0.8419134616851807,0.09672853350639343,-0.5308722853660583,-0.09050959348678589,-0.07110900431871414,0.20779800415039062,0.6613127111447746,-0.3568012707870447,0.3275007055097168,0.5728016598461887
1729874609178164700,2.138164794921875,-2.080963611602783,0.04608919471502304,-0.16420359909534454,0.841922402381897,0.10839270800352097,-0.5285998582839966,-0.1260562539100647,-0.060739487409591675,0.19995617866516113,0.6581230356486892,-0.363628760235275,0.3216740319971306,0.5754773157090559
1729874609188194800,2.14819482421875,-2.2498512268066406,0.12749750912189484,-0.1922016739845276,0.8421849608421326,0.12136869877576828,-0.5253515839576721,-0.1602543592453003,-0.04783657193183899,0.1916571855545044,0.6545017036339025,-0.37131025376350707,0.3153615438757112,0.5781898551844149
1729874609198225700,2.1582255859375,-2.451176404953003,0.2430191934108734,-0.2567324638366699,0.8428467512130737,0.13599318265914917,-0.5206873416900635,-0.18229371309280396,-0.03746718168258667,0.18194228410720825,0.6503993426334412,-0.38007298660191613,0.3085463607191811,0.5807964335838214
1729874609208255700,2.168255859375,-2.265408992767334,0.3022926449775696,-0.23859260976314545,0.8439046740531921,0.15024317800998688,-0.5150262713432312,-0.20988667011260986,0.0006815344095230103,0.20368599891662598,0.6461763474454969,-0.38886327844468876,0.30211289725767954,0.5830690075129306
1729874609218285600,2.17828564453125,-2.162062644958496,0.3394370377063751,-0.20331983268260956,0.8452326059341431,0.16364029049873352,-0.5087276697158813,-0.1794000267982483,0.03927111625671387,0.10307282209396362,0.6419304204591454,-0.3973898759297291,0.2961713156050292,0.5850549847711953
1729874609228316700,2.188316650390625,-1.9278613328933716,0.3795005679130554,-0.14772768318653107,0.8467495441436768,0.17545229196548462,-0.5022270083427429,-0.15723520517349243,0.08976076543331146,0.11372298002243042,0.6378140429162649,-0.4052374889318263,0.29097952881856404,0.5867767354574933
1729874609238346500,2.198346435546875,-1.6625670194625854,0.3946218192577362,-0.07579011470079422,0.8484833836555481,0.1854678988456726,-0.4956590235233307,-0.12218010425567627,0.1532161980867386,0.056923091411590576,0.6338763595539543,-0.412312165684995,0.28665164505406404,0.5882435625327335
1729874609248377600,2.208377685546875,-1.4282176494598389,0.501371443271637,-0.010101648978888988,0.8505975604057312,0.19340780377388,-0.48895540833473206,-0.10187923908233643,0.18574258685112,0.025591790676116943,0.6301694920307012,-0.4185494725578246,0.28344071445524366,0.5893761795889265
1729874609258407700,2.21840771484375,-1.2856464385986328,0.6262040734291077,0.04021664708852768,0.8533734083175659,0.19983525574207306,-0.4814767837524414,-0.09229534864425659,0.18845519423484802,-0.008131921291351318,0.6264646685943086,-0.4244484132386357,0.28125637530512254,0.5901530374137317
1729874609268437500,2.2284375,-1.2477411031723022,0.738693356513977,0.07503188401460648,0.8567860722541809,0.20535290241241455,-0.47301986813545227,-0.09941607713699341,0.16918931901454926,0.028180450201034546,0.6226140361602789,-0.43034867704996727,0.2798036513685927,0.5906451697204688
1729874609278468600,2.238468505859375,-1.2981034517288208,0.7733780145645142,0.07065151631832123,0.860517680644989,0.2106645107269287,-0.4638209939002991,-0.09383976459503174,0.1381971836090088,0.05915796756744385,0.6185672374084684,-0.4364461642420238,0.27857540366079653,0.5910035055268728
1729874609288498700,2.248498779296875,-1.3873062133789062,0.7562065124511719,0.03376220911741257,0.8641647100448608,0.21640431880950928,-0.45430007576942444,-0.08370810747146606,0.11304821074008942,0.09805318713188171,0.6143802841206263,-0.44280582941924573,0.27707935112289345,0.5913432796682548
1729874609298528800,2.25852880859375,-1.437756061553955,0.7206244468688965,-0.017767027020454407,0.8675210475921631,0.22270146012306213,-0.4447597861289978,-0.06706023216247559,0.10269220173358917,0.12116676568984985,0.6101563938247044,-0.4493344843603696,0.27517018369352353,0.5916832233818514
1729874609308559600,2.2685595703125,-1.4310920238494873,0.7147479057312012,-0.0832429751753807,0.8705688118934631,0.22948022186756134,-0.43525707721710205,-0.051614344120025635,0.10430575907230377,0.1087648868560791,0.6060656094898026,-0.45590841493562767,0.27298165428961674,0.5918723812733762
1729874609318589700,2.278589599609375,-1.384291172027588,0.7502774596214294,-0.14529994130134583,0.8734561204910278,0.23658600449562073,-0.4255601465702057,-0.05279266834259033,0.11854706704616547,0.07622557878494263,0.6021649758525688,-0.46251178345289945,0.27074486512506685,0.5917578456844127
1729874609328619800,2.288619873046875,-1.3041085004806519,0.8090635538101196,-0.1721707135438919,0.8763676285743713,0.2436518669128418,-0.4154680371284485,-0.06365388631820679,0.1423955261707306,0.03889644145965576,0.5984312653650125,-0.4690950111409972,0.2687300703183396,0.5912817643841867
1729874609338650600,2.298650634765625,-1.2018260955810547,0.8606850504875183,-0.1928458958864212,0.8793626427650452,0.2504195272922516,-0.4049833416938782,-0.06642001867294312,0.1584702432155609,0.019042909145355225,0.5948712377434604,-0.47557758855662735,0.26708478192710466,0.5904404638859133
1729874609348680700,2.3086806640625,-1.0941259860992432,0.8718562126159668,-0.21671633422374725,0.8823314905166626,0.25680914521217346,-0.39438578486442566,-0.0554271936416626,0.16273126006126404,-0.007957875728607178,0.5915519024903779,-0.48183400753378597,0.2657876866313456,0.5892870608794286
1729874609358710800,2.318710693359375,-0.9791744351387024,0.8362079858779907,-0.25042930245399475,0.8850583434104919,0.2629395127296448,-0.3841022849082947,-0.03378576040267944,0.1633453071117401,-0.03597205877304077,0.5885849539819751,-0.48774024408124333,0.2646853001603639,0.5878936610261547
1729874609368741600,2.32874169921875,-0.8479708433151245,0.8111817240715027,-0.2961147427558899,0.887462854385376,0.2688463628292084,-0.37434130907058716,-0.012432277202606201,0.15522590279579163,-0.06971991062164307,0.5860547742117348,-0.49321806696782533,0.2637523117212494,0.5862683347723081
1729874609378771500,2.338771484375,-0.703004777431488,0.7851570248603821,-0.295689195394516,0.8896013498306274,0.2744045555591583,-0.36511847376823425,-0.0019365549087524414,0.1459445357322693,-0.1021970808506012,0.5839526797023299,-0.4982344594701679,0.2630649796132655,0.5844300019914793
1729874609388801500,2.348801513671875,-0.5676341652870178,0.8200968503952026,-0.26203641295433044,0.8917202353477478,0.2792189121246338,-0.356190949678421,0.0029789209365844727,0.1399857997894287,-0.11252844333648682,0.5821218691080647,-0.5028110328225406,0.26284136660081503,0.5824343541377963
1729874609398832600,2.35883251953125,-0.4516308307647705,0.8677064180374146,-0.23418693244457245,0.8940022587776184,0.2832213342189789,-0.3471972346305847,0.014475703239440918,0.1272706687450409,-0.14106866717338562,0.5804366875469451,-0.5070810560318608,0.2631922938294474,0.5802517417917625
1729874609408862500,2.368862548828125,-0.4043136537075043,0.8694028854370117,-0.24648141860961914,0.8963291049003601,0.2868170738220215,-0.33812740445137024,0.028765559196472168,0.1091790497303009,-0.1652294397354126,0.5788912252195512,-0.511168923998949,0.26389890409250727,0.5778829410651439
1729874609418892500,2.378892578125,-0.4069693684577942,0.7617669701576233,-0.26329582929611206,0.8983370661735535,0.29046642780303955,-0.3295751214027405,0.03926974534988403,0.09358200430870056,-0.13774046301841736,0.5775022630869109,-0.5150511716190143,0.2644517656618593,0.5755681216995729
1729874609428923600,2.388923583984375,-0.4307524561882019,0.6294235587120056,-0.2512897551059723,0.8998461365699768,0.29417771100997925,-0.32208171486854553,0.059550344944000244,0.07937273383140564,-0.0897529125213623,0.5762420305646839,-0.5186101149308863,0.26458021258579584,0.5735731065920772
1729874609438953700,2.39895361328125,-0.4718138873577118,0.5291341543197632,-0.2293327897787094,0.9009847640991211,0.2977812886238098,-0.31552013754844666,0.08505350351333618,0.060357749462127686,-0.06443887948989868,0.5749902971166302,-0.5218885100664211,0.2643337077641602,0.5719670891436316
1729874609448983600,2.408983642578125,-0.5319530963897705,0.4641665816307068,-0.2401854395866394,0.9018402099609375,0.30144330859184265,-0.30954208970069885,0.09855657815933228,0.023996174335479736,-0.06672430038452148,0.5736843048879707,-0.525054516708495,0.2637171053980564,0.5706640622983629
1729874609459014700,2.4190146484375,-0.6501157283782959,0.4411734342575073,-0.2830871045589447,0.9024295806884766,0.30560606718063354,-0.30368727445602417,0.08537870645523071,-0.025393664836883545,-0.07564616203308105,0.5722857440866456,-0.5283702112385635,0.262642886408669,0.569502212050841
1729874609469044700,2.429044677734375,-0.8178861141204834,0.4415859580039978,-0.3035622835159302,0.9028528332710266,0.31049537658691406,-0.2974046468734741,0.059686899185180664,-0.07152751088142395,-0.0945935845375061,0.5706009867859695,-0.5321245710900296,0.2610385333849234,0.5684337460903852
1729874609479074800,2.43907470703125,-1.016911506652832,0.433150053024292,-0.2900286316871643,0.9032196402549744,0.3158785104751587,-0.2905425727367401,0.053872644901275635,-0.10024133324623108,-0.10231009125709534,0.5684154002799868,-0.5363806166991313,0.25889098205770433,0.5676047653694936
1729874609489105700,2.449105712890625,-1.1263620853424072,0.39596620202064514,-0.28477874398231506,0.9034954905509949,0.3216218650341034,-0.2832936644554138,0.06703978776931763,-0.1070375144481659,-0.08938691020011902,0.5657597852511185,-0.5410307734035668,0.2562008497027574,0.5670649744030499
1729874609499135700,2.4591357421875,-1.0764087438583374,0.3560165464878082,-0.2785749137401581,0.9036263227462769,0.3272913694381714,-0.2762966752052307,0.07618629932403564,-0.09358778595924377,-0.09337791800498962,0.5630754075844752,-0.5455873576631404,0.253349765078388,0.5666519420615707
1729874609509165800,2.469165771484375,-0.9546402096748352,0.36331814527511597,-0.24089518189430237,0.9037333130836487,0.3324548006057739,-0.2697034776210785,0.061430931091308594,-0.07656490802764893,-0.10688334703445435,0.5605698602138415,-0.5497995879909863,0.2507362678538863,0.5662271530044353
1729874609519196700,2.47919677734375,-0.7436583638191223,0.4149378836154938,-0.19164374470710754,0.9040403366088867,0.3366977274417877,-0.26333606243133545,0.04130274057388306,-0.03072848916053772,-0.07533270120620728,0.5583353906001911,-0.5535632600611268,0.2487964801984563,0.5656233444255703
1729874609529226500,2.4892265625,-0.46646884083747864,0.47294527292251587,-0.11375027894973755,0.9046843647956848,0.33969083428382874,-0.25720882415771484,0.040414512157440186,0.029373466968536377,-0.0947045385837555,0.5565254848777474,-0.5567253589410157,0.24789608619462475,0.5646980140425614
1729874609539256600,2.499256591796875,-0.23877103626728058,0.48625022172927856,-0.011395146138966084,0.9056967496871948,0.3411560654640198,-0.25164666771888733,0.04925936460494995,0.08488461375236511,-0.11473202705383301,0.5551440882599189,-0.5591323507175696,0.2480880634190789,0.5635941912756671
1729874609549287700,2.50928759765625,-0.1212790310382843,0.48579853773117065,0.09870472550392151,0.9070751667022705,0.3411615192890167,-0.2466241419315338,0.07340884208679199,0.09380549192428589,-0.11090444028377533,0.5539096370296999,-0.5609348613251469,0.24907832157789525,0.562579938208015
1729874609559317500,2.5193173828125,-0.14128988981246948,0.48457738757133484,0.12611797451972961,0.9086681008338928,0.3403991460800171,-0.24176588654518127,0.09105730056762695,0.04017031192779541,-0.09298132359981537,0.5526209410854291,-0.5625048637836264,0.25041032746714775,0.5616876685728908
1729874609569348600,2.5293486328125,-0.27491825819015503,0.43783119320869446,0.16087250411510468,0.9102444648742676,0.33961769938468933,-0.2368859052658081,0.0728335976600647,-0.06088539958000183,-0.05252748727798462,0.5511077399699977,-0.5641707555725661,0.25153211572596823,0.5610020058376362
1729874609579378700,2.539378662109375,-0.6478711366653442,0.4333016276359558,0.17703735828399658,0.9118847250938416,0.33901700377464294,-0.23137393593788147,0.03571659326553345,-0.14834314584732056,-0.003885984420776367,0.5487770072961732,-0.5664058501515206,0.25198699989054696,0.5608305510583472
1729874609589408500,2.549408447265625,-1.0478487014770508,0.5049313306808472,0.11183277517557144,0.9134384989738464,0.3396543860435486,-0.22419928014278412,0.04199075698852539,-0.2092374563217163,0.0252094566822052,0.5453308181650843,-0.5698885740749898,0.2512516077098909,0.5609938701117226
1729874609599439600,2.559439697265625,-1.1851134300231934,0.5720188021659851,0.09797022491693497,0.9149883389472961,0.3412073850631714,-0.21534663438796997,0.020390868186950684,-0.1946466565132141,0.02110227942466736,0.5411040712925784,-0.5743764595145727,0.24983667749522226,0.5611416005720573
1729874609609469700,2.5694697265625,-1.1036531925201416,0.621035099029541,0.09627272933721542,0.9165680408477783,0.3427761495113373,-0.2059308886528015,0.00614619255065918,-0.1532772183418274,0.03260636329650879,0.5367490985783799,-0.5790529014129231,0.248459840805277,0.5611291056305406
1729874609619499800,2.579499755859375,-0.8144529461860657,0.6912981271743774,0.14039385318756104,0.918296217918396,0.34366315603256226,-0.19653953611850739,0.01439732313156128,-0.06340494751930237,0.029989957809448242,0.5327809659464986,-0.5833573987570221,0.24783941714770077,0.5607265723094821
1729874609629530600,2.589530517578125,-0.47446125745773315,0.7036269903182983,0.19466455280780792,0.9202282428741455,0.34336400032043457,-0.1878332644701004,0.027067959308624268,0.03741908073425293,0.00890880823135376,0.529550418978669,-0.5868402639571602,0.24839861723634502,0.5599045324884304
1729874609639560700,2.599560791015625,-0.2426804155111313,0.6768014430999756,0.22266076505184174,0.9222302436828613,0.3420597016811371,-0.18024025857448578,0.04427671432495117,0.09490624070167542,0.022723868489265442,0.5270602263902494,-0.5894445973663087,0.24986984214032473,0.5588627891504437
1729874609649590800,2.6095908203125,-0.14891451597213745,0.6291420459747314,0.1871003806591034,0.924105167388916,0.3404531180858612,-0.17355501651763916,0.056622982025146484,0.0917367935180664,0.04518289864063263,0.525109784068784,-0.5914978609558694,0.25169976090198015,0.5577071500558167
1729874609659621600,2.61962158203125,-0.23203669488430023,0.6051515340805054,0.07887163013219833,0.9256218671798706,0.33950573205947876,-0.16721296310424805,0.04814833402633667,0.03280872106552124,0.07208973169326782,0.5234113433145674,-0.5935267334520486,0.25321835927871533,0.5564594697012074
1729874609669651700,2.629651611328125,-0.4040606617927551,0.5453547239303589,0.007098110392689705,0.9267120361328125,0.33965766429901123,-0.16074040532112122,0.02392578125,-0.029858499765396118,0.08778823912143707,0.5216131758922559,-0.5959267004987433,0.2539707895286077,0.5552385981043975
1729874609679681500,2.639681640625,-0.6108740568161011,0.4766033887863159,-0.014833820052444935,0.9274996519088745,0.3404958248138428,-0.15429528057575226,0.004964947700500488,-0.07487088441848755,0.10684056580066681,0.5194698356001902,-0.5986617145232059,0.25388286199104226,0.5543453513487948
1729874609689712600,2.649712646484375,-0.9129175543785095,0.5207898020744324,-0.06312278658151627,0.9281308650970459,0.3419586420059204,-0.14709621667861938,0.0057375431060791016,-0.1164185106754303,0.08853311836719513,0.516655541500738,-0.6020482555662293,0.2529620278828757,0.5537283565978769
1729874609699742500,2.659742431640625,-1.193139672279358,0.49479395151138306,-0.1312805414199829,0.9285430908203125,0.34437325596809387,-0.13861793279647827,0.0034332871437072754,-0.12667611241340637,0.04093128442764282,0.5130620582537203,-0.6063434310618702,0.2510750418915225,0.5532417113035693
1729874609709772500,2.6697724609375,-1.4879209995269775,0.3624143600463867,-0.1464347094297409,0.9286270141601562,0.3474968671798706,-0.12999145686626434,-0.00350189208984375,-0.11003965139389038,0.050279632210731506,0.5088433681761945,-0.6111327659649461,0.24803429515169292,0.5532396987235815
1729874609719803600,2.6798037109375,-1.8969348669052124,0.29739105701446533,-0.14619290828704834,0.9285242557525635,0.3509775996208191,-0.12106763571500778,0.03387802839279175,-0.08709213137626648,0.060856595635414124,0.5036614075571065,-0.6164913993469553,0.2437304626365122,0.5539485131841982
1729874609729833700,2.689833740234375,-2.277963638305664,0.2248009890317917,-0.23296375572681427,0.928175687789917,0.3551521897315979,-0.1111607551574707,0.08451956510543823,-0.037418484687805176,0.06166132539510727,0.49734673264253815,-0.6227180523658623,0.23799548060959616,0.5551815230217327
1729874609739863600,2.699863525390625,-2.633758783340454,0.13035869598388672,-0.2512085437774658,0.9274600744247437,0.3601023852825165,-0.10071735084056854,0.10850483179092407,0.03091934323310852,0.0656222254037857,0.49012311823638344,-0.6295870273586163,0.2307845293959085,0.556900288076715
1729874609749894700,2.709894775390625,-2.893131971359253,0.07125329971313477,-0.2014084905385971,0.9267417788505554,0.3648311495780945,-0.08971037715673447,0.10987937450408936,0.07723122835159302,0.08330178260803223,0.48183817760159486,-0.6368747997358691,0.22256527052112382,0.5591843835232154
1729874609759924700,2.7199248046875,-3.1033172607421875,0.08461160957813263,-0.2007371038198471,0.9260644912719727,0.36921921372413635,-0.07798530161380768,0.10852718353271484,0.06249767541885376,0.11785662919282913,0.4726778635215569,-0.644482623605621,0.21365742726777362,0.5617546698544617
1729874609769954600,2.72995458984375,-3.18292498588562,0.14205946028232574,-0.19821269810199738,0.9254032373428345,0.3733438551425934,-0.06513889133930206,0.06010085344314575,0.04456382989883423,0.11157149821519852,0.4628546501957058,-0.6524289530535686,0.2043697999765911,0.5642117941006257
1729874609779985700,2.739985595703125,-3.2081551551818848,0.23764899373054504,-0.21505692601203918,0.9247074723243713,0.377250611782074,-0.05097242817282677,0.014532089233398438,0.047126829624176025,0.09818321466445923,0.4525446853356517,-0.6607019481081564,0.19490182391407773,0.5662946303990096
1729874609790015700,2.750015625,-3.141392707824707,0.3456135392189026,-0.29192134737968445,0.923872172832489,0.38099366426467896,-0.0361127108335495,-0.004133343696594238,0.06427302956581116,0.07444286346435547,0.4423706051504227,-0.6689318257382995,0.18567136777276788,0.5677716529424085
1729874609800045800,2.7600458984375,-2.915161609649658,0.3834100365638733,-0.3191625475883484,0.9228039383888245,0.38469061255455017,-0.0211263969540596,-0.019559741020202637,0.10673397779464722,0.051308393478393555,0.4326927474166563,-0.6768866694672641,0.17680847995756502,0.5686302254292345
1729874609810076700,2.77007666015625,-2.6104085445404053,0.40519362688064575,-0.2918590307235718,0.9216780662536621,0.3878951072692871,-0.0068383715115487576,-0.034303247928619385,0.15849155187606812,0.10380810499191284,0.4238110366511425,-0.6841847151277579,0.1687367471744674,0.5690371800377606
1729874609820106800,2.780106689453125,-2.3165762424468994,0.430367112159729,-0.27437883615493774,0.920592725276947,0.39046791195869446,0.0066261449828743935,-0.02615302801132202,0.16772907972335815,0.12908565998077393,0.4157922309431481,-0.6907825753969227,0.16165551652831808,0.5690375953378327
1729874609830136600,2.790136474609375,-1.9597128629684448,0.37013357877731323,-0.28819796442985535,0.9194433093070984,0.3927755355834961,0.018751515075564384,-0.03454029560089111,0.1571207344532013,0.1597154140472412,0.4088288374054116,-0.6965785650227271,0.15541576538587726,0.5687559618421998
1729874609840167700,2.800167724609375,-1.6802864074707031,0.35925742983818054,-0.27740445733070374,0.9182381629943848,0.394949346780777,0.029221905395388603,-0.038874030113220215,0.1414276659488678,0.1733081340789795,0.4030111850148296,-0.7015080485078743,0.14999136721795492,0.568305516280053
1729874609850197500,2.810197509765625,-1.2974975109100342,0.3680187165737152,-0.29518744349479675,0.9169819355010986,0.39705827832221985,0.03858725726604462,-0.026478946208953857,0.13762494921684265,0.15289533138275146,0.3982539051658315,-0.7057871185582524,0.14545849127140037,0.5675387751493562
1729874609860227600,2.8202275390625,-0.8885909914970398,0.3710782527923584,-0.327446848154068,0.9155794978141785,0.3994596600532532,0.046329256147146225,0.006966948509216309,0.18719500303268433,0.09276998043060303,0.3949998198502895,-0.70923000592988,0.1419768554898772,0.5664014557699494
1729874609870258700,2.8302587890625,-0.4859503507614136,0.3968028128147125,-0.2668308913707733,0.9141683578491211,0.40190818905830383,0.052594251930713654,0.03392130136489868,0.2496420443058014,0.00538920983672142,0.39315063717660437,-0.7118841065685821,0.13970735370142362,0.5649207865273821
1729874609880288500,2.84028857421875,-0.2117924839258194,0.4571891725063324,-0.158528134226799,0.9130767583847046,0.40366366505622864,0.057850196957588196,0.045755088329315186,0.29689785838127136,-0.017780542373657227,0.39223572329755196,-0.7139011923955699,0.13881709625357874,0.5632283171568964
1729874609890318600,2.850318603515625,-0.049008097499608994,0.5558643341064453,-0.14133556187152863,0.9121965169906616,0.40488100051879883,0.06300028413534164,0.04895460605621338,0.2591814696788788,-0.013699062168598175,0.391840673293591,-0.7156735616477102,0.13896581119459991,0.5612136744897607
1729874609900349700,2.860349609375,-0.06317837536334991,0.6427635550498962,-0.21747587621212006,0.9110845327377319,0.40646252036094666,0.06865203380584717,0.01849609613418579,0.14138895273208618,0.002682916820049286,0.39175759781437,-0.7175642332722793,0.13938288294453427,0.5587485424646145
1729874609910379800,2.8703798828125,-0.1913810819387436,0.7150710225105286,-0.24625132977962494,0.9096264839172363,0.40852290391921997,0.07542537152767181,-0.021976768970489502,0.022141188383102417,0.02748001366853714,0.3914817484276634,-0.7198924103201945,0.13952635987422368,0.5559042204872775
1729874609920409600,2.88040966796875,-0.3597426116466522,0.7272250652313232,-0.2225169688463211,0.9080853462219238,0.4104563891887665,0.08310561627149582,-0.037769854068756104,-0.04940295219421387,0.07128285616636276,0.390646488441299,-0.7225936563859279,0.13932414048923003,0.5530303209175529
1729874609930440700,2.890440673828125,-0.5852864980697632,0.7706053256988525,-0.20018529891967773,0.9065592885017395,0.4119553565979004,0.09188598394393921,-0.0444377064704895,-0.09341293573379517,0.10116826742887497,0.388992678424853,-0.7257396953593872,0.13872593497269545,0.550219703077537
1729874609940470800,2.900470703125,-0.8305439949035645,0.7679948210716248,-0.20278720557689667,0.9049897193908691,0.41306355595588684,0.1018449068069458,-0.059729039669036865,-0.09912922978401184,0.12229156494140625,0.386431163880594,-0.7293796143683697,0.13757844973140534,0.547493033068493
1729874609950500600,2.91050048828125,-1.088969111442566,0.7400683760643005,-0.24970650672912598,0.9032373428344727,0.4140534996986389,0.11279328912496567,-0.05167478322982788,-0.08325821161270142,0.1063230037689209,0.3829789690215666,-0.733492757297989,0.13559136304737268,0.5449133884657628
1729874609960531700,2.92053173828125,-1.1406934261322021,0.6210346817970276,-0.3664619028568268,0.9011475443840027,0.41551607847213745,0.12361061573028564,-0.010461509227752686,-0.05241796374320984,0.07803439348936081,0.3792060260698733,-0.7377023210146637,0.13266722234710043,0.5425841175300066
1729874609970561800,2.930561767578125,-1.075169563293457,0.44551265239715576,-0.22323362529277802,0.899084210395813,0.4170475900173187,0.1331128031015396,0.05181300640106201,0.03192698955535889,0.05812571942806244,0.37559728333668785,-0.7414900168047454,0.1294177566217778,0.5407127992566289
1729874609980591600,2.940591552734375,-0.5584012269973755,0.1692490428686142,0.04583298787474632,0.8983863592147827,0.41654324531555176,0.13926227390766144,0.13948607444763184,0.16794469952583313,0.08368398249149323,0.37253066341242025,-0.7438911356603715,0.1275033933175006,0.5399906656718595
1729874609990622700,2.950622802734375,-0.3671463131904602,0.10842005908489227,-0.0401676744222641,0.8982716798782349,0.41575562953948975,0.1423216015100479,0.2266216278076172,0.10641548037528992,0.031766071915626526,0.37076320789541306,-0.7450641214802997,0.12665012142342955,0.5397906487498484
1729874610000652500,2.960652587890625,-0.1363743543624878,0.04118865728378296,-0.030406389385461807,0.8979354500770569,0.4158375561237335,0.14419162273406982,0.11894083023071289,0.06280010938644409,-0.015407323837280273,0.3698257551734402,-0.7458260577097106,0.12585430255583133,0.5395675699546071
1729874610010683600,2.97068359375,0.03609594330191612,-0.0036065084859728813,0.09802188724279404,0.8980757594108582,0.41547533869743347,0.1443617194890976,0.07751023769378662,0.05110785365104675,-0.10394109785556793,0.36963423028751846,-0.7458682813911145,0.12594192534683601,0.5396199691883659
1729874610020713500,2.98071337890625,-0.11366738379001617,0.17220446467399597,0.22346822917461395,0.8986263871192932,0.4139903485774994,0.14519859850406647,0.09610933065414429,-0.08038747310638428,-0.23401989042758942,0.36901975800689274,-0.7460409350939867,0.12657891230758175,0.5396527997550775
1729874610030743600,2.99074365234375,-0.1415051370859146,0.2986939549446106,0.3276449739933014,0.8994327783584595,0.41123488545417786,0.14800871908664703,0.03188741207122803,-0.11062154173851013,-0.16706682741641998,0.3675806371629125,-0.7467867211755,0.12772607125662935,0.5393330481368076
1729874610040774700,3.000774658203125,-0.21058641374111176,0.37061402201652527,0.32100412249565125,0.9002912640571594,0.40801185369491577,0.1516638696193695,0.005653500556945801,-0.16242170333862305,-0.12946225702762604,0.3658525062452683,-0.7477711391019768,0.12911336273448434,0.5388134997053149
1729874610050804700,3.0108046875,-0.30415230989456177,0.43292319774627686,0.3174338936805725,0.9009454846382141,0.4047456681728363,0.1564556062221527,-0.020589590072631836,-0.1572023630142212,-0.07192182540893555,0.36374270320718816,-0.7491581832001033,0.13034501505571533,0.5380181441772771
1729874610060834600,3.02083447265625,-0.431125283241272,0.372963011264801,0.29260867834091187,0.9015539884567261,0.40135663747787476,0.1615961194038391,-0.021625399589538574,-0.08658313751220703,-0.01012207567691803,0.36128912367753446,-0.750705777535196,0.1312969728364214,0.5372821544419607
1729874610070865700,3.03086572265625,-0.7535536885261536,0.2572699785232544,0.08975756913423538,0.9017452597618103,0.398807168006897,0.16675902903079987,0.007434487342834473,-0.04307904839515686,0.04301893711090088,0.3583469245368806,-0.7524992825906898,0.13086001305018843,0.5368501446286584
1729874610080895700,3.040895751953125,-0.8949876427650452,0.07769788056612015,0.15446892380714417,0.9019114971160889,0.396325021982193,0.17170420289039612,-0.004801452159881592,-0.01380246877670288,0.09886479377746582,0.35472723154918395,-0.7544039206215352,0.1293322287248368,0.5369512107558435
1729874610090925600,3.050925537109375,-0.9488295316696167,-0.2686222493648529,0.48172828555107117,0.9031997919082642,0.39198943972587585,0.17485585808753967,0.08398282527923584,-0.027380704879760742,0.03492210805416107,0.35053059488727695,-0.7556751083570011,0.12799632245213052,0.5382382850385922
1729874610100957700,3.060957763671875,-1.3890464305877686,-0.3442143499851227,0.5005816221237183,0.9060909748077393,0.38488924503326416,0.17566834390163422,0.21105074882507324,-0.14631813764572144,-0.04444266855716705,0.34489561522025436,-0.756233263881827,0.1262751791919341,0.5414912871146425
1729874610110987500,3.070987548828125,-2.0693199634552,-0.05425844341516495,-0.07790599763393402,0.9071524739265442,0.3799123167991638,0.1809457540512085,0.32853496074676514,-0.32887163758277893,-0.19621966779232025,0.3378413907433477,-0.7586625224848306,0.12208214780633513,0.543498349183209
1729874610121017300,3.081017333984375,-2.4719035625457764,-0.01031985692679882,-0.18152931332588196,0.9065783619880676,0.37720146775245667,0.18930107355117798,0.13507819175720215,-0.24522826075553894,-0.0758213996887207,0.3295307721324117,-0.7625066312956451,0.11503988544246829,0.5447559185715205
1729874610131048400,3.09104833984375,-2.385634183883667,-0.00634508952498436,0.09277599304914474,0.9063930511474609,0.37289148569107056,0.19850416481494904,0.05265253782272339,-0.06550312042236328,0.11665096879005432,0.32027957516075106,-0.7665217016001379,0.10815065226186239,0.5460485672546553
1729874610141078500,3.10107861328125,-2.082796573638916,0.12582871317863464,0.2937341332435608,0.9070454239845276,0.36645445227622986,0.20731541514396667,0.09351909160614014,0.049866318702697754,0.0504971444606781,0.3110386865402925,-0.7701135674598031,0.10287275196505445,0.5473547484488697
1729874610151108600,3.111108642578125,-1.6030570268630981,0.32815173268318176,0.19577428698539734,0.9075281620025635,0.36008238792419434,0.2161787450313568,0.03931015729904175,0.16327878832817078,0.023262232542037964,0.30300631835435043,-0.7734696034183898,0.09916725231430944,0.5478117879929407
1729874610161139500,3.121139404296875,-1.027500033378601,0.32556524872779846,-0.07443137466907501,0.9069753289222717,0.3566044569015503,0.2241186797618866,-0.021614551544189453,0.2362757921218872,-0.022351622581481934,0.2975195163482134,-0.7763938149382039,0.09629114577604964,0.5471954561316285
1729874610171169500,3.13116943359375,-0.3541328012943268,0.036544375121593475,-0.19760602712631226,0.906028687953949,0.35635238885879517,0.2283097356557846,-0.04210638999938965,0.22877639532089233,-0.09006497263908386,0.2951456404320599,-0.7780065188182549,0.09413142456399612,0.5465659393776865
1729874610181199600,3.14119970703125,-0.09822670370340347,-0.21423831582069397,-0.19553834199905396,0.9055511355400085,0.35775110125541687,0.2280169427394867,0.04478168487548828,0.15083959698677063,-0.14070603251457214,0.2950314717310638,-0.7780845060937609,0.09269829812372722,0.5467614902703676
1729874610191230500,3.15123046875,-0.4225826859474182,-0.23307405412197113,-0.11911068856716156,0.9055039882659912,0.35868585109710693,0.2267317771911621,0.15170127153396606,0.10185489058494568,-0.15603768825531006,0.2946621074718694,-0.7778640544871541,0.09106810446147522,0.5475476820347596
1729874610201260500,3.161260498046875,-0.7747811079025269,-0.12141501158475876,0.037359077483415604,0.9057683944702148,0.3576622009277344,0.22729280591011047,0.18448764085769653,0.1188850998878479,-0.07067638635635376,0.2924493959611424,-0.7782908913509176,0.08893643043643178,0.5484771747597263
1729874610211290600,3.17129052734375,-0.8010864853858948,0.07820622622966766,0.12390834838151932,0.9061511754989624,0.35499462485313416,0.2299327850341797,0.20201843976974487,0.045807987451553345,-0.010145068168640137,0.28905354012036283,-0.7793552731419582,0.08701582777857932,0.5490735163941435
1729874610221321500,3.181321533203125,-0.6349457502365112,0.22793196141719818,0.20616354048252106,0.9063268303871155,0.35186702013015747,0.23401124775409698,0.19116157293319702,-0.07406559586524963,-0.04849483072757721,0.28572973368891375,-0.7807850899254477,0.0859084964673176,0.5489561918350293
1729874610231351600,3.1913515625,-0.43307679891586304,0.24162833392620087,0.36221787333488464,0.9067602753639221,0.3479897677898407,0.2380947768688202,0.10640811920166016,-0.09190154075622559,0.027774453163146973,0.2827077494740849,-0.7820964655706091,0.08586329528808778,0.5486611119629429
1729874610241381600,3.201381591796875,-0.10446682572364807,0.1610824167728424,0.38916853070259094,0.9076021313667297,0.3438042998313904,0.24095046520233154,0.041738688945770264,-0.02205750346183777,0.13572810590267181,0.28047499563096356,-0.7828915147810551,0.0869258623231963,0.5485058161632278
1729874610251412700,3.211412841796875,0.26830384135246277,0.12641949951648712,0.23209448158740997,0.9083914160728455,0.34109270572662354,0.24182789027690887,-0.022313594818115234,0.0607474148273468,0.06200525164604187,0.2798758464474455,-0.7829835048822099,0.08860460602247433,0.5484118336390291
1729874610261442300,3.2214423828125,0.5166296362876892,0.27123305201530457,-0.03551140055060387,0.9082531332969666,0.3411747217178345,0.24223151803016663,-0.08592647314071655,0.13328197598457336,-0.14283563196659088,0.2810997457952166,-0.7829102351519797,0.09037323839492152,0.5476013153485665
1729874610271472400,3.231472412109375,0.6299348473548889,0.4222840666770935,-0.16838103532791138,0.9070195555686951,0.34360501170158386,0.24341632425785065,-0.13327670097351074,0.19300085306167603,-0.2676165997982025,0.28351405493668713,-0.7830986092265615,0.09200396074519758,0.5458129352117249
1729874610281503500,3.24150341796875,0.613636314868927,0.5117893815040588,-0.16318626701831818,0.9052765369415283,0.3466789126396179,0.2455369234085083,-0.13159483671188354,0.1889808475971222,-0.22006988525390625,0.28625010068995516,-0.7835657785713721,0.09377171775273468,0.5434082274030241
1729874610291533600,3.251533447265625,0.35697922110557556,0.478953093290329,-0.17570897936820984,0.9034598469734192,0.34937456250190735,0.24839074909687042,-0.061662912368774414,0.11139506101608276,-0.16152238845825195,0.2883897679675678,-0.7843040135450398,0.09519762938522043,0.5409584705141383
1729874610301563400,3.2615634765625,0.22669418156147003,0.30185094475746155,-0.18419061601161957,0.9018005728721619,0.3518710136413574,0.2508838474750519,0.02663576602935791,0.06986662745475769,-0.03062307834625244,0.2898485087150017,-0.7850325870690358,0.09573801597032883,0.539023192406751
1729874610311594500,3.271594482421875,0.30339351296424866,0.14508287608623505,0.0938524454832077,0.901071310043335,0.3529508411884308,0.25198549032211304,0.10654306411743164,0.09576445817947388,0.09217661619186401,0.29087419440021345,-0.7852831736343477,0.09655608232352267,0.5379588039367873
1729874610321624600,3.28162451171875,0.4580898582935333,0.044995274394750595,0.23985786736011505,0.9014890193939209,0.3522656261920929,0.25144892930984497,0.1880037784576416,0.08328121900558472,0.13166877627372742,0.29186271013043374,-0.7848749873866067,0.09846687261515098,0.5376725150584639
1729874610331654700,3.291654541015625,0.45955246686935425,-0.03735153004527092,0.1376848816871643,0.9021939635276794,0.35164377093315125,0.24978558719158173,0.15418726205825806,0.03054305911064148,0.1839303821325302,0.2931685936705279,-0.7840858697643983,0.10050939816540332,0.5377354610202127
1729874610341685500,3.301685546875,0.6282342076301575,0.00516344141215086,0.052948955446481705,0.9025561213493347,0.3520956039428711,0.24783259630203247,0.006348788738250732,0.03010648488998413,0.11038275063037872,0.2949125745530142,-0.783246704561899,0.10218069518042333,0.5376896930947532
1729874610351715600,3.311715576171875,1.4883170127868652,0.10722082853317261,0.08666670322418213,0.9026749730110168,0.3540010452270508,0.24466565251350403,-0.11822056770324707,0.09256267547607422,-0.13530588150024414,0.29874626998199927,-0.7818179628972686,0.1053256738220666,0.537045525288289
1729874610361745700,3.32174560546875,2.3139588832855225,0.25286588072776794,0.09455791860818863,0.9025750160217285,0.35783544182777405,0.23939910531044006,-0.21538037061691284,0.1538069248199463,-0.2546578049659729,0.30595121069766223,-0.7793227607719501,0.11115568153732859,0.5354383566437925
1729874610371776500,3.331776611328125,2.429091691970825,0.4082844853401184,0.13092206418514252,0.9021592736244202,0.36260855197906494,0.23371700942516327,-0.28616201877593994,0.25302252173423767,-0.20777705311775208,0.3149089242601009,-0.7764000139718416,0.1185812939506464,0.5328919720285932
1729874610381806600,3.341806640625,2.0065183639526367,0.4055849313735962,0.3192376494407654,0.9019628167152405,0.3658372163772583,0.22940437495708466,-0.2751164436340332,0.2870863378047943,-0.15990054607391357,0.3227651706621119,-0.7738264921908711,0.12607436898983707,0.530207983312103
1729874610391836700,3.351836669921875,1.0694527626037598,0.042355336248874664,0.3102249801158905,0.9027144908905029,0.36630702018737793,0.2256678342819214,-0.11706990003585815,0.02830052375793457,-0.056737661361694336,0.32782834509341674,-0.7716285890671247,0.13199709876491988,0.5288617681852497
1729874610401867500,3.361867431640625,-0.3563743531703949,-0.11406201869249344,0.006542041897773743,0.9034057259559631,0.36570870876312256,0.22386430203914642,0.09874570369720459,-0.37428420782089233,0.07301077246665955,0.3288515699562969,-0.7707889289116608,0.13347876861760533,0.5290789028313161
1729874610411897300,3.3718974609375,-1.4203615188598633,-0.14769507944583893,-0.0396193265914917,0.9035654664039612,0.36397674679756165,0.2260320633649826,0.1441640853881836,-0.47824981808662415,0.318371057510376,0.3254507937752765,-0.7719795944548254,0.130627488239357,0.5301563761984651
1729874610421927400,3.381927490234375,-1.8167670965194702,-0.09784916788339615,0.11042848974466324,0.9039929509162903,0.3598368465900421,0.23089972138404846,0.11001479625701904,-0.30403539538383484,0.41849926114082336,0.31899958050664556,-0.7742976724947936,0.1261466380441293,0.5317796491792446
1729874610431958500,3.39195849609375,-1.5018669366836548,0.02114485763013363,0.11932718008756638,0.9045335054397583,0.35467979311943054,0.2366892397403717,0.07746130228042603,-0.06522056460380554,0.16556313633918762,0.3120218507193344,-0.7768280111286265,0.12199533708925406,0.533195947168569
1729874610441988400,3.40198828125,-0.5809072852134705,0.08519638329744339,-0.030858058482408524,0.9045697450637817,0.35170966386795044,0.24094446003437042,0.005174577236175537,0.05772942304611206,-0.11341142654418945,0.30774015450647785,-0.7785910587663865,0.1194495480867159,0.5336889547526629
1729874610452018400,3.412018310546875,-0.0023413917515426874,0.12797127664089203,-0.1739901751279831,0.9038809537887573,0.35224631428718567,0.242738276720047,-0.023784518241882324,-0.005398809909820557,-0.28785836696624756,0.30701272042314726,-0.7793266650738022,0.11840222059970325,0.5332673954459564
1729874610462049500,3.422049560546875,0.11862730234861374,0.02446155808866024,-0.04812519997358322,0.9032590985298157,0.3534891605377197,0.24324563145637512,0.012222468852996826,-0.079365074634552,-0.31198644638061523,0.3075882386363959,-0.7795039167085567,0.11830664173010197,0.532697530120381
1729874610472079600,3.43207958984375,-0.16665025055408478,-0.12231137603521347,0.09186945855617523,0.9034823775291443,0.35321351885795593,0.2428162842988968,0.14618492126464844,-0.12388923764228821,-0.2056610882282257,0.3075237926471289,-0.779361750689916,0.11833598610409563,0.5329361594804811
1729874610482109400,3.442109375,-0.4521104693412781,-0.202752947807312,0.1339745670557022,0.9043353796005249,0.3512721657752991,0.2424570769071579,0.21561402082443237,-0.19091758131980896,-0.07874548435211182,0.3060049670770103,-0.7793434848898203,0.11769567764714224,0.5339779381160965
1729874610492140500,3.452140625,-0.603788435459137,-0.2573575973510742,-0.010031341575086117,0.9051475524902344,0.3493673503398895,0.24217866361141205,0.1735878586769104,-0.2675955295562744,-0.0032106637954711914,0.3039154948345514,-0.7794760106942402,0.11621738074331762,0.5353000020332421
1729874610502170600,3.462170654296875,-0.9428243041038513,-0.24397294223308563,-0.19448186457157135,0.9054191708564758,0.3484148383140564,0.24253587424755096,0.086478590965271,-0.3087725043296814,-0.005444735288619995,0.30137525898433565,-0.7800003349472776,0.11343461247740558,0.5365679655750021
1729874610512200700,3.47220068359375,-1.2324236631393433,-0.15534932911396027,-0.1982254832983017,0.9051410555839539,0.3476937711238861,0.24459873139858246,0.002344787120819092,-0.16902866959571838,0.07235690951347351,0.2977134505122697,-0.7812564223474467,0.10926009713422642,0.537649765333265
1729874610522231600,3.4822314453125,-0.8781250715255737,-0.20537403225898743,0.022505294531583786,0.9052804112434387,0.3457920253276825,0.2467699944972992,-0.015494585037231445,0.003405362367630005,0.10334300994873047,0.29376752720312443,-0.7824383907392751,0.10571264416067078,0.5388095399032322
1729874610532261600,3.49226171875,-0.4206683337688446,-0.18785947561264038,0.09923629462718964,0.9060529470443726,0.3435225188732147,0.24710464477539062,0.08798104524612427,0.08184674382209778,-0.08981689810752869,0.29118460780567235,-0.782773613342211,0.10400862223552364,0.5400549398543839
1729874610542291700,3.502291748046875,-0.12051849812269211,-0.17583057284355164,0.10153939574956894,0.9068154692649841,0.3419448733329773,0.24649427831172943,0.12960726022720337,0.15845182538032532,-0.2991522550582886,0.2899531779640266,-0.7826540977966907,0.10343937021943593,0.5409991028327034
1729874610552322600,3.512322509765625,0.05091264098882675,-0.31291571259498596,0.11011983454227448,0.907768189907074,0.340919554233551,0.24439868330955505,0.10709381103515625,0.2589186131954193,-0.2650132477283478,0.2896982227129255,-0.7819833003577198,0.10344786228445421,0.542102922110551
1729874610562352400,3.522352294921875,-0.0029071804601699114,-0.5034862756729126,0.10514424741268158,0.909151554107666,0.3399871289730072,0.24052457511425018,0.09841674566268921,0.24506530165672302,-0.1390078365802765,0.2897426766144444,-0.7807529168463223,0.10337876293643895,0.5438628922729379
1729874610572382500,3.532382568359375,-0.14990487694740295,-0.6431245803833008,0.021827522665262222,0.9107635021209717,0.3392021656036377,0.23548245429992676,0.0678437352180481,0.10153266787528992,0.021658778190612793,0.28959419489901495,-0.7792359583600025,0.10262822072140716,0.546254569706823
1729874610582413300,3.542413330078125,-0.4871337115764618,-0.6134752035140991,-0.00957194622606039,0.9122689366340637,0.3384703993797302,0.23065848648548126,0.019463300704956055,-0.06170651316642761,0.1563807725906372,0.28867252590747644,-0.777926472947253,0.10079508286436505,0.5489435035005593
1729874610592443400,3.552443359375,-0.3562670648097992,-0.4337981045246124,0.10456341505050659,0.9136143326759338,0.33699747920036316,0.22746874392032623,-0.05077540874481201,-0.09822791814804077,0.1988162100315094,0.2869874111540841,-0.7771418983967796,0.09891835015528057,0.5512749382380654
1729874610602473500,3.562473388671875,0.06192507967352867,-0.257174551486969,0.0766628086566925,0.9147736430168152,0.33570119738578796,0.22470849752426147,-0.041360557079315186,-0.11664605140686035,-0.023765459656715393,0.28634233296696515,-0.7763104787493227,0.09846975556114324,0.5528596926970346
1729874610612504600,3.572504638671875,0.11934496462345123,-0.08176277577877045,-0.03127724304795265,0.9151707291603088,0.33584365248680115,0.22287105023860931,0.03302562236785889,-0.1254860758781433,-0.39413562417030334,0.28683884525086895,-0.7756995804174048,0.09861890281480731,0.5534328461543062
1729874610622534400,3.582534423828125,0.1319778710603714,-0.2252168357372284,0.12743012607097626,0.9155775904655457,0.33573824167251587,0.22135421633720398,0.07216966152191162,0.04791346192359924,-0.3491770029067993,0.2871935985015587,-0.7751807903773014,0.09885265837141775,0.553933941602688
1729874610632564500,3.592564453125,0.49994099140167236,-0.41308897733688354,0.28636065125465393,0.9170776605606079,0.3343617618083954,0.2171884924173355,0.1719726324081421,0.16670632362365723,-0.16637660562992096,0.2879335896356248,-0.7736784048296887,0.10007981712375716,0.5554278016444081
1729874610642595600,3.602595703125,0.3687416613101959,-0.35246533155441284,0.1878572404384613,0.9187766313552856,0.3331030607223511,0.21187807619571686,0.20822244882583618,0.043987393379211426,-0.13752183318138123,0.2893123786882867,-0.7717337057359299,0.1018141643774293,0.5570991845466106
1729874610652625700,3.612625732421875,0.04696550592780113,-0.11036667227745056,0.0624132975935936,0.9196500182151794,0.3323727250099182,0.2092188596725464,0.11994671821594238,-0.0615445077419281,-0.05525752902030945,0.2897997118996625,-0.7707838332011021,0.10247784565398603,0.5580383577004536
1729874610662655500,3.622655517578125,0.07096803933382034,-0.20397160947322845,0.04335997626185417,0.9201033115386963,0.33201494812965393,0.20778928697109222,0.10853761434555054,-0.05470171570777893,0.04793289303779602,0.2899069455748413,-0.7703050454682819,0.10259035190961936,0.558622837543249
1729874610672686600,3.6326865234375,0.23948541283607483,-0.37870535254478455,0.03469138592481613,0.9208587408065796,0.3319157063961029,0.2045750617980957,0.20406490564346313,-0.04825490713119507,0.00282248854637146,0.290500210237252,-0.769241651299254,0.10273662334185399,0.559751753398016
1729874610682716700,3.642716552734375,0.4729803204536438,-0.4807283282279968,0.01221377681940794,0.9218150973320007,0.3324205279350281,0.19938381016254425,0.2620077133178711,0.047904789447784424,-0.0660524070262909,0.292039479672677,-0.7674894996190684,0.103207409557858,0.5612674810877585
1729874610692746800,3.652746826171875,0.5818567872047424,-0.5401016473770142,-0.00280059315264225,0.9228532910346985,0.333419531583786,0.19280308485031128,0.22663700580596924,0.1376802623271942,-0.06942048668861389,0.29435720854359604,-0.7652373217988624,0.10398740645555517,0.5629851018112301
1729874610702777600,3.662777587890625,0.5308807492256165,-0.42806580662727356,-0.040015872567892075,0.923733651638031,0.33466029167175293,0.1863298863172531,0.19757378101348877,0.11323094367980957,-0.14743518829345703,0.2968459064267464,-0.7630082624058289,0.10480142270895937,0.5645508444872415
1729874610712807400,3.672807373046875,0.2644994258880615,-0.27198299765586853,-0.024305619299411774,0.9242336750030518,0.33577969670295715,0.18178124725818634,0.16699868440628052,0.07185882329940796,-0.20390641689300537,0.2987029981602809,-0.7614474804065748,0.1053012872281623,0.5655846943393488
1729874610722837500,3.68283740234375,0.10513567179441452,-0.38194867968559265,0.1209556981921196,0.9249510765075684,0.33561772108078003,0.17840033769607544,0.14577358961105347,0.13633665442466736,-0.07551024854183197,0.2993353640158654,-0.7603120390780636,0.10547877009733829,0.5667436427321256
1729874610732868400,3.692868408203125,0.1683836132287979,-0.6421480178833008,0.0831417441368103,0.926279604434967,0.3347539007663727,0.17304979264736176,0.18358373641967773,0.17659857869148254,0.0340273380279541,0.2998177843124937,-0.758539520041452,0.1055589695236625,0.5688449083623832
1729874610742898400,3.7028984375,0.12714403867721558,-0.663698136806488,-0.03161519765853882,0.9274770021438599,0.33477744460105896,0.1664656400680542,0.18833738565444946,0.09478798508644104,-0.048438772559165955,0.3006355012712935,-0.7564354573791564,0.1050629437754409,0.5713016729679943
1729874610752928500,3.712928466796875,0.08885309845209122,-0.6068809032440186,-0.11707071214914322,0.928301215171814,0.33562174439430237,0.1600470393896103,0.08903282880783081,0.017085134983062744,-0.0020879507064819336,0.30161594537386277,-0.7544376731086277,0.10415045042321634,0.5735890306903468
1729874610762959400,3.72295947265625,-0.04417252913117409,-0.4611392319202423,-0.14375370740890503,0.9286901950836182,0.3368664085865021,0.15509818494319916,0.02254265546798706,-0.07830625772476196,0.037147387862205505,0.30232047523744526,-0.7529682219700378,0.10289775932755002,0.5753722225577558
1729874610772989400,3.732989501953125,-0.11278834193944931,-0.5905871987342834,-0.13943752646446228,0.9290205836296082,0.3379889130592346,0.15061356127262115,0.011805891990661621,-0.08931642770767212,0.07356870174407959,0.30267663374059633,-0.7516811459183722,0.10140135366985109,0.577130989942125
1729874610783020500,3.7430205078125,-0.30490580201148987,-0.7640975117683411,-0.19460198283195496,0.9294782280921936,0.3392345905303955,0.1448802947998047,0.07886838912963867,-0.07159543037414551,0.06167805194854736,0.3027550906720531,-0.7500714719578958,0.09916117157157799,0.5795681734429409
1729874610793050600,3.753050537109375,-0.4027673602104187,-0.8547302484512329,-0.10449419915676117,0.9300925135612488,0.34017640352249146,0.1385938972234726,0.1047128438949585,0.015719562768936157,0.06529414653778076,0.30220468986487353,-0.748354201628474,0.09624416572434075,0.582559439227102
1729874610803080400,3.76308056640625,-0.171623095870018,-0.9329644441604614,0.06190703064203262,0.9312719702720642,0.3398539125919342,0.13127078115940094,0.06653082370758057,0.17838037014007568,0.1795661449432373,0.3015362306512767,-0.7461921809235235,0.09398200161693934,0.5860380284994288
1729874610813111600,3.773111572265625,0.08573201298713684,-0.8760705590248108,0.011822824366390705,0.9326354265213013,0.3392888605594635,0.12277836352586746,0.05975061655044556,0.225179523229599,0.1094452291727066,0.301654633607258,-0.7435061029999382,0.0926706891731671,0.58958918581134
1729874610823141600,3.7831416015625,0.17948299646377563,-0.6685833930969238,-0.0832858458161354,0.933418333530426,0.3398445248603821,0.11504797637462616,-0.00038909912109375,0.14652931690216064,-0.029217243194580078,0.30268143839322187,-0.7410122781747449,0.09178666458536432,0.5923343654955066
1729874610833171700,3.793171630859375,0.053182054311037064,-0.5988450646400452,-0.0559421107172966,0.9339020252227783,0.3405880630016327,0.10875169187784195,-0.08072203397750854,0.05211210250854492,-0.054277658462524414,0.3036480195870024,-0.7389827699631629,0.0909962182385283,0.5944931558641882
1729874610843202600,3.80320263671875,-0.2778770923614502,-0.6069924831390381,-0.11870003491640091,0.9342706203460693,0.341226726770401,0.10345441848039627,-0.041127920150756836,-0.07840937376022339,-0.062881238758564,0.30381649716435843,-0.7373690020958847,0.08952186912068079,0.5966308456242323
1729874610853232600,3.813232666015625,-0.6567620635032654,-0.6485894918441772,-0.12303432822227478,0.9344774484634399,0.3419066369533539,0.09925549477338791,-0.006270110607147217,-0.16191399097442627,0.031634435057640076,0.30267688017641137,-0.7362869899276537,0.08665572961463326,0.5989648618807534
1729874610863262500,3.823262451171875,-0.6234714984893799,-0.7419705390930176,-0.06820622831583023,0.9348443746566772,0.34211087226867676,0.09500709921121597,0.01608341932296753,-0.07801175117492676,0.183252215385437,0.30077713086767466,-0.7352373413043438,0.08324422425920781,0.6016890204760056
1729874610873293600,3.83329345703125,-0.06724608689546585,-0.6887933611869812,-0.04966823384165764,0.9353192448616028,0.3422947824001312,0.08951173722743988,0.07527041435241699,0.024175524711608887,0.06785225868225098,0.2999190100500817,-0.7336310651730826,0.0808784775131806,0.6043945689681796
1729874610883323400,3.843323486328125,0.15698088705539703,-0.9394226670265198,0.2106645554304123,0.9363482594490051,0.3414214849472046,0.08175154775381088,0.05178040266036987,0.08611446619033813,0.09500633925199509,0.30033317139075344,-0.7310330824114617,0.08041397123880879,0.6073913210891135
1729874610893353500,3.853353515625,0.1451314240694046,-0.9052920937538147,0.08692982792854309,0.9376861453056335,0.33987829089164734,0.07230109721422195,0.037884533405303955,0.18729758262634277,0.21752440929412842,0.30072442736104676,-0.7278304416752944,0.08008369676370887,0.6110763387074019
1729874610903384300,3.86338427734375,-0.10938208550214767,-0.7971011996269226,-0.06549300253391266,0.9382283091545105,0.3399786055088043,0.06436129659414291,-0.016704201698303223,0.13571414351463318,0.09545934200286865,0.3011743694757861,-0.7252314524291398,0.0788669131640373,0.6140956052337808
1729874610913414400,3.873414306640625,-0.255272775888443,-0.9158270359039307,-0.003728971118107438,0.9386173486709595,0.34022966027259827,0.0569332055747509,-0.1285892128944397,-0.06128373742103577,0.17393231391906738,0.3009782758722866,-0.7228794921793481,0.07688850817144634,0.6172078773619929
1729874610923444500,3.883444580078125,-0.4533570408821106,-0.9051124453544617,0.02044108137488365,0.9391927719116211,0.3397994041442871,0.04953066632151604,-0.047774314880371094,-0.18563991785049438,0.11392152309417725,0.2999087459486706,-0.7205720097830188,0.07443998558660125,0.620716834991385
1729874610933475600,3.8934755859375,-0.38936981558799744,-0.7940770387649536,-0.0879940539598465,0.9394823312759399,0.33988386392593384,0.04303853213787079,-0.005232274532318115,-0.12829023599624634,-0.0008937083184719086,0.29876358033245054,-0.7185922670905084,0.07172461596508192,0.6238760020074148
1729874610943505400,3.90350537109375,-0.24129384756088257,-0.7834658026695251,-0.0939299687743187,0.9394496083259583,0.3407262861728668,0.03660837560892105,-0.04456734657287598,-0.012616604566574097,0.018918395042419434,0.29822595127581397,-0.7166032772844396,0.06916597207299406,0.6267034066888365
1729874610953535500,3.913535400390625,-0.20018769800662994,-0.6168276071548462,-0.008831321261823177,0.9396290183067322,0.3408239483833313,0.030600454658269882,-0.07926219701766968,0.08201229572296143,0.05375027656555176,0.29783371635843087,-0.7146689343723606,0.06744287383150312,0.629281240183889
1729874610963566600,3.923566650390625,-0.1826373189687729,-0.5222629904747009,-0.22280804812908173,0.9393836855888367,0.3418704569339752,0.02612881176173687,-0.02588587999343872,0.10043597221374512,-0.006277089938521385,0.2977314970555704,-0.7132708521221762,0.06564371910597998,0.6311033803399978
1729874610973596700,3.9335966796875,-0.723897397518158,-0.850185215473175,-0.2264389991760254,0.9387204051017761,0.34402376413345337,0.02125435322523117,-0.04437220096588135,-0.11471474170684814,0.12332272529602051,0.29721715632737866,-0.7118459139566194,0.06247056413051668,0.6332731267374785
1729874610983626500,3.94362646484375,-1.2108616828918457,-1.1736997365951538,-0.15166303515434265,0.938274621963501,0.3455621004104614,0.015088045038282871,0.010745823383331299,-0.2659722864627838,0.34361565113067627,0.29453792530334255,-0.7101281741819704,0.05711391188480297,0.6369485385808216
1729874610993657600,3.95365771484375,-1.1712002754211426,-1.1338449716567993,-0.13741831481456757,0.937917947769165,0.346759557723999,0.008243870921432972,0.09957295656204224,-0.1923864185810089,0.3956410884857178,0.29095810311217774,-0.7081850363893955,0.050949872258270905,0.6412656100994537
1729874611003687700,3.963687744140625,-0.8164594769477844,-0.987105131149292,0.033282309770584106,0.937846839427948,0.34704476594924927,0.0017750289989635348,0.05095314979553223,-0.08030590415000916,0.16100585460662842,0.2878824576254298,-0.7062264217929315,0.04617093938319226,0.6451636519932397
1729874611013717500,3.973717529296875,-0.6800239086151123,-0.8555111885070801,-0.08658257871866226,0.9378232359886169,0.3470859229564667,-0.004336091224104166,0.010861396789550781,0.02445027232170105,-0.03542822599411011,0.28549401009115166,-0.7042942692645877,0.042444512881726494,0.6485839595957816
1729874611023748600,3.98374853515625,-0.7064661383628845,-0.654212236404419,-0.3256356418132782,0.9370175004005432,0.34916388988494873,-0.009105805307626724,-0.05382347106933594,0.04341420531272888,-0.0577276349067688,0.2839422017609124,-0.7028334814156084,0.038369187761912754,0.6510989282152992
1729874611033778400,3.9937783203125,-0.8884080052375793,-0.5735706686973572,-0.24405981600284576,0.9358907341957092,0.352089524269104,-0.011906175874173641,-0.15291643142700195,-0.0777517557144165,-0.03582322597503662,0.28227353411108463,-0.7020669622861896,0.033895319261830696,0.6528972666614171
1729874611043808500,4.00380859375,-1.1655430793762207,-0.6610390543937683,-0.12605860829353333,0.9351968169212341,0.3538511395454407,-0.014017385430634022,-0.07655417919158936,-0.18202194571495056,0.11220777034759521,0.27929760180785046,-0.701533210617301,0.029025188737120594,0.6549821642880309
1729874611053839400,4.01383935546875,-1.1395421028137207,-0.7508605122566223,-0.22032465040683746,0.9345151782035828,0.3555419147014618,-0.016474252566695213,0.06929951906204224,-0.15412595868110657,0.21287018060684204,0.27580441697279434,-0.7008600785825858,0.023622536218725388,0.6573956854881332
1729874611063869400,4.023869384765625,-1.0465906858444214,-0.7935177087783813,-0.27690589427948,0.9334473609924316,0.35816439986228943,-0.01986413262784481,0.10009163618087769,-0.11483249068260193,0.15546905994415283,0.27289747487167776,-0.6998163754620416,0.0180270440254316,0.65989329066636
1729874611073899500,4.0338994140625,-0.7460516691207886,-0.7732776403427124,-0.018835753202438354,0.932792067527771,0.35962432622909546,-0.02386358566582203,0.058663129806518555,-0.07013458013534546,0.09364211559295654,0.27031212212938677,-0.6984867584046274,0.013581448328365511,0.6624675586711775
1729874611083930400,4.043930419921875,-0.6651336550712585,-0.7030383944511414,-0.03977192938327789,0.9325761795043945,0.35985666513442993,-0.02837459370493889,0.0627700686454773,-0.02480417490005493,0.04106998071074486,0.26794145121416857,-0.6969275089205141,0.010234778521582706,0.6651276637276696
1729874611093960400,4.05396044921875,-0.8140469789505005,-0.5387309193611145,-0.2956947684288025,0.9317939877510071,0.36161282658576965,-0.03156600892543793,-0.005020737648010254,-0.04459625482559204,0.014125283807516098,0.2659948797165637,-0.695827442845751,0.0064159512849666905,0.6671056077622689
1729874611103989800,4.06398974609375,-0.9712624549865723,-0.3243422508239746,-0.3916758894920349,0.9303300380706787,0.3653033375740051,-0.03224155679345131,-0.1495988368988037,-0.12357369065284729,0.0036161579191684723,0.26407001504037925,-0.6956125390657518,0.0015547132279920806,0.6681226246348521
1729874611114021000,4.074021240234375,-1.239598274230957,-0.3554317057132721,-0.3501470983028412,0.9288832545280457,0.3690507411956787,-0.031267039477825165,-0.14349806308746338,-0.2296922504901886,0.03499025106430054,0.2614942227639108,-0.6959540829379361,-0.003794122157796679,0.6687708021679919
1729874611124051000,4.084051025390625,-1.5531131029129028,-0.50618976354599,-0.390251100063324,0.9274017214775085,0.37286409735679626,-0.029974250122904778,0.00991523265838623,-0.31243929266929626,0.09253537654876709,0.25779214567428943,-0.6963520481098674,-0.01032955990268041,0.6697241062946706
1729874611134080800,4.094080810546875,-1.6240044832229614,-0.6897026300430298,-0.44273003935813904,0.9256497621536255,0.37722402811050415,-0.029576033353805542,0.10437959432601929,-0.31003957986831665,0.1627548336982727,0.2535513976948912,-0.6963400413412679,-0.017959115509814914,0.6711928160978182
1729874611144111900,4.10411181640625,-1.6361415386199951,-0.6200541853904724,-0.3471422493457794,0.9238601922988892,0.38158100843429565,-0.02964041568338871,0.10133212804794312,-0.24222251772880554,0.13726073503494263,0.249136674968415,-0.6960697359169814,-0.02582082407156203,0.6728679487850528
