time,seconds_elapsed,rotationRateX,rotationRateY,rotationRateZ,gravityX,gravityY,gravityZ,accelerationX,accelerationY,accelerationZ,quaternionW,quaternionX,quaternionY,quaternionZ
1728062624353691600,0.104691650390625,0.022977333515882492,-0.08894225209951401,0.04080256074666977,-0.021595070138573647,-0.2106931358575821,-0.9773136973381042,0.009128641337156296,-0.011368006467819214,-0.003353416919708252,0.9943122683015058,0.10594917889999211,-0.01085930007015378,-3.245468279642426e-17
1728062624363721700,0.1147216796875,-0.016979670152068138,-0.04691224545240402,0.04567055031657219,-0.021573401987552643,-0.21034514904022217,-0.9773890972137451,0.022855142131447792,-0.010068029165267944,-0.0025607943534851074,0.9943312082808071,0.10577385302584817,-0.01083183479166343,0.00015381655758931408
1728062624373752600,0.124752685546875,-0.05264265835285187,-0.047695428133010864,0.03973569720983505,-0.0224003829061985,-0.20993465185165405,-0.9774587750434875,0.015869619324803352,-0.014491602778434753,0.0012319684028625488,0.9943487233026983,0.10556799747882109,-0.011225252754286175,0.00036351268003898446
1728062624383782400,0.134782470703125,-0.05538038909435272,-0.05423801392316818,0.029572276398539543,-0.023717323318123817,-0.20939457416534424,-0.9775435328483582,0.004384441301226616,-0.02176082134246826,0.014225661754608154,0.9943698864424075,0.10529658469349955,-0.01186810099337389,0.0005449354676835547
1728062624393812500,0.1448125,-0.05242561548948288,-0.021776266396045685,0.03303465247154236,-0.02367967925965786,-0.2090686410665512,-0.9776142239570618,0.010572381317615509,-0.015861138701438904,0.020827114582061768,0.994387571431993,0.10513205581291613,-0.011838022424748119,0.0006492527831825546
1728062624403843300,0.15484326171875,-0.05442245304584503,0.015519173815846443,0.01654835417866707,-0.021868053823709488,-0.2084091603755951,-0.9777972102165222,0.012071911245584488,-0.004313603043556213,0.009947478771209717,0.9944335972704451,0.10479529633859566,-0.010924020856422764,0.0006757292191419387
1728062624413873400,0.164873291015625,-0.030147936195135117,0.06572125107049942,-0.013794371858239174,-0.020160751417279243,-0.20777548849582672,-0.9779687523841858,-0.0014304295182228088,-0.007480233907699585,0.001558840274810791,0.9944767045750914,0.10447121471407887,-0.01006914632395122,0.0006398349423466079
1728062624423904500,0.174904541015625,-0.0012268063146620989,0.08371996134519577,-0.007917573675513268,-0.019251279532909393,-0.20786133408546448,-0.9779688715934753,-0.026326721534132957,-0.008462503552436829,-0.0001500248908996582,0.9944768127737523,0.10451369231120179,-0.009615936101330663,0.0006010124067092944
1728062624433934300,0.184934326171875,0.017341284081339836,0.049315061420202255,0.011343205347657204,-0.01832861825823784,-0.20841042697429657,-0.9778696894645691,-0.04342370107769966,0.0025998950004577637,-0.002614319324493408,0.9944518539279936,0.10479231753593682,-0.009149779777942962,0.0006230802178362714
1728062624443964400,0.19496435546875,0.03898319974541664,0.02821270562708378,0.02402198500931263,-0.0173654668033123,-0.20905384421348572,-0.9777499437332153,-0.013670910149812698,0.0029839277267456055,0.002408146858215332,0.9944216455023065,0.1051193108925259,-0.008658276663968541,0.0006921239424608526
1728062624453995500,0.20499560546875,0.045063793659210205,0.041852667927742004,0.028337636962532997,-0.01679364964365959,-0.2099619209766388,-0.977565348148346,0.02559797279536724,0.007599875330924988,0.008815348148345947,0.9943751949593918,0.10558164593517166,-0.008357813554059363,0.0008147513614637932
1728062624464025600,0.215025634765625,0.026661349460482597,0.04915745556354523,0.02330346219241619,-0.01643410511314869,-0.21103455126285553,-0.9773404598236084,0.027191555127501488,0.020406514406204224,0.0039823055267333984,0.9943184740088089,0.10612814629201121,-0.008160690358138522,0.000967952110078913
1728062624474056400,0.225056396484375,0.028251059353351593,0.013215431943535805,0.0248092133551836,-0.016081485897302628,-0.21185381710529327,-0.9771690368652344,0.003142036497592926,0.012909740209579468,-0.000400543212890625,0.9942753625080326,0.10654557668366836,-0.007969617341470215,0.001095763430892879
1728062624484086500,0.23508642578125,0.004149449989199638,0.007776192389428616,0.023921580985188484,-0.01586902141571045,-0.2121274173259735,-0.9771131873130798,-0.011947749182581902,0.0041196346282958984,0.005250394344329834,0.994261072556182,0.10668545773385377,-0.007850633552474512,0.0012085183429210295
1728062624494116600,0.24511669921875,-0.017742132768034935,0.03649934381246567,0.0191342830657959,-0.015899119898676872,-0.2121330201625824,-0.9771114587783813,0.01618904061615467,0.012090310454368591,0.004134774208068848,0.9942604640435758,0.10668942569534279,-0.007850992390986855,0.0013462309002895963
1728062624504147500,0.2551474609375,-0.042954545468091965,0.06868258118629456,0.005776932928711176,-0.016369154676795006,-0.21195225417613983,-0.9771429300308228,0.025677017867565155,0.017097532749176025,0.007034897804260254,0.994268234170046,0.10659913738801838,-0.008072262181433186,0.001487664339431202
1728062624514177500,0.265177490234375,-0.051539842039346695,0.07722727954387665,-0.008555933833122253,-0.01713497005403042,-0.21126097440719604,-0.9772794842720032,-0.005585363134741783,0.006640613079071045,0.0015714764595031738,0.9943023657497017,0.10624921312684911,-0.008447591940432915,0.001581415530887882
1728062624524207600,0.27520751953125,-0.05483896657824516,0.07847603410482407,-0.009020921774208546,-0.01677408255636692,-0.21059592068195343,-0.9774292707443237,-0.03147420287132263,-0.002676159143447876,0.0010193586349487305,0.9943400187331198,0.10591064718448757,-0.008264200286319552,0.001601504667536568
1728062624534238500,0.285238525390625,-0.048008427023887634,0.05223207548260689,0.002563029993325472,-0.01534097921103239,-0.20990455150604248,-0.9776015281677246,-0.023996179923415184,-0.0019026845693588257,0.004899501800537109,0.9943833712435902,0.10555704165298473,-0.007546547071027964,0.0015757234099755912
1728062624544268500,0.2952685546875,-0.03763701021671295,0.0447230264544487,0.004935374017804861,-0.014082429930567741,-0.2089371681213379,-0.9778276681900024,-0.005128382705152035,0.0011124759912490845,0.011778473854064941,0.9944402390992165,0.10506362400382688,-0.006913856818175568,0.0015780685201058522
1728062624554299600,0.305299560546875,-0.0360989049077034,0.06132868677377701,-0.00781397707760334,-0.013544469140470028,-0.20829682052135468,-0.9779718518257141,0.004999545402824879,0.004180029034614563,0.014425098896026611,0.994476504301828,0.1047375281190424,-0.0066417857313072716,0.0015957466885944598
1728062624564329500,0.31532958984375,-0.028647111728787422,0.06248103827238083,-0.008366582915186882,-0.013343586586415768,-0.2080077826976776,-0.9780361652374268,0.0007703453302383423,0.006317138671875,0.009286165237426758,0.9944925897830812,0.10459041254121118,-0.00653995956034664,0.0016048501415851454
1728062624574359300,0.325359375,-0.022376831620931625,0.03557810187339783,-0.01877048797905445,-0.012453052215278149,-0.20758076012134552,-0.9781386256217957,-0.002897287718951702,0.007141321897506714,0.007664382457733154,0.9945184662223958,0.10437194843384685,-0.0060982291768968,0.0015495016119787513
1728062624584390400,0.335390380859375,-0.03715284913778305,0.021915022283792496,-0.02015213668346405,-0.011466136202216148,-0.20698481798171997,-0.9782769680023193,0.005179516039788723,0.00826960802078247,0.007268667221069336,0.9945534554722615,0.10406728719245255,-0.005613998880146429,0.001437975754970645
1728062624594420500,0.34542041015625,-0.07129684090614319,0.029913345351815224,-0.02364327386021614,-0.011517015285789967,-0.2064148336648941,-0.9783967733383179,0.015575854107737541,0.003701835870742798,0.010165572166442871,0.9945836202773606,0.10377719108296538,-0.005648040195627121,0.0013592511385721554
1728062624604451300,0.355451416015625,-0.10349579155445099,0.029902959242463112,-0.027892081066966057,-0.012284012511372566,-0.20575286448001862,-0.9785268902778625,0.017197344452142715,-0.0035061389207839966,0.01769620180130005,0.9946163487018902,0.10344122015070795,-0.006039333664067375,0.001306888704756464
1728062624614481400,0.3654814453125,-0.1377483755350113,0.03317752853035927,-0.027149857953190804,-0.012728564441204071,-0.20479007065296173,-0.9787231683731079,0.01268278993666172,-0.010526672005653381,0.02321779727935791,0.9946657892888904,0.10295196464107025,-0.006270313717957771,0.0012376208856861302
1728062624624511500,0.375511474609375,-0.16170749068260193,0.04722170904278755,-0.03592683747410774,-0.012484174221754074,-0.20349055528640747,-0.9789972901344299,0.009508709423244,-0.008850738406181335,0.01734262704849243,0.9947349243877949,0.10229067342728954,-0.006161195392679248,0.0011079300550273477
1728062624634542600,0.38554248046875,-0.17841443419456482,0.06568598747253418,-0.041963160037994385,-0.011738395318388939,-0.20192433893680573,-0.9793307781219482,0.007557486183941364,-0.006312340497970581,0.010138273239135742,0.9948189025380728,0.10149338865233053,-0.005805333158210384,0.0009256041520708408
1728062624644572400,0.395572509765625,-0.171023890376091,0.06180070713162422,-0.05324244499206543,-0.011036265641450882,-0.20025822520256042,-0.9796810150146484,0.003574717789888382,-0.0038585811853408813,0.0067806243896484375,0.9949070908310899,0.10064559721105056,-0.005474255838778792,0.0007129669125282483
1728062624654603500,0.405603515625,-0.1775386482477188,0.06298437714576721,-0.07299857586622238,-0.010426640510559082,-0.19863715767860413,-0.9800176620483398,-0.0007427940145134926,0.0014631003141403198,0.0034399032592773438,0.9949918337344027,0.09982074942091997,-0.005196090142209969,0.0004333047880141747
1728062624664633600,0.415633544921875,-0.18308228254318237,0.06874372810125351,-0.09689938277006149,-0.009474324062466621,-0.19690538942813873,-0.9803767204284668,-0.0010389834642410278,0.0032408535480499268,0.006087779998779297,0.9950821656939618,0.09893937507509616,-0.004758138616481193,0.00002449183664998459
1728062624674663400,0.425663330078125,-0.17389705777168274,0.06754306703805923,-0.08598494529724121,-0.008212669752538204,-0.19538363814353943,-0.9806925058364868,-0.0014308812096714973,0.0035043805837631226,0.012400269508361816,0.9951613802436918,0.0981649809732861,-0.0041693015855397255,-0.00043592827082813605
1728062624684694500,0.435694580078125,-0.19039933383464813,0.06167052686214447,-0.08085143566131592,-0.007075998932123184,-0.19408614933490753,-0.9809589982032776,-0.00012614531442523003,0.0009556859731674194,0.011446058750152588,0.9952280719969208,0.09750530568153482,-0.003637289048317087,-0.0008402903684148702
1728062624694724600,0.445724609375,-0.19460691511631012,0.036058589816093445,-0.065668486058712,-0.006265492178499699,-0.19285009801387787,-0.9812082052230835,0.006616444326937199,0.0026645660400390625,0.007422804832458496,0.9952902135735985,0.09687734812595511,-0.0032659364086337276,-0.0012160569805625473
1728062624704755500,0.45575537109375,-0.18284347653388977,0.046228669583797455,-0.0426529198884964,-0.005698268301784992,-0.19159916043281555,-0.9814566969871521,0.008963653817772865,0.0068915486335754395,0.012935638427734375,0.9953522663562433,0.09624249623108398,-0.003003844398862982,-0.0014624433226737602
1728062624714785500,0.46578564453125,-0.20667223632335663,0.033551331609487534,-0.053821150213479996,-0.005152465309947729,-0.1901652067899704,-0.9817385673522949,0.008661988191306591,0.004770934581756592,0.013385295867919922,0.995422792542161,0.09551515593706571,-0.002750048520561386,-0.0016879867376771523
1728062624724815600,0.475815673828125,-0.23674306273460388,0.006670980714261532,-0.06829462945461273,-0.004896580241620541,-0.18835993111133575,-0.9820878505706787,-0.003816185984760523,-0.0033209621906280518,0.009156942367553711,0.9955099667077121,0.09459946354571852,-0.002647959123458442,-0.0019849955981307466
1728062624734846500,0.485846435546875,-0.24272345006465912,-0.01365160197019577,-0.07835472375154495,-0.004954294301569462,-0.18620091676712036,-0.9824991822242737,0.00034614047035574913,-0.005495235323905945,0.01774698495864868,0.9956123899288722,0.09350434181306157,-0.0027090967408603256,-0.0023535079137018307
1728062624744876300,0.495876220703125,-0.241573765873909,-0.023178528994321823,-0.08640945702791214,-0.005116522312164307,-0.18405450880527496,-0.9829027056694031,0.023396557196974754,0.011965915560722351,0.0051500797271728516,0.9957126978412738,0.0924156690378055,-0.0028255307605746156,-0.002760956505661575
1728062624754906400,0.50590625,-0.25981009006500244,-0.03139006346464157,-0.10240279883146286,-0.005355102010071278,-0.18187329173088074,-0.983307421207428,0.024718504399061203,0.012287154793739319,-0.008712232112884521,0.9958128279590257,0.09130928063408175,-0.0029865147701156206,-0.0032467541815139464
1728062624764937500,0.5159375,-0.2562430500984192,-0.028160717338323593,-0.11042530834674835,-0.005521700251847506,-0.1797039955854416,-0.9837052226066589,0.022306369617581367,0.011552155017852783,-0.008253395557403564,0.9959108154690082,0.09020905324459003,-0.003115892349457324,-0.003794528166735789
1728062624774967600,0.525967529296875,-0.2745930850505829,-0.008334173820912838,-0.1517477035522461,-0.005297800526022911,-0.1774427443742752,-0.9841168522834778,0.01843561790883541,0.013960108160972595,-0.010923981666564941,0.996011410740629,0.08906296674269222,-0.0030583517508553757,-0.004460360993831221
1728062624784998400,0.535998291015625,-0.3025890588760376,-0.003856867551803589,-0.1843261569738388,-0.004809337668120861,-0.17488422989845276,-0.9845772385597229,0.008334120735526085,0.008929669857025146,-0.0057944655418396,0.9961226259151852,0.08776708376903096,-0.002882878323556439,-0.0053212592543710165
1728062624795028500,0.546028564453125,-0.31622061133384705,0.001661414746195078,-0.2162177711725235,-0.0042186337523162365,-0.17219112813472748,-0.9850545525550842,0.006782113574445248,0.00785401463508606,0.0064626336097717285,0.9962363341304946,0.08640380531200091,-0.00266836067423338,-0.006353897818932863
1728062624805058600,0.55605859375,-0.3297276496887207,0.013382519595324993,-0.21424730122089386,-0.003916190005838871,-0.16956110298633575,-0.9855118989944458,0.008448050357401371,0.008855551481246948,0.0095444917678833,0.9963436146699015,0.08507227493961027,-0.0026001625403324824,-0.00743556285525934
1728062624815089400,0.56608935546875,-0.36877864599227905,0.03597608581185341,-0.21541403234004974,-0.003330653766170144,-0.16668915748596191,-0.9860038757324219,0.00798458606004715,0.005846276879310608,0.010768890380859375,0.9964586407764968,0.08362046038331541,-0.0023839706065786987,-0.008493151508743
1728062624825119500,0.576119384765625,-0.4233982264995575,0.07354183495044708,-0.20766876637935638,-0.0024691224098205566,-0.16278548538684845,-0.9866583943367004,0.0012179047334939241,0.0005998313426971436,0.00936347246170044,0.9966135145540613,0.08164999953275134,-0.0020195623322994574,-0.009530458064531162
1728062624835150600,0.586150634765625,-0.48762887716293335,0.10252858698368073,-0.19400808215141296,-0.0012449707137420774,-0.15827061235904694,-0.9873949885368347,-0.00499587319791317,-0.00243493914604187,0.021757781505584717,0.9967885187009533,0.07937487047002752,-0.001460921683250861,-0.010503886282643817
1728062624845180400,0.596180419921875,-0.528744637966156,0.12795431911945343,-0.16988302767276764,0.00019188347505405545,-0.15321695804595947,-0.9881925582885742,-0.005456164479255676,-0.0012935250997543335,0.03532695770263672,0.9969788063048742,0.07683170614348125,-0.0007813143615474693,-0.011387168669608073
1728062624855210500,0.60621044921875,-0.5416455864906311,0.11418215185403824,-0.13596954941749573,0.0016400525346398354,-0.1478578895330429,-0.9890072345733643,0.0019152455497533083,0.00914028286933899,0.027749359607696533,0.997174462297917,0.07413747411878535,-0.00007849583123988264,-0.012116683258715172
1728062624865241600,0.61624169921875,-0.5071960091590881,0.07625314593315125,-0.10987722873687744,0.002780238399282098,-0.14264178276062012,-0.9897704720497131,0.017132481560111046,0.017641812562942505,0.018930017948150635,0.9973586920697128,0.07151593020270156,0.00048381374432124823,-0.01269064643922807
1728062624875271700,0.626271728515625,-0.4641576111316681,0.04674100875854492,-0.12747539579868317,0.0035539299715310335,-0.13780905306339264,-0.9904524683952332,0.026994165033102036,0.012854859232902527,0.014042556285858154,0.9975222133200639,0.06908715454522213,0.0008635784231749554,-0.013251759363369399
1728062624885302500,0.636302490234375,-0.4254720211029053,0.038021285086870193,-0.12682051956653595,0.004103442188352346,-0.1333642452955246,-0.9910585880279541,0.00918696541339159,0.010469973087310791,0.010711908340454102,0.9976655213262671,0.06685382775578001,0.0011258223712513242,-0.01388891250307418
1728062624895332600,0.64633251953125,-0.3738320767879486,0.039283785969018936,-0.11558118462562561,0.004584372043609619,-0.12938357889652252,-0.9915840029716492,-0.0015020957216620445,0.01222662627696991,-0.007363080978393555,0.9977888064970756,0.06485482901800212,0.0013564976837467156,-0.014473677974646392
1728062624905362700,0.65636279296875,-0.35300135612487793,0.037956465035676956,-0.13013722002506256,0.0051172468811273575,-0.1258048266172409,-0.992041826248169,0.0051061431877315044,0.0125693678855896,-0.030342817306518555,0.9978947794635863,0.06305944881757138,0.0016121448598803083,-0.015063127035353667
1728062624915393500,0.6663935546875,-0.4019657075405121,0.06201711297035217,-0.1534838229417801,0.005598712712526321,-0.12200310826301575,-0.9925139546394348,0.012666057795286179,0.007638514041900635,-0.045556724071502686,0.9980017858324223,0.06115276501785575,0.0018374120114964339,-0.015790223776734984
1728062624925423400,0.67642333984375,-0.37809446454048157,0.026289742439985275,-0.16862095892429352,0.006361741106957197,-0.1180633008480072,-0.9929856657981873,0.021729689091444016,0.00485837459564209,-0.03901195526123047,0.9981066716592796,0.05918027312271628,0.0022021984230034854,-0.016607588690846182
1728062624935454700,0.686454833984375,-0.3593974709510803,0.036990005522966385,-0.16049832105636597,0.006855130661278963,-0.1143723800778389,-0.9934142827987671,0.017223240807652473,-0.0010145604610443115,-0.04421389102935791,0.9982006381353109,0.05733170952344487,0.0024342929133548312,-0.017401411024666864
1728062624945484300,0.696484375,-0.29294416308403015,-0.0663294568657875,-0.30387255549430847,0.007061759475618601,-0.1110428050160408,-0.9937905073165894,0.028384409844875336,0.008198589086532593,-0.04337984323501587,0.9982755961697081,0.0556636998373461,0.0025068649121057266,-0.01847411458947208
1728062624955514400,0.706514404296875,-0.24723771214485168,0.15203750133514404,-0.25978338718414307,0.007855387404561043,-0.10832293331623077,-0.9940847158432007,-0.011425942182540894,0.026581622660160065,-0.041407227516174316,0.9983203289860735,0.05430957157534656,0.0028476306263392754,-0.01997522622812539
1728062624965545500,0.71654541015625,-0.2520279288291931,0.13487982749938965,-0.16186532378196716,0.009568450972437859,-0.10585013777017593,-0.9943360686302185,-0.03337216004729271,0.03956597298383713,-0.046938955783843994,0.998362728672329,0.05308911141723549,0.003676631611344732,-0.020976310001558925
1728062624975575600,0.726575439453125,-0.3009492754936218,0.07164614647626877,-0.07690063863992691,0.010756750591099262,-0.10307461023330688,-0.9946154356002808,0.052277304232120514,0.007951349020004272,-0.028654158115386963,0.9984202043313948,0.051711058135412595,0.004270324464435998,-0.021558197046541137
1728062624985606400,0.7366064453125,-0.3583412170410156,0.010479994118213654,-0.005518332123756409,0.011170412413775921,-0.09975329041481018,-0.9949495196342468,0.0754232183098793,-0.021752431988716125,0.0012513995170593262,0.9985000442260182,0.05004961225866077,0.004504161520768464,-0.021734448910480816
1728062624995636500,0.746636474609375,-0.39373084902763367,0.033575672656297684,-0.018989399075508118,0.011343257501721382,-0.09596219658851624,-0.9953203201293945,0.07244275510311127,-0.027786552906036377,0.005620062351226807,0.9985922999734865,0.048149641051095114,0.004630355789351305,-0.02176114135492849
1728062625005666600,0.75666650390625,-0.34204208850860596,0.10364050418138504,-0.043355461210012436,0.012072926387190819,-0.09221026301383972,-0.9956663846969604,0.05422651395201683,-0.019560351967811584,-0.0010224580764770508,0.9986755861300843,0.04627662740613911,0.005029014143353524,-0.021914073631597055
1728062625015697400,0.766697509765625,-0.2821289896965027,0.12337043881416321,0.10714536160230637,0.013171633705496788,-0.0891772210597992,-0.9959287047386169,0.03994421288371086,-0.023646242916584015,-0.020413458347320557,0.9987439414645222,0.044767253872839204,0.005617313993950402,-0.021791793414582122
1728062625025727500,0.7767275390625,-0.3172004222869873,0.23562772572040558,0.09777023643255234,0.01482070330530405,-0.08636855334043503,-0.9961529970169067,0.038264624774456024,-0.046504952013492584,-0.028184711933135986,0.998815064048886,0.043372842403962594,0.0065032067159127675,-0.021092709109914315
1728062625035758600,0.786758544921875,-0.5308114290237427,0.19847504794597626,-0.3542822003364563,0.0178219024091959,-0.08188872784376144,-0.9964821338653564,0.01263464242219925,-0.07033293694257736,-0.010948896408081055,0.9988804625085338,0.04116592415081666,0.008019144607990414,-0.021881787840039548
1728062625045788400,0.796788330078125,-0.6240633130073547,-0.1867128610610962,-0.004295408725738525,0.018203331157565117,-0.07600462436676025,-0.9969412684440613,-0.019286705181002617,-0.15063413977622986,0.038872480392456055,0.998974934284976,0.03822931483676189,0.008238605589116188,-0.022796766044189273
1728062625055818500,0.806818603515625,-0.648134171962738,-0.45306774973869324,0.3061157166957855,0.014769353903830051,-0.06963984668254852,-0.9974628686904907,0.21679803729057312,-0.11190921068191528,0.06820261478424072,0.9991238484193031,0.03499610034709205,0.006621378102428769,-0.021976745052462526
1728062625065849600,0.816849609375,-0.5786141753196716,-0.4190908670425415,0.21121610701084137,0.009985683485865593,-0.06345799565315247,-0.9979345798492432,0.27549099922180176,-0.00981469452381134,0.036722421646118164,0.9992698743165526,0.03184189072680575,0.00433798949144797,-0.02066521767096982
1728062625075879700,0.826879638671875,-0.41347169876098633,-0.16972827911376953,0.05068688094615936,0.006927660666406155,-0.05843885987997055,-0.9982669353485107,0.07366926223039627,0.013761147856712341,0.005347073078155518,0.9993643761335068,0.029295895187687472,0.0028765425132449064,-0.02010917368492376
1728062625085909500,0.836909423828125,-0.2458171844482422,0.0463227853178978,0.07921439409255981,0.006353612523525953,-0.05515332147479057,-0.998457670211792,-0.06310104578733444,-0.004706889390945435,-0.030671358108520508,0.9994176177955497,0.027644916675022217,0.0026301371142203804,-0.01983008228455755
1728062625095940600,0.846940673828125,-0.18638387322425842,0.10683540254831314,0.1897217333316803,0.007117064204066992,-0.05307012051343918,-0.9985654354095459,-0.03378942608833313,-0.02551262453198433,-0.0289614200592041,0.9994580048646754,0.02660787652301572,0.0030509053312537506,-0.019140206157109964
1728062625105970400,0.856970458984375,-0.19786210358142853,0.08920846879482269,0.009411616250872612,0.00807448010891676,-0.05113094672560692,-0.9986593127250671,0.032193467020988464,-0.02772645279765129,0.01634424924850464,0.999494968860692,0.025644129539211934,0.003566625446824412,-0.0184219972469707
1728062625116001500,0.86700146484375,-0.18898239731788635,-0.008997886441648006,-0.5076760053634644,0.008626416325569153,-0.049164362251758575,-0.9987534284591675,0.04679350554943085,-0.015990644693374634,0.06464093923568726,0.999492216269029,0.024670486898627646,0.003826598704492637,-0.019803122833499723
1728062625126031400,0.87703125,-0.32445257902145386,0.26013290882110596,0.5545878410339355,0.009423944167792797,-0.046874355524778366,-0.9988563656806946,-0.003320426680147648,-0.014313369989395142,0.08064347505569458,0.9995051642707923,0.023535338849828915,0.004233047437951305,-0.020438164792105463
1728062625136061400,0.8870615234375,-0.4339025914669037,-0.017497897148132324,1.555508017539978,0.009298430755734444,-0.043158214539289474,-0.9990249872207642,0.250757098197937,0.06700772047042847,0.10299837589263916,0.9996431453684459,0.021651865881072915,0.004325214426334536,-0.01503540870805881
1728062625146092300,0.89709228515625,-0.5779058337211609,-0.24795958399772644,1.7775652408599854,0.007786797359585762,-0.03814522176980972,-0.9992418885231018,0.5225781798362732,0.10325449705123901,0.1332750916481018,0.9997924513800119,0.019099246175850047,0.0037796226697287823,-0.005998163514851256
1728062625156122400,0.907122314453125,-0.5463792085647583,-0.6121883392333984,0.7881020307540894,0.0027426329907029867,-0.03250716254115105,-0.9994677305221558,0.39241424202919006,0.031103376299142838,0.11644160747528076,0.9998668082900946,0.01625515943790033,0.0013784205115577972,0.0004257390415481319
1728062625166153500,0.917153564453125,-0.5535510778427124,-0.5775720477104187,0.10613469779491425,-0.0034799326676875353,-0.027064872905611992,-0.9996276497840881,0.038193680346012115,-0.07027092576026917,0.12001949548721313,0.9999036767891287,0.013538066718795594,-0.0017057958609941293,0.002536169180207224
1728062625176182300,0.927182373046875,-0.6776235699653625,-0.4304547905921936,0.06205032020807266,-0.008594407700002193,-0.020915526896715164,-0.9997442960739136,-0.11133967339992523,-0.13670773804187775,0.027622103691101074,0.9999326330672687,0.01046972358004285,-0.004269894535102182,0.0026358862592192867
1728062625186212400,0.93721240234375,-0.7265647649765015,-0.30553174018859863,0.5546810626983643,-0.012278277426958084,-0.013785640709102154,-0.9998295903205872,-0.05331925302743912,-0.07366245985031128,0.07740527391433716,0.9999489655049226,0.006918364280020806,-0.006110931330399087,0.004122257611236858
1728062625196243200,0.9472431640625,-0.7224979400634766,-0.28339946269989014,1.0291461944580078,-0.01526174321770668,-0.006350224371999502,-0.9998633861541748,0.10948476940393448,0.008150781504809856,0.041641950607299805,0.9999331599742605,0.003236790190954844,-0.007605221658976582,0.008081519552915348
1728062625206273300,0.957273193359375,-0.6244667172431946,-0.3441576361656189,1.2439160346984863,-0.018361248075962067,0.000656701682601124,-0.9998311996459961,0.17014043033123016,0.07276861369609833,0.04670625925064087,0.9998614760329005,-0.00020094515707656585,-0.009184684491993639,0.0138745667086988
1728062625216304400,0.967304443359375,-0.5833011865615845,-0.45627546310424805,1.1716578006744385,-0.022312525659799576,0.0069113788194954395,-0.9997271299362183,0.18930470943450928,0.06445399671792984,0.0015124678611755371,0.9997327866864174,-0.0032326833591335385,-0.011223741122438168,0.01994610969831727
1728062625226334200,0.977334228515625,-0.6773549318313599,-0.5789616703987122,1.0441789627075195,-0.02738804742693901,0.013416589237749577,-0.9995348453521729,0.1503281146287918,0.001201351173222065,-0.0040357112884521484,0.9995589946629496,-0.006357888179530439,-0.013862137518843992,0.025480230404155143
1728062625236364000,0.987364013671875,-0.9915700554847717,-0.730332612991333,0.9840379953384399,-0.03377995267510414,0.021953430026769638,-0.9991881251335144,0.12827762961387634,-0.07155973464250565,-0.01324772834777832,0.999331956407272,-0.010458634472890036,-0.017220374212001045,0.030491053787027163
1728062625246395100,0.99739501953125,-1.4836589097976685,-0.8455058336257935,1.0045260190963745,-0.04141023010015488,0.03466473147273064,-0.9985406994819641,0.12588289380073547,-0.11240824311971664,-0.02411860227584839,0.9990083104942207,-0.016594485333389142,-0.021313568713339396,0.03539234890626313
1728062625256425200,1.00742529296875,-1.9897159337997437,-0.989330530166626,1.0319979190826416,-0.05012328550219536,0.05256054177880287,-0.997359037399292,0.12209899723529816,-0.12420053780078888,-0.029603242874145508,0.9985226943933836,-0.025262398055663528,-0.026120750454176087,0.040396759877419024
1728062625266456000,1.0174560546875,-2.5095221996307373,-1.1676504611968994,0.9575704336166382,-0.060236960649490356,0.07558543980121613,-0.9953182339668274,0.10479262471199036,-0.14135080575942993,-0.029660403728485107,0.9978035620235194,-0.036432229573530726,-0.03183684731579297,0.0452467239505677
1728062625276486100,1.027486083984375,-3.0586397647857666,-1.341878056526184,0.8265472054481506,-0.07193764299154282,0.10397198796272278,-0.9919751882553101,0.06717690825462341,-0.13775493204593658,-0.050947725772857666,0.9967640936411918,-0.050239293952651136,-0.038579939859859864,0.049488669403335094
1728062625286516200,1.03751611328125,-3.471118688583374,-1.5382241010665894,0.7025845050811768,-0.08527054637670517,0.13707752525806427,-0.9868833422660828,0.022953659296035767,-0.09476487338542938,-0.057962238788604736,0.9953038409901415,-0.06639145429370147,-0.04637364579534081,0.05302781648600799
1728062625296547000,1.047547119140625,-3.748469114303589,-1.7453393936157227,0.533042848110199,-0.10049571841955185,0.17334842681884766,-0.9797198176383972,0.006455808877944946,-0.04425905644893646,-0.07869076728820801,0.9933492884890484,-0.08414560924440362,-0.05531368678623615,0.055831208680897186
1728062625306577200,1.0575771484375,-3.9089772701263428,-1.9744223356246948,0.2817046344280243,-0.11791422218084335,0.2113630771636963,-0.970268964767456,-0.0018825232982635498,0.032365575432777405,-0.12856221199035645,0.990866937754512,-0.10284956679144316,-0.06547883766960763,0.05759581178527485
1728062625316608300,1.067608154296875,-3.900998115539551,-2.1564505100250244,0.0352858230471611,-0.1375439167022705,0.24946840107440948,-0.9585651755332947,-0.025191068649291992,0.1476873904466629,-0.18083912134170532,0.9878784756983617,-0.12174691340625385,-0.07677954993831215,0.0581280076948508
1728062625326638300,1.077638427734375,-3.7504849433898926,-2.2464890480041504,-0.10023924708366394,-0.15881577134132385,0.285961776971817,-0.9449886083602905,-0.05325087904930115,0.27786576747894287,-0.23929178714752197,0.9844574522230803,-0.14002233959989746,-0.08887887573819576,0.05777354422114104
1728062625336668200,1.087668212890625,-3.567488431930542,-2.1832115650177,-0.03555932268500328,-0.17969083786010742,0.3203243017196655,-0.930109441280365,-0.07540558278560638,0.37793317437171936,-0.2964988350868225,0.9806964607551343,-0.15741872332810067,-0.10081980813134256,0.057351552031399626
1728062625346699300,1.09769921875,-3.417626142501831,-2.0866122245788574,-0.04164278134703636,-0.1996346414089203,0.35250329971313477,-0.9142687916755676,-0.09186924993991852,0.4320884048938751,-0.3594128489494324,0.9766650398560678,-0.17389382385080657,-0.11236786325765465,0.05709484675653489
1728062625356729300,1.107729248046875,-3.3525805473327637,-2.0258920192718506,-0.18018308281898499,-0.21857978403568268,0.38309478759765625,-0.8974749445915222,-0.15460442006587982,0.41832736134529114,-0.3863690495491028,0.9723924850400412,-0.1898166179760035,-0.12341871001063813,0.0564836537437628
1728062625366760200,1.11776025390625,-3.3964998722076416,-2.0307369232177734,-0.42311131954193115,-0.23765771090984344,0.4125259518623352,-0.8793981671333313,-0.22202856838703156,0.3297836184501648,-0.3419153094291687,0.967827285413949,-0.20549997706953904,-0.1344271989228562,0.054858673674183026
1728062625376790300,1.127790283203125,-3.3108856678009033,-2.1528820991516113,-0.8074009418487549,-0.2585965096950531,0.44029659032821655,-0.85980623960495,-0.2381991446018219,0.22724494338035583,-0.31077176332473755,0.9629224864869587,-0.22076256582254258,-0.14615322609665884,0.05180216359570826
1728062625386820400,1.1378203125,-3.220318078994751,-2.2569777965545654,-1.2471212148666382,-0.2819831967353821,0.4653953015804291,-0.8389831185340881,-0.22495955228805542,0.1688668131828308,-0.3438323736190796,0.9577546434999467,-0.2351926253675046,-0.15872259286497972,0.04687944368966239
1728062625396851200,1.147851318359375,-3.0182154178619385,-2.332179546356201,-1.6450814008712769,-0.30805081129074097,0.48707589507102966,-0.8172280788421631,-0.21123626828193665,0.15278616547584534,-0.31936854124069214,0.95236723778593,-0.24846198050187007,-0.17219928689158187,0.040133107433257334
1728062625406881000,1.157881103515625,-2.753011703491211,-2.3269097805023193,-1.9080009460449219,-0.33580347895622253,0.5046992897987366,-0.7953079342842102,-0.18178990483283997,0.20848125219345093,-0.2767898440361023,0.9469052386831424,-0.2602083221273355,-0.1861119915196192,0.032007720170806137
1728062625416912400,1.167912353515625,-2.4440255165100098,-2.25020694732666,-2.041749954223633,-0.3640400469303131,0.5182315707206726,-0.773893415927887,-0.1510661542415619,0.30902373790740967,-0.25914186239242554,0.9414938348868291,-0.2702990821230068,-0.1999792794884878,0.023156690009944695
1728062625426942200,1.177942138671875,-2.014258623123169,-2.1120221614837646,-2.123877763748169,-0.3916676938533783,0.5275437831878662,-0.7538527250289917,-0.13350927829742432,0.3967115879058838,-0.2116471529006958,0.9363382581097469,-0.2785083371919395,-0.21332308683035603,0.014034486079296473
1728062625436972000,1.187971923828125,-1.5381613969802856,-1.8849678039550781,-2.2282841205596924,-0.41817525029182434,0.5320110321044922,-0.7362701296806335,-0.14395853877067566,0.4126300811767578,-0.14811396598815918,0.9317255619589262,-0.2843473015444471,-0.22585736128321762,0.004745784844873232
1728062625447003100,1.198003173828125,-1.146615743637085,-1.6726115942001343,-2.388282060623169,-0.4433882236480713,0.5319675803184509,-0.7213996052742004,-0.17851421236991882,0.3580623269081116,-0.09880602359771729,0.9277256766531996,-0.2879841148473166,-0.2374138566488236,-0.004997424710733483
1728062625457033200,1.208033203125,-0.791891872882843,-1.521191954612732,-2.549604892730713,-0.4679188132286072,0.52776700258255,-0.7088822722434998,-0.20951038599014282,0.2739298343658447,-0.038752615451812744,0.9242332459283968,-0.28962784415367443,-0.24834366945836084,-0.015302135315329974
1728062625467063300,1.218063232421875,-0.5320983529090881,-1.4128118753433228,-2.6525444984436035,-0.4918370842933655,0.520263135433197,-0.6981565356254578,-0.20703071355819702,0.18045103549957275,-0.012597858905792236,0.9210879911839202,-0.2897189473364036,-0.2588139558214339,-0.025984200991221073
1728062625477094100,1.22809423828125,-0.4236980974674225,-1.3061695098876953,-2.6754815578460693,-0.5149899125099182,0.5104857087135315,-0.6886143088340759,-0.1668643355369568,0.1121034026145935,-0.029357433319091797,0.9181215508438961,-0.2888048376910703,-0.2688579554514445,-0.0368784948031697
1728062625487124200,1.238124267578125,-0.22139772772789001,-1.2182666063308716,-2.599909543991089,-0.5369855165481567,0.4990582764148712,-0.6801377534866333,-0.10957515239715576,0.0638231635093689,-0.019340336322784424,0.9153141864354967,-0.2871028543815031,-0.27839374964500646,-0.04763100398086665
1728062625497155000,1.248155029296875,-0.009706776589155197,-1.1229866743087769,-2.5244300365448,-0.5575447678565979,0.4858737587928772,-0.6731051206588745,-0.0397300124168396,-0.01915314793586731,0.0013674497604370117,0.9128059702707647,-0.28433332536943173,-0.28740565975510823,-0.05777297698004093
1728062625507185200,1.25818505859375,-0.05714240297675133,-1.022080898284912,-2.5570430755615234,-0.5769073963165283,0.47180578112602234,-0.6667662858963013,0.017611682415008545,-0.10268041491508484,-0.04871833324432373,0.910372244943377,-0.28118569017469125,-0.29589095901756013,-0.06786538081308338
1728062625517215200,1.26821533203125,-0.07205303758382797,-0.9469948410987854,-2.6330606937408447,-0.5955188274383545,0.45711997151374817,-0.6606047749519348,0.021467924118041992,-0.13442710041999817,-0.00589907169342041,0.9078314882546259,-0.27801208602348954,-0.30398503138448224,-0.0783858796730944
1728062625527246300,1.278246337890625,-0.14542952179908752,-0.901738166809082,-2.6514124870300293,-0.6135511994361877,0.4419369101524353,-0.6544055342674255,0.02772057056427002,-0.1624264121055603,0.04274177551269531,0.9051145340226546,-0.2748899416494948,-0.31182167659347887,-0.08927675468934425
1728062625537276200,1.288276123046875,-0.16712789237499237,-0.851525604724884,-2.5652503967285156,-0.6306647658348083,0.42687904834747314,-0.6481019854545593,0.04771798849105835,-0.16587746143341064,0.08744841814041138,0.9022348464252062,-0.27200062193047414,-0.3193190517940292,-0.10011591968724178
1728062625547307300,1.298307373046875,-0.2030266374349594,-0.7620368599891663,-2.3964357376098633,-0.6463581919670105,0.41234737634658813,-0.6420207619667053,0.0789448618888855,-0.16289669275283813,0.1791912317276001,0.899335408571631,-0.26933228153743266,-0.3262663616183814,-0.11048139592595771
1728062625557337300,1.30833740234375,-0.2553331255912781,-0.6937374472618103,-2.2124199867248535,-0.6603872776031494,0.39882856607437134,-0.6362581253051758,0.10019135475158691,-0.16196635365486145,0.21911334991455078,0.8964756044467979,-0.26704401907242536,-0.3325032606276168,-0.12025194691913273
1728062625567367400,1.318367431640625,-0.2940080761909485,-0.6027923226356506,-2.07049298286438,-0.6729324460029602,0.3863289952278137,-0.6308025121688843,0.1079757809638977,-0.16091087460517883,0.21849477291107178,0.8936710213152005,-0.2651159318649289,-0.33810102250656643,-0.12943448225631218
1728062625577398300,1.328398193359375,-0.4182128608226776,-0.5242400169372559,-1.9725769758224487,-0.6841904520988464,0.37478551268577576,-0.6256351470947266,0.11467140913009644,-0.17590242624282837,0.18897438049316406,0.8908905046811779,-0.26360678717769787,-0.34306544721098625,-0.13831770622774206
1728062625587428000,1.338427978515625,-0.5457330346107483,-0.4879925549030304,-1.9034805297851562,-0.6945067644119263,0.3644735813140869,-0.6203380823135376,0.10377806425094604,-0.1902487576007843,0.13448303937911987,0.887987620938319,-0.2628034100572306,-0.34751305797099774,-0.147129377312503
1728062625597459200,1.348459228515625,-0.5912073850631714,-0.4425148069858551,-1.850603699684143,-0.704180121421814,0.3548567295074463,-0.6149854063987732,0.11218488216400146,-0.2025282084941864,0.09331798553466797,0.8849863951251077,-0.26241451779581176,-0.35163320768251827,-0.15585817639326563
1728062625607489000,1.358489013671875,-0.5739695429801941,-0.3822309672832489,-1.7444233894348145,-0.7130545973777771,0.34567704796791077,-0.6099676489830017,0.13267135620117188,-0.20540300011634827,0.10630553960800171,0.8820293353269871,-0.26216772036370967,-0.3553649902915714,-0.1643411563232762
1728062625617519000,1.36851904296875,-0.43593552708625793,-0.3316892385482788,-1.6044602394104004,-0.7209521532058716,0.3367750644683838,-0.605648934841156,0.15895569324493408,-0.1871016025543213,0.1334046721458435,0.8793042920765348,-0.26174250236391167,-0.35870099378623976,-0.17218733162091335
1728062625627550200,1.37855029296875,-0.25983038544654846,-0.24552585184574127,-1.522314190864563,-0.7279410362243652,0.3275347352027893,-0.6023478507995605,0.18199682235717773,-0.17700675129890442,0.13422346115112305,0.876941258168993,-0.2607097408825645,-0.3617409351558604,-0.1792989331903339
1728062625637580000,1.388580078125,-0.1740032434463501,-0.14338600635528564,-1.4127382040023804,-0.7338454723358154,0.31802287697792053,-0.6002768278121948,0.17451930046081543,-0.16180336475372314,0.15180575847625732,0.8749760550757145,-0.25912857543811246,-0.3642992770302286,-0.18589074109267106
1728062625647611100,1.398611083984375,-0.1656917780637741,-0.0984286442399025,-1.2721786499023438,-0.7387981414794922,0.3091192841529846,-0.5988509654998779,0.16627317667007446,-0.13124758005142212,0.1480453610420227,0.8732611048575136,-0.2575260666074604,-0.36640803281352674,-0.19193861932623107
1728062625657641200,1.40864111328125,-0.18937142193317413,-0.045426737517118454,-1.1184916496276855,-0.742892861366272,0.3012597858905792,-0.5977898836135864,0.18150681257247925,-0.12747743725776672,0.1324273943901062,0.8717411213668864,-0.25614086144143416,-0.3680990592695302,-0.19738879175753257
1728062625667671300,1.41867138671875,-0.2713482975959778,-0.055545683950185776,-0.9789274334907532,-0.7463074326515198,0.29485023021698,-0.5967315435409546,0.20599371194839478,-0.15820777416229248,0.12775272130966187,0.8703073990688236,-0.255270500637445,-0.36942008290668477,-0.20231355652425362
1728062625677702100,1.4287021484375,-0.2778072655200958,-0.08547081798315048,-0.8883575797080994,-0.7494652271270752,0.2895260751247406,-0.5953792929649353,0.2258141040802002,-0.1937466561794281,0.10233736038208008,0.868859651006676,-0.25483487078405226,-0.3706339721565993,-0.20681510209577972
1728062625687732200,1.438732177734375,-0.2430647313594818,-0.10315900295972824,-0.7737143635749817,-0.7524335980415344,0.28478774428367615,-0.5939189791679382,0.22762274742126465,-0.21265941858291626,0.11013907194137573,0.867477450798529,-0.2545112267255856,-0.3718394244896735,-0.21081378878533022
1728062625697763300,1.448763427734375,-0.21955834329128265,-0.12108314782381058,-0.6331734657287598,-0.755097508430481,0.28087642788887024,-0.5923987030982971,0.22992050647735596,-0.20293450355529785,0.1460791826248169,0.8662183511705835,-0.254341599961946,-0.37297585716502046,-0.21416171068527215
1728062625707793200,1.458793212890625,-0.10136885195970535,-0.09030131995677948,-0.5222647786140442,-0.7573473453521729,0.2774740755558014,-0.5911287665367126,0.2182694673538208,-0.17553004622459412,0.10896629095077515,0.865184090950762,-0.25409115169747387,-0.3739963840239171,-0.21684323720869284
1728062625717823200,1.4688232421875,-0.04990772530436516,-0.048268966376781464,-0.4418160319328308,-0.7590986490249634,0.27422353625297546,-0.5903988480567932,0.18649733066558838,-0.14479845762252808,0.09256559610366821,0.8644352364359239,-0.25356789952515957,-0.37483850053164697,-0.21897766566797464
1728062625727854300,1.478854248046875,0.02451697364449501,-0.011139441281557083,-0.3677729666233063,-0.7603759169578552,0.27123117446899414,-0.5901373624801636,0.15800470113754272,-0.10484933853149414,0.09323495626449585,0.8639121119632034,-0.25291054163575705,-0.37545648007772414,-0.22073634559968652
1728062625737884200,1.48888427734375,0.06971674412488937,0.012176001444458961,-0.307309627532959,-0.7612910270690918,0.268329381942749,-0.5902841091156006,0.1415400505065918,-0.06555533409118652,0.09307652711868286,0.8636057221318767,-0.25203758121623115,-0.37594549533511684,-0.22209710877148361
1728062625747915300,1.498915283203125,-0.04492967948317528,0.013470564037561417,-0.2533121407032013,-0.7619339227676392,0.2661028206348419,-0.5904624462127686,0.13743752241134644,-0.05051138997077942,0.11103135347366333,0.8633470650002365,-0.2514231669413868,-0.37623819840571604,-0.2233001398315183
1728062625757945300,1.5089453125,-0.1294064223766327,-0.020744025707244873,-0.2678346335887909,-0.7626864314079285,0.26461538672447205,-0.5901594758033752,0.11960470676422119,-0.04224902391433716,0.10944664478302002,0.8629285810724218,-0.2513110823999356,-0.376514271070911,-0.22457536474382656
1728062625767975200,1.51897509765625,-0.3946940004825592,0.005470267962664366,-0.21689608693122864,-0.7633726000785828,0.26416462659835815,-0.5894739031791687,0.08533304929733276,-0.07281938195228577,0.1178705096244812,0.8623272212951046,-0.2519121485660252,-0.37656783134178545,-0.22611699047377992
1728062625778006300,1.52900634765625,-0.692188024520874,-0.07031605392694473,-0.12971244752407074,-0.7639989256858826,0.26611268520355225,-0.5877836346626282,0.06143850088119507,-0.08515870571136475,0.13130176067352295,0.8613780402043515,-0.25400664002118895,-0.37628287740016064,-0.22785887421745976
1728062625788036000,1.5390361328125,-0.802251398563385,-0.15030355751514435,-0.10126243531703949,-0.764956533908844,0.26970675587654114,-0.5848929286003113,0.073641836643219,-0.05138400197029114,0.062004804611206055,0.8600653391642672,-0.2571967866885203,-0.37603635960116566,-0.22963911418134444
1728062625798067200,1.549067138671875,-0.7286831736564636,-0.23331338167190552,-0.08471594750881195,-0.7663392424583435,0.27355438470840454,-0.5812849998474121,0.081082284450531,0.018590420484542847,0.03379964828491211,0.8585833003544614,-0.2606022339846727,-0.376090379263877,-0.2312516671445568
1728062625808097000,1.559096923828125,-0.5067675709724426,-0.2352827936410904,-0.08163121342658997,-0.7679884433746338,0.2765396535396576,-0.5776848196983337,0.08375382423400879,0.0870468020439148,-0.01199108362197876,0.8572063174563754,-0.26341237525646344,-0.37652559512226996,-0.23246475120930937
1728062625818127000,1.569127197265625,-0.18510723114013672,-0.17836225032806396,-0.08283629268407822,-0.7694197297096252,0.2779217064380646,-0.5751110911369324,0.061945974826812744,0.1390399932861328,-0.06995421648025513,0.8562514494927584,-0.2650039453930414,-0.37711717568304554,-0.23321440669444027
1728062625828158200,1.579158203125,0.08282435685396194,-0.12025021016597748,-0.07976779341697693,-0.7705111503601074,0.2775477468967438,-0.573829174041748,0.026202678680419922,0.1548100709915161,-0.08686113357543945,0.8558141956509303,-0.26521403878641314,-0.377818649311089,-0.2334455071035607
1728062625838188300,1.589188232421875,0.27733269333839417,-0.06695061177015305,-0.0747607871890068,-0.7712459564208984,0.27590760588645935,-0.5736330151557922,0.005285084247589111,0.13139528036117554,-0.09551066160202026,0.8557956201107303,-0.26439129438547765,-0.37852440232442724,-0.2333035895282916
1728062625848218000,1.599218017578125,0.32543259859085083,-0.058887891471385956,-0.08584033697843552,-0.7718098759651184,0.27348920702934265,-0.5740324854850769,-0.00007128715515136719,0.09369829297065735,-0.07579350471496582,0.8560024431177722,-0.26296650430397234,-0.3792523927982264,-0.23297246001849384
1728062625858249200,1.609249267578125,0.2430190145969391,-0.09503967314958572,-0.1117241308093071,-0.7725106477737427,0.27109378576278687,-0.574225902557373,0.009983241558074951,0.056649744510650635,-0.04135936498641968,0.8561193649256035,-0.26164633456732395,-0.3800371742217632,-0.23274987658693175
1728062625868279300,1.619279296875,0.12221323698759079,-0.1176360622048378,-0.1551634818315506,-0.7734866738319397,0.2690184712409973,-0.5738880634307861,0.023166179656982422,0.021402090787887573,-0.007975339889526367,0.8559982712899576,-0.2607378986963347,-0.38088280789160767,-0.2328326576656868
1728062625878310100,1.62931005859375,-0.02632996253669262,-0.0993727371096611,-0.16102616488933563,-0.7745625376701355,0.2674658000469208,-0.5731622576713562,0.013728797435760498,-0.01668757200241089,0.0317041277885437,0.855662794042203,-0.2603387744319327,-0.38163150334112095,-0.23328603913322843
1728062625888340200,1.63934033203125,-0.17857062816619873,-0.06911496818065643,-0.10598475486040115,-0.7754101753234863,0.2670390009880066,-0.5722143054008484,-0.006114482879638672,-0.030420958995819092,0.06661432981491089,0.8552035350081647,-0.2606402701405838,-0.38204645934206655,-0.23395316403039118
1728062625898370300,1.649370361328125,-0.24701200425624847,-0.046839915215969086,-0.07028347998857498,-0.775962233543396,0.2676592767238617,-0.571175217628479,-0.010613083839416504,-0.015477240085601807,0.052498459815979004,0.8547046559375017,-0.26149896637265857,-0.38213959526227204,-0.23466489742761973
1728062625908401200,1.659401123046875,-0.18615877628326416,-0.029668916016817093,-0.04694486781954765,-0.7763322591781616,0.26847144961357117,-0.5702905058860779,-0.008305191993713379,0.0037911534309387207,0.013466835021972656,0.8542753977415901,-0.26237660485778014,-0.3821168194422112,-0.23528448862314946
1728062625918431200,1.66943115234375,-0.11558680236339569,-0.03802426904439926,-0.05463581159710884,-0.7766402959823608,0.26896220445632935,-0.5696394443511963,0.0021957755088806152,0.021122634410858154,-0.016511619091033936,0.8539589307062911,-0.26297036283714037,-0.3821346222282125,-0.23574096679782122
1728062625928462300,1.67946240234375,0.03411134332418442,-0.046637460589408875,-0.10579380393028259,-0.7771190404891968,0.2686142027378082,-0.5691506266593933,0.013080954551696777,0.04921114444732666,-0.06622529029846191,0.8537130875956866,-0.263076945881186,-0.38238097067180515,-0.23611302194236303
1728062625938492400,1.689492431640625,0.17026084661483765,-0.020595580339431763,-0.1492086499929428,-0.7776665091514587,0.26697084307670593,-0.569176197052002,0.007158637046813965,0.06551820039749146,-0.08336591720581055,0.8536335261273523,-0.26240332471914884,-0.38282685027170943,-0.23642766738950272
1728062625948522000,1.69952197265625,0.27045777440071106,-0.0050712157972157,-0.14033180475234985,-0.778137743473053,0.26457035541534424,-0.5696527361869812,-0.007033884525299072,0.07780641317367554,-0.0699957013130188,0.853719103970643,-0.2612001907750248,-0.38333808350333776,-0.23662249610143044
1728062625958553300,1.70955322265625,0.36095112562179565,0.02404581755399704,-0.12578561902046204,-0.7784491777420044,0.26172834634780884,-0.5705394148826599,-0.0061882734298706055,0.07800859212875366,-0.04716688394546509,0.8539855730954983,-0.25958687792437385,-0.3838553846790347,-0.2365976164831707
1728062625968583200,1.719583251953125,0.3767804205417633,0.03990786895155907,-0.13353461027145386,-0.7786005735397339,0.25854653120040894,-0.5717821717262268,-0.005273938179016113,0.03899988532066345,-0.021540522575378418,0.8543850021000722,-0.25767746142832154,-0.3843321815037543,-0.2364686073459415
1728062625978614000,1.729614013671875,0.2554657757282257,0.044273216277360916,-0.12664182484149933,-0.7789127826690674,0.2556834816932678,-0.5726436972618103,-0.012362182140350342,-0.016608774662017822,-0.0010714530944824219,0.8546418175390202,-0.25606101235592665,-0.38485180072544417,-0.23645130979980947
1728062625988644000,1.73964404296875,0.10411140322685242,0.013920904137194157,-0.11300111562013626,-0.7790846228599548,0.2538633644580841,-0.573219358921051,-0.007734775543212891,-0.059695273637771606,0.008751094341278076,0.8547613955192416,-0.2551109613993656,-0.3851086951165247,-0.2366275352503463
1728062625998674200,1.749674072265625,-0.010616312734782696,-0.04366249591112137,-0.09343167394399643,-0.7793168425559998,0.2530912458896637,-0.5732452869415283,0.00990760326385498,-0.07993447780609131,0.01217961311340332,0.854694899291866,-0.2548440660709402,-0.3852685515670203,-0.23689528047488775
1728062626008705000,1.759705078125,-0.07018589973449707,-0.08249937742948532,-0.08716659247875214,-0.7795575857162476,0.25306493043899536,-0.5729294419288635,0.02380502223968506,-0.08331087231636047,0.017341673374176025,0.8545176374102966,-0.25504021779256886,-0.3853437123364984,-0.23720096753979364
1728062626018735000,1.769735107421875,-0.05121554061770439,-0.0749816969037056,-0.07065818458795547,-0.7798258066177368,0.2533313035964966,-0.5724464058876038,0.012934327125549316,-0.059559911489486694,0.006665825843811035,0.8542995799706625,-0.2554056009299752,-0.38541507150402726,-0.23747708399421483
1728062626028766200,1.77976611328125,0.1539141833782196,-0.10220079869031906,-0.03842168673872948,-0.7801103591918945,0.25321006774902344,-0.5721123814582825,-0.009898185729980469,-0.01378437876701355,-0.02290409803390503,0.8542274534946465,-0.25537972362618516,-0.3856488245099512,-0.23738524660928798
1728062626038796300,1.78979638671875,0.36928945779800415,-0.09800978004932404,-0.04968206584453583,-0.7805546522140503,0.2519529163837433,-0.5720613598823547,-0.016488194465637207,0.015518426895141602,-0.054617106914520264,0.854379768346813,-0.25449710504733614,-0.38626487673991805,-0.2367823932075841
1728062626048826000,1.799826171875,0.6044924259185791,-0.06693895161151886,-0.08427999168634415,-0.7810521125793457,0.24894529581069946,-0.5726987719535828,-0.023452341556549072,0.04962344467639923,-0.06984877586364746,0.854794826615671,-0.2524902054362123,-0.38716832498129683,-0.23595595420974588
1728062626058857200,1.809857177734375,0.7733314633369446,-0.024189356714487076,-0.10432400554418564,-0.7816075086593628,0.24409925937652588,-0.5740254521369934,-0.031136631965637207,0.08460558950901031,-0.07784521579742432,0.8554553897035437,-0.24933960874268474,-0.38835168523423835,-0.23496558284469643
1728062626068887300,1.81988720703125,0.771051287651062,0.014794793911278248,-0.08864038437604904,-0.7818686962127686,0.23880968987941742,-0.5758917331695557,-0.021353960037231445,0.06847181916236877,-0.053853750228881836,0.8563044427630128,-0.24578995044668628,-0.3894116528276253,-0.23385581359282914
1728062626078918100,1.829918212890625,0.5830067992210388,-0.0034049823880195618,-0.06603413820266724,-0.7820101380348206,0.23419664800167084,-0.5775916576385498,-0.008288323879241943,0.00777725875377655,-0.0002434253692626953,0.8570726816812533,-0.24266096556968114,-0.39028172662337435,-0.2328568234430339
1728062626088948200,1.8399482421875,0.24649430811405182,-0.03852888196706772,-0.03633856400847435,-0.7822666168212891,0.23135632276535034,-0.5783885717391968,0.0057773590087890625,-0.06538645923137665,0.04262197017669678,0.8574723359809945,-0.24078706553168344,-0.39093134315753547,-0.23224048985927673
1728062626098978300,1.849978271484375,-0.05768182501196861,-0.10719449073076248,-0.021018462255597115,-0.7827380895614624,0.23063252866268158,-0.5780395269393921,0.022758841514587402,-0.10694475471973419,0.08981931209564209,0.8574112736504476,-0.2404327529939895,-0.3913723723481624,-0.23208968699210794
1728062626109009200,1.860009033203125,-0.27379894256591797,-0.18073369562625885,-0.056828923523426056,-0.7836660742759705,0.23134870827198029,-0.576494038105011,0.03908294439315796,-0.11178082227706909,0.08297902345657349,0.8568714690918741,-0.24127885164570725,-0.3918386178096907,-0.23241866418419826
1728062626119039200,1.870039306640625,-0.28678664565086365,-0.20415565371513367,-0.08718043565750122,-0.7849779725074768,0.23245137929916382,-0.5742611885070801,0.03360468149185181,-0.06173604726791382,0.041409075260162354,0.8560379002652823,-0.24262526753272534,-0.3924313687772256,-0.23308721294795148
1728062626129070300,1.8800703125,-0.15785743296146393,-0.1770300269126892,-0.06851939857006073,-0.7862916588783264,0.23310810327529907,-0.5721940398216248,0.012762606143951416,0.014999836683273315,0.030690133571624756,0.8552858384262092,-0.2436566931508042,-0.3931086433636162,-0.23363024423882953
1728062626139100400,1.890100341796875,-0.011016054078936577,-0.11739972233772278,-0.058391936123371124,-0.7872794270515442,0.23312518000602722,-0.5708272457122803,-0.0072152018547058105,0.07334759831428528,-0.002430140972137451,0.8548183075250595,-0.2440799999348567,-0.3937147982678007,-0.2338785934589165
1728062626149130000,1.9001298828125,0.13287825882434845,-0.06142487749457359,-0.08146955817937851,-0.7879568934440613,0.23222577571868896,-0.5702587962150574,-0.03823024034500122,0.10473407804965973,-0.012535333633422852,0.8546339436877497,-0.24378556499048393,-0.39425779295428115,-0.23394473420251244
1728062626159161000,1.9101611328125,0.1976485401391983,-0.03652133420109749,-0.09738407284021378,-0.7884476184844971,0.23051366209983826,-0.5702753663063049,-0.058277904987335205,0.09225551784038544,-0.0006322264671325684,0.8546433468057927,-0.24291750827094047,-0.3947827336651741,-0.2339286658624248
1728062626169191200,1.920191162109375,0.1391785740852356,-0.016877861693501472,-0.08868539333343506,-0.7888178825378418,0.2287675142288208,-0.5704663991928101,-0.05212455987930298,0.04099263250827789,0.007157683372497559,0.8546933341684325,-0.24201091752675236,-0.3952183117660728,-0.23395009363121613
1728062626179223300,1.930223388671875,-0.0056268805637955666,-0.01266990602016449,-0.07336635887622833,-0.7890838980674744,0.22770904004573822,-0.5705219507217407,-0.03414309024810791,-0.015352413058280945,0.028270304203033447,0.8546526231555124,-0.2415645955818414,-0.39545614718004435,-0.2341581934012226
1728062626189253400,1.94025341796875,-0.1555870771408081,-0.03960777819156647,-0.04831826314330101,-0.7893789410591125,0.2276715189218521,-0.5701286792755127,-0.0071909427642822266,-0.059260234236717224,0.052214860916137695,0.8544297933627095,-0.24181391642955583,-0.3955523803227325,-0.23455112926294203
1728062626199283500,1.950283447265625,-0.29627662897109985,-0.055126339197158813,-0.025248626247048378,-0.7897402048110962,0.22867745161056519,-0.5692249536514282,0.02556478977203369,-0.08179633319377899,0.051768958568573,0.8540112679698328,-0.2427758678785921,-0.39553430693845654,-0.23511133732708822
1728062626209314300,1.960314208984375,-0.38277849555015564,-0.05341259762644768,-0.0036778217181563377,-0.7900961637496948,0.230515718460083,-0.5679882168769836,0.051692843437194824,-0.08725093305110931,0.05764275789260864,0.8534671214844296,-0.24427446915423895,-0.3953933222863391,-0.23577122230911451
1728062626219344100,1.97034423828125,-0.44945138692855835,-0.04510289430618286,0.0024114963598549366,-0.790389895439148,0.23287485539913177,-0.5666154623031616,0.07141107320785522,-0.09641548991203308,0.06182420253753662,0.8528471781815133,-0.24612249732251734,-0.3951151480009312,-0.23655749625012135
1728062626229374200,1.980374267578125,-0.5025146007537842,-0.059681039303541183,0.032481513917446136,-0.7906290888786316,0.2357150912284851,-0.5651053190231323,0.07496136426925659,-0.08309665322303772,0.0457114577293396,0.8521793640134848,-0.24825209113343208,-0.3947381823358782,-0.23736687020626848
1728062626239405000,1.990405029296875,-0.5829617381095886,-0.07312153279781342,0.06960384547710419,-0.7909182906150818,0.23919345438480377,-0.563235878944397,0.08263587951660156,-0.05758334696292877,0.03459519147872925,0.8514148078454643,-0.25076329788650886,-0.39433466817311347,-0.23813999390963336
1728062626249435100,2.00043505859375,-0.6428692936897278,-0.05437847226858139,0.12022947520017624,-0.7910510301589966,0.2433794140815735,-0.5612529516220093,0.07906055450439453,-0.03088545799255371,0.052265465259552,0.8506252218303645,-0.25363625510541465,-0.39375394879190906,-0.23887935875412758
1728062626259466200,2.01046630859375,-0.6270561814308167,-0.06585483253002167,0.16920341551303864,-0.7910339832305908,0.24814076721668243,-0.559188187122345,0.06599736213684082,0.0023475289344787598,0.025069594383239746,0.8498572726052783,-0.25673486054704414,-0.3930561275629319,-0.2394508075329559
1728062626269496300,2.020496337890625,-0.49549171328544617,-0.06512193381786346,0.21767693758010864,-0.7909306287765503,0.2528597116470337,-0.5572168827056885,0.06102651357650757,0.03350198268890381,-0.013385474681854248,0.8492159827447283,-0.25962545500912715,-0.3924107160668541,-0.2396678390290979
1728062626279526100,2.030526123046875,-0.22361533343791962,-0.02138632722198963,0.27902844548225403,-0.790584921836853,0.2568438947200775,-0.5558837056159973,0.06115376949310303,0.056510597467422485,-0.027856409549713135,0.8489297790624327,-0.2617304300434846,-0.3918613717681938,-0.2392907605799316
1728062626289557200,2.04055712890625,0.09670142084360123,-0.04947521537542343,0.29733768105506897,-0.790050208568573,0.25947797298431396,-0.5554203391075134,0.06722617149353027,0.08646926283836365,-0.05877631902694702,0.8491207196747903,-0.26260418454742857,-0.39157229193118287,-0.23812630162813112
1728062626299587300,2.05058740234375,0.3687913417816162,-0.04917875677347183,0.34133121371269226,-0.7895066142082214,0.26066091656684875,-0.5556394457817078,0.07766884565353394,0.10362741351127625,-0.08643513917922974,0.8497086994992457,-0.2622768065026726,-0.3916518407562841,-0.236251716372909
1728062626309618200,2.0606181640625,0.5060335993766785,-0.026545614004135132,0.41869232058525085,-0.7887439131736755,0.26109832525253296,-0.556516706943512,0.10029774904251099,0.08201086521148682,-0.05591005086898804,0.8506756352038892,-0.26111436843905966,-0.39186850880211677,-0.23368673556075492
1728062626319648300,2.070648193359375,0.361076295375824,-0.018030637875199318,0.6240391135215759,-0.7875187397003174,0.26265430450439453,-0.5575185418128967,0.15716290473937988,0.02028942108154297,-0.014579176902770996,0.8518082096941729,-0.26024897982665324,-0.3918050334343537,-0.230612296445906
1728062626329678300,2.08067822265625,0.1228722333908081,-0.0753844752907753,0.9337735176086426,-0.7857018709182739,0.2674229145050049,-0.5578150153160095,0.23366940021514893,-0.077191561460495,0.05316108465194702,0.8529379533611366,-0.26077143199668185,-0.3912681391030365,-0.226725332612261
1728062626339709200,2.090709228515625,-0.20976370573043823,-0.10451509058475494,1.1707541942596436,-0.7833433747291565,0.2759813666343689,-0.5569627285003662,0.342593252658844,-0.2259325087070465,0.10704207420349121,0.8538895301330168,-0.26312987623550677,-0.39023236689584384,-0.2221577908162936
1728062626349739300,2.1007392578125,-0.501930832862854,-0.14568063616752625,1.3190269470214844,-0.7804937958717346,0.287759006023407,-0.5549993515014648,0.3974829316139221,-0.3299342691898346,0.14784908294677734,0.8545508571222689,-0.2672333896353705,-0.3886986629379203,-0.2173535295200119
1728062626359770400,2.110770263671875,-0.7476581335067749,-0.2157786637544632,1.4274024963378906,-0.777459979057312,0.3019680976867676,-0.5516985058784485,0.420923113822937,-0.3783230483531952,0.10919368267059326,0.8548192959681417,-0.27279539617889903,-0.3869540250073308,-0.21244572012980206
1728062626369800400,2.120800537109375,-0.8780579566955566,-0.26614275574684143,1.6261816024780273,-0.7740491628646851,0.3183356821537018,-0.5472753047943115,0.44128549098968506,-0.3734656572341919,0.10467886924743652,0.8548142471906736,-0.2795222109303735,-0.38500608298925554,-0.20719603235535314
1728062626379830300,2.130830322265625,-0.8386166095733643,-0.3345058858394623,1.8665300607681274,-0.7699609994888306,0.33660200238227844,-0.5420877933502197,0.46957647800445557,-0.33474040031433105,0.10974526405334473,0.8547878043397756,-0.2869152815302505,-0.3829304447702741,-0.20095211651524203
1728062626389861400,2.140861328125,-0.6883354783058167,-0.36331355571746826,2.0911002159118652,-0.7649900913238525,0.3560064435005188,-0.5367023944854736,0.4823973774909973,-0.2820776104927063,0.05022174119949341,0.8549459378471845,-0.294360891619072,-0.38078925613690345,-0.19343881121406784
1728062626399891200,2.15089111328125,-0.43134403228759766,-0.3813766539096832,2.33144474029541,-0.7588666081428528,0.37592050433158875,-0.5317943692207336,0.45926034450531006,-0.22963449358940125,0.03916442394256592,0.8554900587890971,-0.3013420827940202,-0.3785442783664343,-0.18448279580530233
1728062626409922300,2.16092236328125,-0.1333504319190979,-0.3730558753013611,2.56998348236084,-0.7513924837112427,0.3959742784500122,-0.5278387069702148,0.4368935823440552,-0.20223340392112732,0.024802207946777344,0.856547337289661,-0.30752477415056767,-0.376177031194222,-0.17391382012307857
1728062626419952000,2.1709521484375,0.09669902175664902,-0.33716994524002075,2.7873456478118896,-0.7423563599586487,0.4161258935928345,-0.5251154899597168,0.4175730347633362,-0.19417154788970947,0.006301462650299072,0.8581133395330618,-0.3129220328777744,-0.37352652796941604,-0.16186165397896074
1728062626429982200,2.180982177734375,0.26204246282577515,-0.2584748864173889,2.9963057041168213,-0.7315475940704346,0.4365415573120117,-0.5237076878547668,0.3927718997001648,-0.19453707337379456,0.06704264879226685,0.8601025186768108,-0.31775633726489066,-0.3703742138415929,-0.14858553383107104
1728062626440013000,2.191012939453125,0.36369532346725464,-0.1860980987548828,3.1842663288116455,-0.7188336253166199,0.4573848247528076,-0.5235239267349243,0.37677741050720215,-0.20820879936218262,0.1319987177848816,0.862396976058054,-0.32226489437026734,-0.36658338830883896,-0.13428828359028433
1728062626450043100,2.201043212890625,0.44141194224357605,-0.1066988855600357,3.284499406814575,-0.7044617533683777,0.4783642292022705,-0.5243104100227356,0.3621460795402527,-0.21452447772026062,0.15956437587738037,0.8648256931857079,-0.3265358502612239,-0.3622418104042493,-0.11929731334309811
1728062626460074200,2.21107421875,0.4459768533706665,0.019196785986423492,3.321183443069458,-0.6885526776313782,0.4990467429161072,-0.5261630415916443,0.33154284954071045,-0.20946544408798218,0.21795082092285156,0.8673230259479452,-0.3305663486673695,-0.35727353152932895,-0.10407832573215439
1728062626470104300,2.221104248046875,0.4433738887310028,0.1867532879114151,3.4891865253448486,-0.6706008911132812,0.5198712348937988,-0.5291771292686462,0.2881850600242615,-0.17866939306259155,0.279848575592041,0.8698991213094298,-0.33462724526875137,-0.35133466184761014,-0.08867992355477172
1728062626480134100,2.231134033203125,0.5269442796707153,0.2949012815952301,3.730577230453491,-0.6501194834709167,0.5412487983703613,-0.5332865118980408,0.2824894189834595,-0.11967897415161133,0.29256385564804077,0.8725765430276812,-0.338750959944419,-0.34439008333302124,-0.07248103284872219
1728062626490165200,2.241165283203125,0.7202066779136658,0.4320271909236908,3.950922966003418,-0.6268792152404785,0.5625483393669128,-0.5390379428863525,0.302980899810791,-0.06402844190597534,0.27544236183166504,0.8754849400203182,-0.3424839473127057,-0.3364309393872286,-0.055183286708335715
1728062626500195300,2.2511953125,0.9899177551269531,0.5260009765625,4.062497615814209,-0.6011767983436584,0.5826853513717651,-0.5468676686286926,0.29262882471084595,-0.004026293754577637,0.21122008562088013,0.8786749111600552,-0.34534027919162535,-0.327576342917133,-0.03693538570261059
1728062626510225400,2.261225341796875,1.448241949081421,0.5032716989517212,4.070040702819824,-0.5741342306137085,0.600008487701416,-0.5570992827415466,0.2671579122543335,0.06927251815795898,0.1151590347290039,0.8821723008787714,-0.34654634044874727,-0.3183645636836057,-0.017933314890241057
1728062626520256300,2.27125634765625,2.016698122024536,0.4288165867328644,4.05491304397583,-0.5467979311943054,0.6130272150039673,-0.5702715516090393,0.2426903247833252,0.13367688655853271,0.05301392078399658,0.8860765599434325,-0.3452219680781388,-0.30933158310899533,0.002005942328304007
1728062626530286300,2.281286376953125,2.499743700027466,0.4603220522403717,4.060605525970459,-0.5192011594772339,0.6215724349021912,-0.5865816473960876,0.2394312620162964,0.2040959596633911,0.014590620994567871,0.8903766855709175,-0.3413569096408512,-0.3003075945162536,0.02280987588859084
1728062626540317200,2.291317138671875,2.7814204692840576,0.6288330554962158,4.039103031158447,-0.4905886650085449,0.6261931657791138,-0.6059743762016296,0.2272525131702423,0.28551948070526123,0.02630823850631714,0.8950166871329084,-0.33555172528870003,-0.29054750568217075,0.04395903376427422
1728062626550347300,2.30134716796875,2.8378331661224365,0.8226214647293091,3.9859707355499268,-0.46087589859962463,0.6278730034828186,-0.6271912455558777,0.17379707098007202,0.3313402533531189,0.06676650047302246,0.8996613082313039,-0.3287790781583599,-0.27983688532416084,0.06484739184872032
1728062626560377300,2.31137744140625,2.675701379776001,1.032631754875183,3.9307727813720703,-0.4299967885017395,0.6278524994850159,-0.6487711668014526,0.112201988697052,0.31192106008529663,0.1692180037498474,0.903965251618119,-0.3220509417845259,-0.26813728486212085,0.08504366116286846
1728062626570408400,2.321408447265625,2.3929200172424316,1.1807029247283936,3.8596112728118896,-0.3981297016143799,0.6272808313369751,-0.6693366169929504,0.05901840329170227,0.2323535680770874,0.20948255062103271,0.9076270211915071,-0.31617736194665186,-0.2556629945708295,0.10431421678706033
1728062626580438000,2.33143798828125,1.9805039167404175,1.2695010900497437,3.724250078201294,-0.3658542037010193,0.6268740296363831,-0.6878806352615356,0.020456254482269287,0.13020610809326172,0.21025002002716064,0.9104675057225905,-0.31160768098218294,-0.2428175180223917,0.12243075902677067
1728062626590469400,2.341469482421875,1.4525338411331177,1.2358206510543823,3.5281217098236084,-0.3342483341693878,0.6276342868804932,-0.7031026482582092,-0.007456988096237183,0.09253484010696411,0.18679100275039673,0.9122522140343197,-0.30888834200505094,-0.2302969281575449,0.1390946322648354
1728062626600499200,2.351499267578125,0.9816461801528931,1.1356158256530762,3.3355090618133545,-0.3041780889034271,0.6300094127655029,-0.7145375609397888,-0.005224376916885376,0.15343785285949707,0.14109700918197632,0.9129382084535478,-0.30808346942327197,-0.21866824987120906,0.15431389624207062
1728062626610529300,2.361529296875,0.7330257296562195,1.0109740495681763,3.2208638191223145,-0.2757464051246643,0.6334620118141174,-0.7229728698730469,0.027928441762924194,0.2497013807296753,0.04577261209487915,0.9127340512882639,-0.3086005150266606,-0.20803673279211832,0.1685318309347182
1728062626620560100,2.37156005859375,0.5360984802246094,0.9354249238967896,3.138627052307129,-0.24835756421089172,0.6371647715568542,-0.7296160459518433,0.06758671998977661,0.32429152727127075,-0.07267576456069946,0.9119205679474902,-0.30977091030719345,-0.19807565426389012,0.1822329852110774
1728062626630590200,2.381590087890625,0.34648436307907104,0.8528011441230774,3.048945903778076,-0.22201590240001678,0.6412526369094849,-0.7345093488693237,0.07052664458751678,0.39037883281707764,-0.19284355640411377,0.9105327238301031,-0.3116141098129359,-0.18879083605095906,0.1954092693847636
1728062626640621300,2.391621337890625,0.2334914207458496,0.8285233378410339,2.954986572265625,-0.19641074538230896,0.6454745531082153,-0.7380958199501038,0.030456170439720154,0.42151153087615967,-0.18785321712493896,0.9087124426765049,-0.313955824593489,-0.1799551161143993,0.20806136638800368
1728062626650651100,2.401651123046875,0.06980262696743011,0.8404226303100586,2.7795441150665283,-0.17157316207885742,0.6495647430419922,-0.7406944632530212,-0.031048297882080078,0.3815937042236328,-0.15710210800170898,0.906617611948874,-0.31663451319964725,-0.17145071541772428,0.21998125267511542
1728062626660681200,2.41168115234375,-0.17526531219482422,0.7812176942825317,2.5768003463745117,-0.14798139035701752,0.654279351234436,-0.741633415222168,-0.12010027468204498,0.34215015172958374,-0.14726734161376953,0.9041868306969642,-0.3200664394395467,-0.16352605684930746,0.23078775163040852
1728062626670712300,2.42171240234375,-0.4085544943809509,0.694233775138855,2.3855907917022705,-0.12614910304546356,0.6598530411720276,-0.7407296895980835,-0.18987566232681274,0.3064861297607422,-0.0731741189956665,0.9013767970766301,-0.3242465508975838,-0.15652264594056958,0.2405926165699858
1728062626680742100,2.4317421875,-0.5774326920509338,0.5576112270355225,2.2134218215942383,-0.10621212422847748,0.6662593483924866,-0.738117516040802,-0.20886661112308502,0.2857517600059509,-0.069865882396698,0.8982127676458487,-0.32905596604511694,-0.15054372264702753,0.24954487583118284
1728062626690773200,2.441773193359375,-0.6275705099105835,0.5240911841392517,2.0820508003234863,-0.0878463014960289,0.6728023290634155,-0.7345883250236511,-0.20765537023544312,0.2942996621131897,-0.0863802433013916,0.8948710391413921,-0.33403771945394356,-0.14534317808400046,0.2578758192105564
1728062626700803300,2.45180322265625,-0.7361257076263428,0.4968787133693695,1.9327399730682373,-0.07044388353824615,0.6793537735939026,-0.7304219007492065,-0.19293805956840515,0.2927379608154297,-0.14262497425079346,0.8914681638489953,-0.33917659538020356,-0.14052855090497948,0.265510029267546
1728062626710833400,2.46183349609375,-0.8898199200630188,0.4211943447589874,1.7979788780212402,-0.05433349311351776,0.6865054368972778,-0.725091814994812,-0.20160216093063354,0.31259429454803467,-0.165777325630188,0.8878713417526276,-0.3447498835268255,-0.13638770663664918,0.27245256413297547
1728062626720864300,2.4718642578125,-0.9735726118087769,0.3578358292579651,1.6627273559570312,-0.03954640403389931,0.6940307021141052,-0.7188583612442017,-0.204044908285141,0.3241119384765625,-0.16122275590896606,0.884119284878674,-0.35056881873888424,-0.13293724238949647,0.27885873755565044
1728062626730894300,2.481894287109375,-1.1646922826766968,0.2933191657066345,1.500611662864685,-0.026113292202353477,0.7021883726119995,-0.7115121483802795,-0.20968075096607208,0.3023282289505005,-0.2312977910041809,0.8802115181772621,-0.35678574563628274,-0.13018393073046514,0.28457624798573417
1728062626740925400,2.491925537109375,-1.4054937362670898,0.23791112005710602,1.346377968788147,-0.014143062755465508,0.7115832567214966,-0.702459454536438,-0.24824707210063934,0.2816876173019409,-0.25379353761672974,0.8760130522082467,-0.3637450774539506,-0.12829569806555466,0.28953566969037664
1728062626750955300,2.501955322265625,-1.67018723487854,0.15138022601604462,1.2082372903823853,-0.003599415998905897,0.722450315952301,-0.6914135813713074,-0.2699753940105438,0.24657440185546875,-0.22177916765213013,0.8714364885265545,-0.37158978768246115,-0.12733518727744542,0.29377777332935834
1728062626760985000,2.511985107421875,-1.9693293571472168,0.07361480593681335,1.0837109088897705,0.0054720002226531506,0.734906017780304,-0.6781468391418457,-0.28905656933784485,0.18957817554473877,-0.14184516668319702,0.8663883752523484,-0.3803847261414037,-0.1274128637001077,0.297396336782242
1728062626771016400,2.522016357421875,-2.3174691200256348,0.011184985749423504,0.9848214983940125,0.013456393033266068,0.7492059469223022,-0.6622004508972168,-0.3167858421802521,0.12896788120269775,-0.0604100227355957,0.8607283052249113,-0.39038926253213546,-0.12843680431037638,0.30041141101617796
1728062626781046300,2.53204638671875,-2.685662031173706,-0.08248696476221085,0.877492368221283,0.02029936946928501,0.7654446363449097,-0.643181562423706,-0.35704559087753296,0.07557404041290283,-0.027289628982543945,0.8543280852271343,-0.4017135251887627,-0.13051993132177686,0.3028439921763256
1728062626791076000,2.542076171875,-2.935549259185791,-0.17194946110248566,0.7789855003356934,0.025893550366163254,0.7831637859344482,-0.6212761998176575,-0.38517695665359497,0.027673006057739258,-0.03833073377609253,0.8472056086775406,-0.41411330289558085,-0.13368648838765657,0.3047637376424889
1728062626801107200,2.552107177734375,-2.9980037212371826,-0.2336260825395584,0.6595361232757568,0.03039656952023506,0.8011447787284851,-0.5976981520652771,-0.38147079944610596,0.005801022052764893,-0.10623550415039062,0.8396819783925578,-0.42687378947887444,-0.13758518392983263,0.30624059678611043
1728062626811137300,2.56213720703125,-2.8944921493530273,-0.2598838210105896,0.5207406878471375,0.0337107889354229,0.8183462619781494,-0.5737359523773193,-0.3620341420173645,0.044767141342163086,-0.21583008766174316,0.832171330898688,-0.43931104624863115,-0.14190784376125082,0.30717878528809855
1728062626821168000,2.572168212890625,-2.619004726409912,-0.25642386078834534,0.4010353088378906,0.03605431690812111,0.8337768912315369,-0.5509229302406311,-0.3370797038078308,0.13926082849502563,-0.2688401937484741,0.8251083446055262,-0.45073098213606794,-0.14621942174484617,0.3076647247041707
1728062626831198200,2.5821982421875,-2.231172800064087,-0.19067229330539703,0.3009646236896515,0.037774164229631424,0.8468394875526428,-0.5305055379867554,-0.29859262704849243,0.21607255935668945,-0.29012739658355713,0.8188378074849506,-0.4606661015841983,-0.15011324115581373,0.3078270328276771
1728062626841228300,2.592228271484375,-1.905932068824768,-0.07144762575626373,0.18076419830322266,0.039142072200775146,0.8575440049171448,-0.5129193663597107,-0.27176228165626526,0.24346923828125,-0.30370044708251953,0.813550143327488,-0.4690888929690866,-0.1532838038710197,0.30756451355014935
1728062626851259100,2.602259033203125,-1.6252799034118652,0.028344744816422462,0.029299302026629448,0.040000174194574356,0.8664551973342896,-0.4976499378681183,-0.27103346586227417,0.22132861614227295,-0.2831270098686218,0.8091870205112484,-0.47634011739708937,-0.1558047799670587,0.3066617485468799
1728062626861289200,2.612289306640625,-1.4032509326934814,0.04109169915318489,-0.07897284626960754,0.039903733879327774,0.8739025592803955,-0.48446059226989746,-0.2705098092556,0.148024320602417,-0.20331403613090515,0.8056341385629583,-0.48248282235161766,-0.15805072433751494,0.3052604544014557
1728062626871320300,2.6223203125,-1.2107526063919067,0.0067734066396951675,-0.07578317821025848,0.03928503394126892,0.8802488446235657,-0.4728832244873047,-0.24828463792800903,0.06385815143585205,-0.06871220469474792,0.8025876127644169,-0.4877587783832247,-0.16015542880647385,0.30380033388423516
1728062626881350400,2.632350341796875,-0.7785670757293701,-0.07717278599739075,-0.045945651829242706,0.03858346492052078,0.8850260972976685,-0.4639398455619812,-0.194589301943779,0.026045680046081543,-0.008319646120071411,0.8001652202216184,-0.49172190078897543,-0.16198658996032217,0.3028292369729455
1728062626891380200,2.642380126953125,-0.214002788066864,-0.09521011263132095,-0.043218839913606644,0.037741925567388535,0.8873637318611145,-0.4595228433609009,-0.14401938021183014,0.044200599193573,-0.06244981288909912,0.7989151669659188,-0.4935479677221675,-0.16324514161702425,0.3024832284178063
1728062626901411300,2.652411376953125,0.3994136154651642,-0.034855958074331284,-0.06581415981054306,0.03694229573011398,0.8869826197624207,-0.4603230059146881,-0.10394361615180969,0.12591111660003662,-0.205585777759552,0.7991615390998428,-0.49305328052646924,-0.16351438523512257,0.302493789076041
1728062626911441400,2.66244140625,0.9386286735534668,0.04310249164700508,-0.10596584528684616,0.03617844358086586,0.8838356137275696,-0.46639660000801086,-0.06437668204307556,0.19189375638961792,-0.29579514265060425,0.8009814034991666,-0.4902405017289165,-0.16268356990578417,0.3026998712674112
1728062626921472300,2.67247216796875,1.2237484455108643,0.0683254525065422,-0.0641973540186882,0.0356481671333313,0.8787097930908203,-0.4760236144065857,-0.018741395324468613,0.19393742084503174,-0.3487597107887268,0.8038473039620082,-0.48586731687060714,-0.16100042216303495,0.30305359799665266
1728062626931502300,2.68250244140625,1.2995105981826782,0.07369758188724518,0.026823630556464195,0.03582073003053665,0.8725273013114929,-0.48725053668022156,0.019477132707834244,0.12652671337127686,-0.28661417961120605,0.8070279471246228,-0.48077867937581764,-0.1588288228308366,0.30386052947688635
1728062626941532200,2.6925322265625,1.0244544744491577,0.09301880747079849,0.05811204016208649,0.036662325263023376,0.866676926612854,-0.49752089381217957,0.04631499573588371,-0.01644188165664673,-0.18468427658081055,0.8098634457745513,-0.47616251516636543,-0.1565529045464407,0.3047649331735821
1728062626951563300,2.702563232421875,0.5707772374153137,0.05198216438293457,0.0542624406516552,0.037510551512241364,0.8626233339309692,-0.5044540762901306,0.015345893800258636,-0.14863407611846924,-0.06543111801147461,0.8117470390331135,-0.47305479456801747,-0.15489392735916171,0.3054402258495539
1728062626961593000,2.712593017578125,0.11433561146259308,-0.025377020239830017,0.05639083683490753,0.038065459579229355,0.860909640789032,-0.5073318481445312,-0.012812148779630661,-0.23417013883590698,0.053123533725738525,0.8124689069450581,-0.471764489464814,-0.15418282299032346,0.3058760933578536
1728062626971623200,2.722623046875,-0.17655855417251587,-0.11567336320877075,0.04441487044095993,0.038135115057229996,0.8611009120941162,-0.5070019960403442,-0.0030703991651535034,-0.2554795742034912,0.05669987201690674,0.81223159526359,-0.4718584667353829,-0.15442988888581735,0.30623672745773073
1728062626981654300,2.732654296875,-0.28517431020736694,-0.11971630901098251,0.03219415619969368,0.03780551254749298,0.8623456954956055,-0.5049065947532654,0.019567545503377914,-0.19147777557373047,0.01111692190170288,0.8114998447615358,-0.47270673391762624,-0.15522581977614888,0.306465877607641
1728062626991684000,2.74268408203125,-0.22116070985794067,-0.08193297684192657,0.04976676031947136,0.03759358450770378,0.8636257648468018,-0.5027298927307129,0.02446393296122551,-0.06995511054992676,-0.02397298812866211,0.810754282318243,-0.47361589333715565,-0.1559584204877546,0.3066635867667742
1728062627001715200,2.752715087890625,-0.16542160511016846,-0.028859902173280716,0.05122696980834007,0.03772155940532684,0.8645754456520081,-0.5010853409767151,0.023374658077955246,0.02842998504638672,-0.05463969707489014,0.8101752278665405,-0.474345098505741,-0.1563779412051723,0.30685320711983466
1728062627011745300,2.762745361328125,-0.08640588074922562,0.016589337959885597,0.043905142694711685,0.03811940178275108,0.8652036190032959,-0.4999696910381317,0.007779058068990707,0.0970308780670166,-0.0451962947845459,0.809801019995495,-0.4749047751765376,-0.15646281254439331,0.30693194355203146
1728062627021775400,2.772775390625,0.025246212258934975,-0.1431403011083603,0.025027325376868248,0.03818170353770256,0.865319013595581,-0.49976518750190735,0.0017810873687267303,0.11423420906066895,-0.017446696758270264,0.8096450068630919,-0.4749607836822799,-0.15661946288873033,0.307176976886493
1728062627031806200,2.78280615234375,0.03345514088869095,0.001459228340536356,-0.007898399606347084,0.03774067386984825,0.8651629090309143,-0.500068724155426,0.028207842260599136,0.1021375060081482,-0.0120009183883667,0.8096320142780192,-0.47468977508959287,-0.15695622212091856,0.30745789520817457
1728062627041836300,2.792836181640625,0.12611623108386993,0.12072496116161346,-0.013338171876966953,0.03800906985998154,0.8648075461387634,-0.5006628036499023,0.016815781593322754,0.09744220972061157,-0.042931556701660156,0.8098851262567746,-0.4745062835261335,-0.15656428844292383,0.30727437830329174
1728062627051867100,2.8028671875,0.18456223607063293,0.11831533163785934,-0.04351392015814781,0.038385797291994095,0.8640081882476807,-0.5020123720169067,0.008046716451644897,0.08241820335388184,-0.02626216411590576,0.8104040833390959,-0.4740176032606653,-0.15588816439978465,0.30700400749596984
1728062627061897200,2.812897216796875,0.16719743609428406,0.0677916407585144,-0.09131792932748795,0.03821259364485741,0.8631337881088257,-0.5035275220870972,0.03905792161822319,0.07609045505523682,0.005465388298034668,0.8110052489547922,-0.4733693258598584,-0.15542753721700983,0.30665029965813684
1728062627071927300,2.82292724609375,0.1696518063545227,0.0914439782500267,-0.08361659944057465,0.03781091794371605,0.8623403310775757,-0.5049153566360474,0.044815436005592346,0.08368933200836182,0.06234943866729736,0.811597503480551,-0.47275180948955703,-0.15507430255237625,0.3062143255604847
1728062627081958400,2.83295849609375,0.20423007011413574,0.09370744973421097,-0.045159485191106796,0.03771582245826721,0.8613927364349365,-0.5065373182296753,0.05192958936095238,0.0613977313041687,0.08566945791244507,0.8122199533924819,-0.4720607827816562,-0.15456376867454996,0.3058879152087786
1728062627091988200,2.84298828125,0.09144307672977448,0.08724316209554672,-0.06239466741681099,0.03773833066225052,0.8606321215629578,-0.5078269839286804,0.059505950659513474,0.026483476161956787,0.07205122709274292,0.8127324450408312,-0.47153662678370684,-0.15407694153694915,0.30558070319552566
1728062627102019300,2.853019287109375,-0.09165317565202713,0.06765907257795334,-0.09833163022994995,0.037392232567071915,0.86064612865448,-0.5078288316726685,0.045783430337905884,0.02695763111114502,0.08426010608673096,0.8129312336438815,-0.4715738709545253,-0.1539599571275188,0.3050528941809555
1728062627112049400,2.86304931640625,-0.22974739968776703,0.035872649401426315,-0.059045206755399704,0.03695307672023773,0.8615067601203918,-0.5063997507095337,0.03824225440621376,0.03844141960144043,0.11908590793609619,0.8127119470949434,-0.47225690131787584,-0.15418673581442258,0.30446551391902704
1728062627122079200,2.873079345703125,-0.3509654402732849,0.011283043771982193,-0.013003945350646973,0.03673864156007767,0.8630053997039795,-0.5038569569587708,0.06380154192447662,0.026688754558563232,0.11167562007904053,0.8120843318311732,-0.4734517698891107,-0.15464461482334432,0.30405164672167134
1728062627132110300,2.8831103515625,-0.47018423676490784,0.03105008974671364,-0.018180064857006073,0.03680070489645004,0.8651440739631653,-0.5001714825630188,0.08397262543439865,0.003416776657104492,0.0910833477973938,0.8111092906996425,-0.47521230129729114,-0.15520160738718192,0.30362391318437165
1728062627142140200,2.89314013671875,-0.5302742123603821,-0.004043874330818653,-0.029738983139395714,0.037090741097927094,0.867892324924469,-0.49536585807800293,0.0704837292432785,-0.01764202117919922,0.07524561882019043,0.8098023256045234,-0.4775188307527941,-0.1558615923970797,0.30315548201113635
1728062627152171000,2.9031708984375,-0.49435853958129883,-0.028409399092197418,-0.0055657364428043365,0.037336159497499466,0.8708997964859009,-0.49004027247428894,0.055376239120960236,-0.041783034801483154,0.10431340336799622,0.8083083161702074,-0.48002673935452483,-0.1566977904307593,0.30275023327442047
1728062627162201000,2.913201171875,-0.40390175580978394,-0.05527536943554878,0.015447404235601425,0.037875909358263016,0.8736487030982971,-0.4850807785987854,0.05651497468352318,-0.06088930368423462,0.05607995390892029,0.8068365080955158,-0.4823658107338857,-0.15742563089586348,0.3025809405141665
1728062627172231700,2.923231689453125,-0.2523769438266754,-0.05664024129509926,0.01674116775393486,0.038671769201755524,0.8756220936775208,-0.4814460873603821,0.05008862540125847,-0.04516255855560303,0.025650888681411743,0.8056743208342518,-0.48410217362137703,-0.15786715698142811,0.30267453253291443
1728062627182262800,2.9332626953125,-0.07941341400146484,-0.01866484247148037,0.0000380869023501873,0.0385582260787487,0.8764018416404724,-0.48003438115119934,0.05011061951518059,-0.012098312377929688,0.013756364583969116,0.805237095377164,-0.484706195319354,-0.1582489174337857,0.3026720391841959
1728062627192292600,2.943292724609375,0.008059170097112656,-0.008700892329216003,-0.03999188914895058,0.038300350308418274,0.8765437006950378,-0.4797961115837097,0.04814070090651512,0.021710753440856934,-0.030793428421020508,0.8051968939824434,-0.4847824624028799,-0.15839161200171137,0.30258233628085673
1728062627202323700,2.95332373046875,0.003107355209067464,-0.005276598501950502,-0.041533857583999634,0.03785987198352814,0.8764996528625488,-0.4799114465713501,0.04003627970814705,0.05149412155151367,-0.006065666675567627,0.8052935316006655,-0.48468378013846514,-0.15851154029177394,0.3024203803983877
1728062627212353500,2.963353515625,-0.10566332936286926,-0.006831884849816561,-0.020852280780673027,0.0398617647588253,0.877413272857666,-0.4780764877796173,0.048761289566755295,0.054990291595458984,0.0411716103553772,0.8046346035136193,-0.48580802213818514,-0.15796305125756782,0.3026574556559222
1728062627222383600,2.973383544921875,-0.2651718556880951,-0.039383433759212494,-0.018604306504130363,0.04164374619722366,0.8787680864334106,-0.47542881965637207,0.05726373940706253,0.033814430236816406,0.06730198860168457,0.803726238985003,-0.4872495820350243,-0.15771312171602153,0.3028838870013609
1728062627232414500,2.98341455078125,-0.40676039457321167,-0.0735778883099556,-0.04372883588075638,0.04305949807167053,0.8812673091888428,-0.47065269947052,0.053971171379089355,0.012043297290802002,0.0767013430595398,0.8022338112693276,-0.48959548724449714,-0.1580186808719038,0.30289837497501
1728062627242444500,2.993444580078125,-0.45999205112457275,-0.08407372981309891,-0.046537138521671295,0.0442107692360878,0.883359968662262,-0.46660545468330383,0.04480903223156929,0.0066852569580078125,0.04679042100906372,0.8009279794871801,-0.49154606014029506,-0.15836587028275648,0.303013396620912
1728062627252474600,3.003474609375,-0.35448452830314636,-0.10113286972045898,-0.0698738843202591,0.04325206205248833,0.885307788848877,-0.46298956871032715,0.04926198348402977,0.019996166229248047,-0.013511866331100464,0.7999271364566841,-0.4930130993804206,-0.15950955013555343,0.30267359930290944
1728062627262505500,3.01350537109375,-0.2005787342786789,-0.13077720999717712,-0.07455971837043762,0.04199743643403053,0.8866156935691833,-0.46059632301330566,0.054255012422800064,0.028087735176086426,-0.05388420820236206,0.7992728871391388,-0.49387284019175876,-0.16059718380221596,0.3024254033199578
1728062627272535600,3.02353564453125,-0.04283010959625244,-0.1243286281824112,-0.032404009252786636,0.040874481201171875,0.8871883749961853,-0.45959338545799255,0.05818557366728783,0.0319705605506897,-0.04725775122642517,0.798959804463245,-0.4941028427373566,-0.16144870043559498,0.30242340311316224
1728062627282566700,3.033566650390625,0.04336037114262581,-0.12628041207790375,-0.04086407274007797,0.039950549602508545,0.8871583938598633,-0.45973244309425354,0.07349854707717896,0.013476371765136719,-0.07076984643936157,0.7989478502158244,-0.49384469479120874,-0.16202218848806418,0.30256992712338493
1728062627292596500,3.043596435546875,0.0337895005941391,-0.14273954927921295,-0.03145112842321396,0.038903698325157166,0.8869674801826477,-0.46019044518470764,0.06624462455511093,-0.02185511589050293,-0.04994136095046997,0.7990167206295621,-0.49341545953815263,-0.16262214701593647,0.3027664857244988
1728062627302626600,3.05362646484375,-0.011307669803500175,-0.14665870368480682,0.024224383756518364,0.038142766803503036,0.8869075179100037,-0.460369735956192,0.056629590690135956,-0.05046647787094116,0.017910659313201904,0.79894158243,-0.49312769676086005,-0.16321829635401233,0.3031127001111112
1728062627312657700,3.06365771484375,-0.07908698171377182,-0.13730327785015106,0.04935024306178093,0.039245784282684326,0.8877114057540894,-0.4587247371673584,0.05821212753653526,-0.07890403270721436,0.0246732234954834,0.7981696002424634,-0.49390163914169827,-0.16339766671005565,0.3037891166540003
1728062627322687700,3.073687744140625,-0.17225147783756256,-0.12323897331953049,0.058395400643348694,0.04023800417780876,0.88861483335495,-0.45688596367836,0.041945841163396835,-0.0926247239112854,0.0411754846572876,0.7973563565730769,-0.4947479858485363,-0.16365040214530058,0.30441092040779677
1728062627332718600,3.083718505859375,-0.1684407740831375,-0.11934489756822586,0.056719206273555756,0.041213247925043106,0.889252781867981,-0.4555557072162628,0.026230614632368088,-0.08914291858673096,0.052494823932647705,0.7966861977594016,-0.4953629680802666,-0.16382210687592852,0.3050721307851486
1728062627342748700,3.093748779296875,-0.172591432929039,-0.12663620710372925,0.032234638929367065,0.041879214346408844,0.8896675109863281,-0.45468443632125854,0.026785362511873245,-0.08679574728012085,0.027224719524383545,0.7961770611796096,-0.4957327467204239,-0.16403298783657763,0.30568670449068996
1728062627352778800,3.10377880859375,-0.18672563135623932,-0.11089426279067993,0.02474956028163433,0.04238300770521164,0.8902286887168884,-0.45353779196739197,0.022039607167243958,-0.07066386938095093,0.024842143058776855,0.7956258151628581,-0.4962140932113539,-0.16432491110791786,0.30618365764105865
1728062627362809600,3.1138095703125,-0.1694689393043518,-0.10919633507728577,0.015185082331299782,0.043134745210409164,0.890500009059906,-0.4529341757297516,0.023408852517604828,-0.05764472484588623,0.016899049282073975,0.7952160033544942,-0.49649287974349277,-0.16440115048536103,0.3067552514777268
1728062627372839700,3.123839599609375,-0.2005525529384613,-0.09023436158895493,0.03287885710597038,0.04398282989859581,0.8907436728477478,-0.45237287878990173,0.010719943791627884,-0.0633663535118103,0.03142869472503662,0.7948174977867347,-0.4967704201550726,-0.1644162778860529,0.307329792431165
1728062627382870800,3.133870849609375,-0.20966322720050812,-0.06969287246465683,0.06486981362104416,0.045146893709897995,0.8914746642112732,-0.4508155584335327,-0.009654931724071503,-0.06161016225814819,0.05527728796005249,0.7941264528434787,-0.4975422426892227,-0.16445039511805576,0.3078489463408148
1728062627392900400,3.143900390625,-0.21174901723861694,-0.0400092788040638,0.05283046141266823,0.046467605978250504,0.8921470046043396,-0.4493488669395447,-0.018864426761865616,-0.06382369995117188,0.044029682874679565,0.7934675111414189,-0.498305364085342,-0.1643694928027505,0.3083564129043408
1728062627402930400,3.153930419921875,-0.2583812475204468,-0.04613833129405975,0.005554559174925089,0.04720616340637207,0.8930439352989197,-0.44748666882514954,-0.030360441654920578,-0.06456786394119263,0.02443671226501465,0.7928011195639124,-0.49919080798873955,-0.16451506720785442,0.30856099304157436
1728062627412961500,3.16396142578125,-0.3120838701725006,-0.065322145819664,0.014354975894093513,0.047311171889305115,0.8942988514900208,-0.4449620544910431,-0.036065444350242615,-0.04819899797439575,0.024307817220687866,0.7920007215941118,-0.5002790126701885,-0.16504509909953194,0.3085706580241801
1728062627422991600,3.17399169921875,-0.2734217047691345,-0.061788395047187805,0.0441829115152359,0.04759363830089569,0.8954752683639526,-0.4425594210624695,-0.021287471055984497,-0.03182786703109741,0.02654382586479187,0.7911923885085098,-0.501320993677467,-0.16552207665492513,0.3086976771154018
1728062627433022500,3.1840224609375,-0.2026631236076355,-0.0586240291595459,0.0458066388964653,0.047932542860507965,0.8964044451713562,-0.440637469291687,-0.0047501735389232635,-0.026317834854125977,-0.0277310311794281,0.7905048455200558,-0.5021517712587364,-0.16590618501042353,0.30890245586543547
1728062627443052500,3.194052490234375,-0.14162273705005646,-0.035556524991989136,0.05928196758031845,0.04835469648241997,0.8970235586166382,-0.4393298327922821,-0.013518862426280975,-0.012868225574493408,-0.025849580764770508,0.7899965149562145,-0.5027297802728292,-0.16612601697616314,0.3091448496023291
1728062627453082600,3.20408251953125,-0.14602281153202057,-0.016522116959095,0.12474433332681656,0.049117255955934525,0.8975350856781006,-0.4381990134716034,-0.031981632113456726,0.006517648696899414,0.01951313018798828,0.7895040820520681,-0.5032743829991686,-0.16617878638571795,0.3094881521935302
1728062627463113500,3.214113525390625,-0.23112212121486664,0.02946566790342331,0.1997583955526352,0.0505547896027565,0.8983036279678345,-0.4364571273326874,-0.04413082078099251,0.006252646446228027,0.060694217681884766,0.7887727200938792,-0.5041755922889841,-0.16606750373663048,0.30994541253214947
1728062627473143600,3.2241435546875,-0.3463057279586792,0.07139287889003754,0.22588320076465607,0.05253501981496811,0.899439811706543,-0.4338756799697876,-0.058318089693784714,-0.007349967956542969,0.062369972467422485,0.7877790417377822,-0.5055293173454249,-0.16583809361814897,0.31039007904615945
1728062627483173600,3.234173583984375,-0.4685676395893097,0.09538944810628891,0.23056425154209137,0.054627012461423874,0.9010016322135925,-0.4303627610206604,-0.07569938898086548,-0.015778183937072754,0.0553932785987854,0.7865513600967521,-0.5073224504518223,-0.1656579413856462,0.310674178939733
1728062627493204500,3.24420458984375,-0.563694417476654,0.12614843249320984,0.2283647358417511,0.05668838322162628,0.9030545949935913,-0.42576852440834045,-0.07126051187515259,-0.005059599876403809,0.03135940432548523,0.7850527384116711,-0.5095935288593465,-0.16562058460887977,0.31076745618317636
1728062627503234600,3.254234619140625,-0.5450841784477234,0.11047956347465515,0.24129891395568848,0.05926426500082016,0.9053024649620056,-0.42061305046081543,-0.05064304918050766,0.03296053409576416,-0.033854663372039795,0.7833589098749424,-0.5121743545821104,-0.16544152851363392,0.3108945749755804
1728062627513265700,3.264265625,-0.43005746603012085,0.1049116924405098,0.2615325450897217,0.06192227452993393,0.9072080850601196,-0.41610005497932434,-0.015550799667835236,0.07078880071640015,-0.08919471502304077,0.7818035903848886,-0.5144604248340883,-0.16516793302986754,0.31118043905034376
1728062627523295700,3.274295654296875,-0.3960331082344055,0.09649796783924103,0.2814039885997772,0.06477300077676773,0.9087184071540833,-0.41235336661338806,0.02027948945760727,0.09982651472091675,-0.12525951862335205,0.7804236909991016,-0.5164223435518824,-0.16471577534195656,0.31163367773838224
1728062627533325600,3.28432568359375,-0.43581461906433105,0.07172950357198715,0.2894318103790283,0.0676785409450531,0.91021728515625,-0.4085635244846344,0.028238214552402496,0.102020263671875,-0.12141996622085571,0.778988749619162,-0.5183841969434445,-0.16430478794334671,0.31218323121682223
1728062627543356700,3.294356689453125,-0.5531066656112671,0.05116814002394676,0.30395081639289856,0.07057759910821915,0.9120041728019714,-0.40406328439712524,0.013940848410129547,0.06469565629959106,-0.09003150463104248,0.7773101489332732,-0.5206205395147058,-0.164081093074503,0.3127627231724282
1728062627553386800,3.30438671875,-0.7508048415184021,0.020813697949051857,0.3402595818042755,0.07360020279884338,0.9143880009651184,-0.3980925679206848,-0.005561240017414093,0.003351867198944092,-0.050866782665252686,0.7751453299667138,-0.5234610817385148,-0.16414084652128882,0.3133625765296799
1728062627563417600,3.31441748046875,-0.8985077142715454,-0.02691052109003067,0.3831130266189575,0.07683222740888596,0.917391836643219,-0.3904986083507538,-0.018375791609287262,-0.05369848012924194,-0.028660356998443604,0.7724043343688692,-0.5269534991975078,-0.16453175556664432,0.314071650910265
1728062627573447400,3.324447509765625,-0.9806241393089294,-0.05892438068985939,0.42519816756248474,0.08032190054655075,0.9207314252853394,-0.3818405866622925,-0.02340659499168396,-0.09924393892288208,-0.04886925220489502,0.7692366999334966,-0.5308556274380332,-0.16514237699020737,0.314952914214743
1728062627583477500,3.3344775390625,-1.0150047540664673,-0.08472401648759842,0.4388444721698761,0.08400886505842209,0.9241582751274109,-0.3726579248905182,-0.029382385313510895,-0.11882996559143066,-0.06317880749702454,0.7658261718947725,-0.5349397069473175,-0.165863032256219,0.31597333343677714
1728062627593508600,3.344508544921875,-0.9941802024841309,-0.11802658438682556,0.4398671090602875,0.08763021230697632,0.9275131821632385,-0.36337345838546753,-0.03781026601791382,-0.10329443216323853,-0.07884150743484497,0.7623377838138533,-0.5390030594369195,-0.16670026741207195,0.31706131500032514
1728062627603538400,3.354538330078125,-0.8913535475730896,-0.12580226361751556,0.4527645409107208,0.09126341342926025,0.9305168986320496,-0.35469627380371094,-0.04499875754117966,-0.07567369937896729,-0.07032197713851929,0.7589717968295102,-0.5427669781309026,-0.16749884767422699,0.3182924046503457
1728062627613569500,3.364569580078125,-0.8096845149993896,-0.10222716629505157,0.44685977697372437,0.09501770883798599,0.93308025598526,-0.3468904197216034,-0.052689820528030396,-0.05501323938369751,-0.06270122528076172,0.7558506693927796,-0.546173270757019,-0.16807601083131818,0.31958579892731104
1728062627623599600,3.374599609375,-0.7853549122810364,-0.07935976982116699,0.4177796542644501,0.09867367893457413,0.935400128364563,-0.3395441770553589,-0.07009395956993103,-0.02676975727081299,-0.05019581317901611,0.7529117779758149,-0.549385111194411,-0.16853460073924045,0.32077412140907197
1728062627633629400,3.38462939453125,-0.7403799891471863,-0.0872589722275734,0.42216747999191284,0.10225625336170197,0.9375625848770142,-0.33244550228118896,-0.08939307183027267,0.0051253437995910645,-0.008740991353988647,0.750063444283131,-0.5524796298443373,-0.16894824421623525,0.3219123726936042
1728062627643660500,3.39466064453125,-0.69893479347229,-0.0881216824054718,0.44124531745910645,0.10595765709877014,0.9394909739494324,-0.3257754445075989,-0.08923400193452835,0.017326653003692627,0.017074942588806152,0.7473021681574732,-0.5553912509851169,-0.16927146753356,0.32315194634585054
1728062627653690600,3.404690673828125,-0.6851092576980591,-0.09194464981555939,0.4492079019546509,0.10979577898979187,0.9412420392036438,-0.3193870186805725,-0.08052942901849747,0.012081146240234375,0.026250481605529785,0.7445909404397679,-0.5581875349119912,-0.16950859961001102,0.3244652509526142
1728062627663721500,3.414721435546875,-0.6922345757484436,-0.08983014523983002,0.4371403157711029,0.11361861228942871,0.9429362416267395,-0.312989205121994,-0.07579205185174942,0.0044972896575927734,0.021531105041503906,0.7418701650977237,-0.560971241584866,-0.1697547229994075,0.3257658431938514
1728062627673751600,3.42475146484375,-0.6879575252532959,-0.13399149477481842,0.3995724320411682,0.11717340350151062,0.9446014761924744,-0.3065916895866394,-0.06227227300405502,-0.010199010372161865,-0.01507878303527832,0.7391600917924498,-0.5637025430303221,-0.17012819186858055,0.32701408783971286
1728062627683781600,3.43478173828125,-0.6967278122901917,-0.21441607177257538,0.38532185554504395,0.12025854736566544,0.9462623000144958,-0.30020928382873535,-0.041309550404548645,-0.02731698751449585,-0.03469055891036987,0.7364128371593992,-0.5663120369233104,-0.1708391939730061,0.32833038678478066
1728062627693812700,3.444812744140625,-0.6724893450737,-0.2606983482837677,0.38165122270584106,0.12307405471801758,0.9478341937065125,-0.2940460443496704,-0.009838558733463287,-0.03471779823303223,-0.03319385647773743,0.7336421281316302,-0.5687320537799726,-0.17181626616061685,0.3298366559218955
1728062627703842600,3.454842529296875,-0.6512371301651001,-0.1886148899793625,0.31908875703811646,0.12574735283851624,0.9493376612663269,-0.28800252079963684,0.01486237347126007,-0.04101252555847168,-0.07045689225196838,0.730976671368161,-0.5711073249925847,-0.17272857786904014,0.33117109688548685
1728062627713872600,3.46487255859375,-0.6355007886886597,-0.1948584020137787,0.2494519203901291,0.12778906524181366,0.9508079290390015,-0.28219521045684814,-0.01391272246837616,-0.035402655601501465,-0.10495072603225708,0.728529631504893,-0.5733452363055049,-0.17371710161731788,0.33217785600350275
1728062627723903700,3.47490380859375,-0.6535243391990662,-0.20131509006023407,0.25806429982185364,0.12955866754055023,0.9523123502731323,-0.2762531042098999,-0.06577691435813904,-0.013301730155944824,0.0318835973739624,0.7260843885528929,-0.5755987833254499,-0.1748127402474532,0.33305861449516244
1728062627733933600,3.48493359375,-0.5208613872528076,-0.19442415237426758,0.2873324453830719,0.13154685497283936,0.9535923600196838,-0.27084487676620483,-0.07907186448574066,0.030309557914733887,0.09066912531852722,0.7237379651941556,-0.5776483475684643,-0.17578382684898589,0.3341043996512292
1728062627743964700,3.494964599609375,-0.387273371219635,-0.13917958736419678,0.2782963216304779,0.13376453518867493,0.9544399380683899,-0.26674196124076843,-0.07549120485782623,0.05054962635040283,0.05943611264228821,0.7218065525336589,-0.5792501112482248,-0.1763471719027851,0.33521065942709904
1728062627753994800,3.504994873046875,-0.2917124927043915,-0.09131326526403427,0.24505476653575897,0.13587886095046997,0.9549897313117981,-0.26368898153305054,-0.07269217073917389,0.04673469066619873,-0.0006543099880218506,0.7203054491297277,-0.5804920087517857,-0.17659145532719828,0.3361617628178333
1728062627764024600,3.515024658203125,-0.2602520287036896,-0.11445970833301544,0.24443159997463226,0.137873575091362,0.9553759098052979,-0.2612428069114685,-0.05228699743747711,0.012229740619659424,-0.05470561981201172,0.7190312378834322,-0.581504209748792,-0.17672423430767964,0.33706897923898765
1728062627774055400,3.525055419921875,-0.3145773410797119,-0.2044801414012909,0.27576154470443726,0.13988134264945984,0.9557575583457947,-0.25876760482788086,-0.005085185170173645,-0.04676097631454468,-0.08984994888305664,0.7176416567909227,-0.5824731192471202,-0.1770346315177518,0.33819260088455105
1728062627784085500,3.53508544921875,-0.45079830288887024,-0.31133419275283813,0.33859163522720337,0.1420682817697525,0.9563187956809998,-0.2554818391799927,0.04266989231109619,-0.09837812185287476,-0.09678250551223755,0.7157863816110779,-0.5836639177025048,-0.17775124528118072,0.3396921706543201
1728062627794116600,3.54511669921875,-0.5745761394500732,-0.42948055267333984,0.40330246090888977,0.14461547136306763,0.9571043848991394,-0.2510729432106018,0.06575748324394226,-0.1224791407585144,-0.10409057140350342,0.7133271689699356,-0.585202756898339,-0.1788889562131245,0.3416150774677876
1728062627804146400,3.555146484375,-0.6623954176902771,-0.5052737593650818,0.4559968113899231,0.1475197821855545,0.9580273628234863,-0.2458081990480423,0.061373040080070496,-0.13623476028442383,-0.10816514492034912,0.7103428523999537,-0.5869848443911545,-0.18040147836509587,0.3439727563353639
1728062627814176500,3.565176513671875,-0.6851816773414612,-0.4815937280654907,0.4852396547794342,0.15079587697982788,0.9589847326278687,-0.2400187999010086,0.03139409422874451,-0.1487429141998291,-0.1208668053150177,0.7070752434315299,-0.5889614318956804,-0.181975363494063,0.34648823951408675
1728062627824207600,3.57520751953125,-0.6310665011405945,-0.4698251485824585,0.4819954037666321,0.1542578935623169,0.9598202109336853,-0.23441335558891296,-0.01851572096347809,-0.15153169631958008,-0.16191838681697845,0.703857216996666,-0.5908963577014358,-0.18339797460265753,0.34898664378528027
1728062627834237700,3.58523779296875,-0.6231585144996643,-0.469709575176239,0.5044863224029541,0.15782959759235382,0.9605172276496887,-0.229121133685112,-0.06748232245445251,-0.14256983995437622,-0.1452227085828781,0.7007238797208185,-0.5927269265797589,-0.1847003672070064,0.35149197564479323
1728062627844268500,3.5952685546875,-0.5707911849021912,-0.5455932021141052,0.5597463846206665,0.16173575818538666,0.9610443711280823,-0.22413212060928345,-0.08196280896663666,-0.10528576374053955,-0.12074699997901917,0.6975334142406103,-0.5944293700850628,-0.18597758588462035,0.35427835991813145
1728062627854298600,3.605298583984375,-0.4447248876094818,-0.6443729996681213,0.5964918732643127,0.1659165769815445,0.9612380862236023,-0.22021138668060303,-0.0661393404006958,-0.0808669924736023,-0.09538613259792328,0.6944301791529404,-0.5956699551993839,-0.1872741612151889,0.3575925114541754
1728062627864328700,3.61532861328125,-0.3380644917488098,-0.723505973815918,0.6241903305053711,0.1702459305524826,0.9610695242881775,-0.2176274210214615,-0.05455377697944641,-0.08838886022567749,-0.10189156234264374,0.6915335612959972,-0.5963525382721194,-0.18854690882316577,0.3613793292092699
1728062627874359600,3.625359619140625,-0.3028801381587982,-0.8027880191802979,0.6633909940719604,0.1747043877840042,0.9606615304946899,-0.215888112783432,-0.05522805452346802,-0.09490841627120972,-0.12155996263027191,0.6886967658902131,-0.596659413117917,-0.18987755273250256,0.36556910668867243
1728062627884389600,3.6353896484375,-0.3295864462852478,-0.8158861994743347,0.697482168674469,0.17946141958236694,0.9601312875747681,-0.214339479804039,-0.05316443741321564,-0.09283703565597534,-0.1311194747686386,0.6857356365370095,-0.5968725080275579,-0.1912419141201853,0.37004905688355527
1728062627894420700,3.645420654296875,-0.41537725925445557,-0.8083270788192749,0.710261881351471,0.18445448577404022,0.9596448540687561,-0.21226926147937775,-0.04520277678966522,-0.07977735996246338,-0.18685482442378998,0.6825425210436096,-0.5972943646735221,-0.19262609394600572,0.3745267970554619
1728062627904450600,3.655450439453125,-0.5633768439292908,-0.782879114151001,0.7169807553291321,0.18957839906215668,0.9593481421470642,-0.20907273888587952,-0.0513337105512619,-0.05939990282058716,-0.21692213416099548,0.6789722863737854,-0.5981392383416183,-0.19414705692551595,0.37885772150253144
1728062627914480600,3.665480712890625,-0.5790021419525146,-0.7735921144485474,0.7796358466148376,0.19504986703395844,0.9591352343559265,-0.2049766182899475,-0.05251745879650116,-0.05091673135757446,-0.21102377772331238,0.6750665034539214,-0.5993523122282528,-0.19567446428128432,0.38311057098622575
1728062627924511700,3.67551171875,-0.53670334815979,-0.7833389043807983,0.8835194110870361,0.2013932168483734,0.9586243033409119,-0.2011968344449997,-0.050422728061676025,-0.07265323400497437,-0.2049158215522766,0.6710300431585883,-0.6005238871659337,-0.19690769977014955,0.3877074591621479
1728062627934541800,3.685541748046875,-0.5072849988937378,-0.7725770473480225,0.9650395512580872,0.20868177711963654,0.9577757716178894,-0.19778162240982056,-0.04591625928878784,-0.11027204990386963,-0.14329802989959717,0.666885563565409,-0.6016626762663638,-0.1977655493093083,0.39262512240129666
1728062627944571400,3.6955712890625,-0.492814838886261,-0.7642388343811035,1.0331544876098633,0.21670617163181305,0.956637978553772,-0.1946340650320053,-0.07632528245449066,-0.14824247360229492,-0.06282749772071838,0.6626467189278514,-0.6027878044617371,-0.1983174904139604,0.39776438809972364
1728062627954602500,3.7056025390625,-0.44988468289375305,-0.738727331161499,1.1126503944396973,0.22547867894172668,0.9551939368247986,-0.19173885881900787,-0.1158442497253418,-0.19002676010131836,-0.01755063235759735,0.6583107696322081,-0.6039132243610934,-0.1985431694919906,0.403108315672791
1728062627964632600,3.715632568359375,-0.36493146419525146,-0.678276538848877,1.1796832084655762,0.23506128787994385,0.9533257484436035,-0.18951603770256042,-0.15081749856472015,-0.23411798477172852,-0.0060100555419921875,0.6540507750086255,-0.6049314398194963,-0.19824211188065924,0.40862655501141637
1728062627974663400,3.725663330078125,-0.37323200702667236,-0.5826764702796936,1.2193161249160767,0.24527756869792938,0.9511339664459229,-0.1875712275505066,-0.18524950742721558,-0.2634357213973999,-0.02316787838935852,0.6498557867401239,-0.605999630934502,-0.19743057457633847,0.4140929622653225
1728062627984693500,3.735693603515625,-0.37338605523109436,-0.4971331059932709,1.2518055438995361,0.25596609711647034,0.9487550854682922,-0.1853240579366684,-0.22450247406959534,-0.2474154233932495,-0.024270638823509216,0.6456025713729889,-0.6073104379397992,-0.19624474772115189,0.4193558069980439
1728062627994723600,3.7457236328125,-0.2682386040687561,-0.42470312118530273,1.2732791900634766,0.2670726180076599,0.9460603594779968,-0.18341827392578125,-0.24751082062721252,-0.22044378519058228,-0.032676711678504944,0.6414904184280698,-0.6086271659852772,-0.1945863229742084,0.42449891496643055
1728062628004754400,3.75575439453125,-0.08804945647716522,-0.33047449588775635,1.2908052206039429,0.27846336364746094,0.9428999423980713,-0.18275095522403717,-0.25725358724594116,-0.2051527500152588,-0.08421677350997925,0.6378360427559108,-0.6096282335086847,-0.19229648735413174,0.4295819832989476
1728062628014784500,3.765784423828125,0.1586567461490631,-0.23525370657444,1.3442844152450562,0.2903044521808624,0.9391059875488281,-0.18385720252990723,-0.26267072558403015,-0.19256961345672607,-0.11135454475879669,0.6348205119388132,-0.6101648922563196,-0.18913011335524535,0.4346626767717191
1728062628024815600,3.775815673828125,0.49155527353286743,-0.14784178137779236,1.4549590349197388,0.30303922295570374,0.9343639612197876,-0.1874331533908844,-0.25828519463539124,-0.1749492883682251,-0.11748319864273071,0.6325655911822717,-0.6100351511501346,-0.18477157561776011,0.4399742434139252
1728062628034845700,3.785845703125,0.8733691573143005,-0.08518719673156738,1.5908331871032715,0.31698527932167053,0.9283404350280762,-0.19417603313922882,-0.24848857522010803,-0.16323423385620117,-0.1259227842092514,0.6311769355853475,-0.6089948644856154,-0.17898950077983922,0.44576185315165623
1728062628044875500,3.79587548828125,1.2684130668640137,-0.021014921367168427,1.6953997611999512,0.33208632469177246,0.9208597540855408,-0.20429351925849915,-0.25092482566833496,-0.16937977075576782,-0.11772790551185608,0.6307020672696826,-0.6069221715435653,-0.17175191201371204,0.4520636493929831
1728062628054906600,3.80590673828125,1.5955965518951416,0.06373858451843262,1.7765252590179443,0.3480224013328552,0.9119185209274292,-0.2174510955810547,-0.2830962538719177,-0.19615930318832397,-0.06443969905376434,0.6311333761193909,-0.6038653416064937,-0.16315974443066514,0.4586896178796474
1728062628064936700,3.815936767578125,1.8166112899780273,0.18372586369514465,1.8578907251358032,0.36479076743125916,0.9015658497810364,-0.23260846734046936,-0.33126717805862427,-0.23648101091384888,0.002124488353729248,0.6321993319888338,-0.6001541970905563,-0.15333202282255326,0.465433360406865
1728062628074967600,3.825967529296875,1.883580207824707,0.3305451571941376,1.907129168510437,0.3823075294494629,0.8900190591812134,-0.24840866029262543,-0.3715653419494629,-0.27284687757492065,0.048976317048072815,0.6335558958188934,-0.5962287172814833,-0.14250258824586087,0.4720287770965756
1728062628084997600,3.83599755859375,1.7691069841384888,0.49599677324295044,1.9237914085388184,0.40034234523773193,0.8777918815612793,-0.26307299733161926,-0.40696462988853455,-0.2942042350769043,0.08141714334487915,0.634752378427618,-0.5926843138571107,-0.13110608557971143,0.47814843211220115
1728062628095027700,3.84602783203125,1.5206800699234009,0.630287766456604,1.8922748565673828,0.41853323578834534,0.8655047416687012,-0.2751934826374054,-0.41955554485321045,-0.29284238815307617,0.09280520677566528,0.6354083603701577,-0.589984746941922,-0.11967145961956818,0.4835834486377562
1728062628105058600,3.85605859375,1.204006552696228,0.7140339612960815,1.8502676486968994,0.43651676177978516,0.8536784052848816,-0.2840532660484314,-0.39276984333992004,-0.2613474726676941,0.09559205174446106,0.6352744547841273,-0.5883544380059649,-0.10868493993702888,0.48831645098410814
1728062628115088600,3.866088623046875,0.9773009419441223,0.7463357448577881,1.8449828624725342,0.45428407192230225,0.8423450589179993,-0.2899669110774994,-0.33100831508636475,-0.19592171907424927,0.11339223384857178,0.6343161802115064,-0.587674268749625,-0.09826240633082482,0.49257129534229904
1728062628125119700,3.87611962890625,0.9028646945953369,0.7893055081367493,1.8962801694869995,0.4721751809120178,0.8309391140937805,-0.29426324367523193,-0.24243882298469543,-0.10364419221878052,0.08659112453460693,0.632781217809798,-0.5874663845557244,-0.08804328584870187,0.4967088204766649
1728062628135149600,3.886149658203125,1.0082930326461792,0.7513229846954346,1.968718409538269,0.49043819308280945,0.8188220858573914,-0.29832983016967773,-0.15537044405937195,0.002100706100463867,0.014409571886062622,0.6310661106512842,-0.5872167505324364,-0.07753431988576509,0.500919595204815
1728062628145179400,3.896179443359375,1.2465375661849976,0.68573397397995,2.0309081077575684,0.5088608264923096,0.8054224848747253,-0.30390000343322754,-0.09716343879699707,0.09425085783004761,-0.016641348600387573,0.6295893465456581,-0.5861900651888686,-0.06656734766399353,0.5055365402354894
1728062628155210500,3.90621044921875,1.4794182777404785,0.6321439743041992,2.065626382827759,0.5272747874259949,0.7905598282814026,-0.31144267320632935,-0.04917114973068237,0.1718730330467224,-0.009068131446838379,0.6285976261302794,-0.5841699715614896,-0.05499185506421232,0.5104766680303283
1728062628165240600,3.916240478515625,1.6052294969558716,0.5980281829833984,2.051987648010254,0.5453583002090454,0.7745904326438904,-0.3203029930591583,-0.04079592227935791,0.20642763376235962,-0.0019168257713317871,0.627980509829863,-0.5813720381589959,-0.04307030466984576,0.5155501836228968
1728062628175269600,3.92626953125,1.6457757949829102,0.6125913858413696,1.9937515258789062,0.5628355741500854,0.758055567741394,-0.3294966518878937,-0.06291180849075317,0.19203293323516846,0.051481544971466064,0.6275884336953252,-0.5781748770913389,-0.031072202330476518,0.5204624855383535
1728062628185300500,3.936300537109375,1.5888721942901611,0.6674960851669312,1.9144831895828247,0.5796293616294861,0.7414419651031494,-0.3380733132362366,-0.10050338506698608,0.1527535319328308,0.07568320631980896,0.6272597922242543,-0.5749747228298234,-0.01916806910450178,0.524958790553316
1728062628195330600,3.94633056640625,1.471817970275879,0.7278313040733337,1.8872292041778564,0.5959559082984924,0.7250255942344666,-0.3452165722846985,-0.12596994638442993,0.11860233545303345,0.09282094240188599,0.6266976645170682,-0.5721326054725236,-0.007482990889908782,0.5290164048984208
1728062628205361700,3.956361572265625,1.4084950685501099,0.7736074924468994,1.870673418045044,0.6120476722717285,0.708660900592804,-0.35099488496780396,-0.11905139684677124,0.09999388456344604,0.08752143383026123,0.6258271055869798,-0.5696367767762145,0.004061229124036801,0.5327644082249852
1728062628215391700,3.966391845703125,1.4149543046951294,0.7770227193832397,1.85597562789917,0.6278584003448486,0.6921061873435974,-0.356065958738327,-0.09331250190734863,0.10708814859390259,0.044832468032836914,0.6248169841055908,-0.5672078505884873,0.015565379191315171,0.5363178520794537
1728062628225421600,3.976421630859375,1.478017807006836,0.7808112502098083,1.835107684135437,0.6432694792747498,0.6751803159713745,-0.3610210120677948,-0.06570899486541748,0.13751810789108276,0.0140208899974823,0.6238684623029476,-0.5645831872674637,0.02711676628501747,0.5397210809859244
1728062628235452700,3.98645263671875,1.5490690469741821,0.7995420694351196,1.8353403806686401,0.6583766937255859,0.6577052474021912,-0.3660106956958771,-0.04152494668960571,0.17518043518066406,-0.01504698395729065,0.6230463431552162,-0.5616800826447427,0.03886039314002366,0.5429719491400604
1728062628245482800,3.996482666015625,1.5983277559280396,0.8442122340202332,1.8488508462905884,0.6733610033988953,0.6395997405052185,-0.3708058297634125,-0.02554917335510254,0.19406414031982422,-0.02068886160850525,0.6222667799034087,-0.5585769950892937,0.0508804453270355,0.5460649117981501
1728062628255513600,4.006513671875,1.641739845275879,0.8608533143997192,1.8599016666412354,0.6882492303848267,0.6209017634391785,-0.37522512674331665,-0.025361716747283936,0.18001675605773926,0.007915586233139038,0.621472117860385,-0.5553359524467141,0.06316182458435017,0.5489853628426417
1728062628265543700,4.016543701171875,1.6217528581619263,0.8504554033279419,1.8675217628479004,0.702893853187561,0.6017346978187561,-0.3792831003665924,-0.031659722328186035,0.1351427435874939,0.06075593829154968,0.6205792220952627,-0.5519578667536859,0.0755047656178266,0.5518360135396819
1728062628275573500,4.026573486328125,1.6311956644058228,0.8194258213043213,1.8285722732543945,0.7170522809028625,0.5824136734008789,-0.3829234540462494,-0.030696630477905273,0.0940237045288086,0.09685170650482178,0.6195821322067616,-0.5484969855397289,0.08768878789514149,0.554598729163441
1728062628285604400,4.036604248046875,1.7438254356384277,0.7374222874641418,1.782060980796814,0.7304016351699829,0.5628318786621094,-0.3869546949863434,-0.02352285385131836,0.0764198899269104,0.0816110372543335,0.6188144083554025,-0.5445865356128886,0.09974046973032985,0.5572667466040584
1728062628295634400,4.046634521484375,1.8821377754211426,0.6415990591049194,1.7666279077529907,0.7428757548332214,0.5427017211914062,-0.3919318616390228,-0.0045639872550964355,0.09226226806640625,0.07085645198822021,0.6184268745125432,-0.5399508160034946,0.11174607302563418,0.5599234147486649
1728062628305665500,4.05666552734375,2.066329002380371,0.5852060317993164,1.7896556854248047,0.7547523975372314,0.5215916633605957,-0.3978577256202698,0.034248948097229004,0.13560432195663452,0.04792797565460205,0.6183803559547182,-0.5345153612028558,0.12395348682337329,0.5626139744295612
1728062628315695600,4.066695556640625,2.270855188369751,0.5863405466079712,1.8301525115966797,0.7663126587867737,0.4990661144256592,-0.40459612011909485,0.07226461172103882,0.1636231243610382,-0.005102336406707764,0.6186898648043039,-0.5282190221712433,0.13669893561463195,0.5652619025696679
1728062628325725400,4.076725341796875,2.313946008682251,0.6323636174201965,1.79730224609375,0.7776747941970825,0.4755706191062927,-0.41116228699684143,0.0988968014717102,0.1481781303882599,-0.042603522539138794,0.6191545352300544,-0.521485300872873,0.14990642119634606,0.5676519746285796
1728062628335756500,4.086756591796875,2.235942840576172,0.6964666843414307,1.6941888332366943,0.7885447144508362,0.4524087905883789,-0.4165613353252411,0.10298043489456177,0.11497393250465393,-0.03204697370529175,0.6195716772301256,-0.5149316496657842,0.16298689790032586,0.5695713297663386
1728062628345786600,4.09678662109375,2.048865795135498,0.7065247893333435,1.5660375356674194,0.798700213432312,0.43045535683631897,-0.4204593002796173,0.09464079141616821,0.08649715781211853,-0.015118032693862915,0.619849026780582,-0.5088905283479479,0.1755014891267055,0.5709787556332923
