time,seconds_elapsed,rotationRateX,rotationRateY,rotationRateZ,gravityX,gravityY,gravityZ,accelerationX,accelerationY,accelerationZ,quaternionW,quaternionX,quaternionY,quaternionZ
1728405440306130700,0.112130615234375,0.010435307398438454,0.0572936087846756,0.11135447025299072,0.04175092279911041,-0.38146042823791504,-0.9234418272972107,0.006024356931447983,0.015691936016082764,-0.011204779148101807,0.980673704647487,0.19448896233524998,0.021286856697003167,-2.227262546893342e-17
1728405440316160500,0.122160400390625,0.008469894528388977,0.052719369530677795,0.09560400247573853,0.041932154446840286,-0.38129764795303345,-0.9235008358955383,0.010161362588405609,0.01475098729133606,-0.0065222978591918945,0.9806885888223567,0.19439073433096105,0.021490136867168278,0.0005610116856628706
1728405440326191400,0.13219140625,0.00902543030679226,0.032836951315402985,0.0810018852353096,0.04214448481798172,-0.3812400698661804,-0.9235149621963501,0.0040591321885585785,0.007643789052963257,-0.008903861045837402,0.9806918047276139,0.19435035751915686,0.021690192750207938,0.0010247099099544511
1728405440336221400,0.142221435546875,-0.013155506923794746,-0.01027270220220089,0.061471596360206604,0.0421619676053524,-0.38128358125686646,-0.9234961867332458,0.0032939650118350983,0.005047589540481567,-0.000057220458984375,0.9806865570076375,0.19436576569729935,0.021768365204134818,0.0013734878185911509
1728405440346252500,0.15225244140625,-0.03932059556245804,-0.027297649532556534,0.033080700784921646,0.04177021607756615,-0.3813561499118805,-0.9234840273857117,0.014076951891183853,0.0010460615158081055,0.008033037185668945,0.9806831301628949,0.19439860658669372,0.02161422776434543,0.0016028945195542602
1728405440356283400,0.162283447265625,-0.06731042265892029,-0.014651896432042122,0.008667238056659698,0.04123064875602722,-0.38127970695495605,-0.9235398173332214,0.016233962029218674,-0.00838404893875122,0.01806807518005371,0.980697126801571,0.1943547311382056,0.021361759921557893,0.0017189810974440952
1728405440366313500,0.1723134765625,-0.0951242744922638,0.022341858595609665,0.0024610073305666447,0.04087067022919655,-0.38071516156196594,-0.9237887263298035,-0.0025405772030353546,-0.014487534761428833,0.014044463634490967,0.9807605145297328,0.19405301758979318,0.021191411649331617,0.0017952083910843816
1728405440376344300,0.18234423828125,-0.11102520674467087,0.0560833103954792,-0.005864033941179514,0.0410146526992321,-0.3795951008796692,-0.924243152141571,-0.019209839403629303,-0.012754172086715698,0.003070056438446045,0.9808762012119048,0.19345752811761552,0.021274914296112796,0.0018646529667909048
1728405440386374400,0.19237451171875,-0.11385688185691833,0.06456979364156723,-0.003182497341185808,0.04175400361418724,-0.3781765401363373,-0.9247913956642151,-0.021520838141441345,-0.008465975522994995,-0.0016764998435974121,0.9810158509067616,0.1927056198071404,0.02165296807483575,0.0018935766156964753
1728405440396405500,0.202405517578125,-0.11432266980409622,0.06888757646083832,0.023133529350161552,0.04259127378463745,-0.37684428691864014,-0.9252969026565552,-0.016025710850954056,-0.005632579326629639,-0.003200352191925049,0.9811445090341262,0.19199850546237046,0.02209338736640389,0.0019852743997543585
1728405440406435600,0.212435546875,-0.09189426153898239,0.049139972776174545,0.052206460386514664,0.04306793585419655,-0.3757667541503906,-0.9257129430770874,-0.004066456109285355,-0.00584036111831665,-0.0015941262245178223,0.9812499843700039,0.1914225478022396,0.022381310464399957,0.0022342843050749844
1728405440416466400,0.222466552734375,-0.04929620027542114,0.03130212053656578,0.05092574656009674,0.04329801723361015,-0.3751603364944458,-0.9259481430053711,0.007590055465698242,0.0025711357593536377,0.005309164524078369,0.9813091767182719,0.1910946991967086,0.022555036857832795,0.002535165991499698
1728405440426497500,0.23249755859375,-0.010384021326899529,0.030218157917261124,0.04635949060320854,0.043677594512701035,-0.37508150935173035,-0.9259622693061829,0.009560327976942062,0.007695585489273071,0.008375048637390137,0.9813121426855863,0.19104764012736364,0.022795965152334934,0.002780247897098777
1728405440436527600,0.242527587890625,0.009699408896267414,0.0299579668790102,0.06874416023492813,0.04407312721014023,-0.3755471706390381,-0.9257547855377197,-0.0017910227179527283,0.00924462080001831,0.0033304691314697266,0.9812584495539075,0.1912880739318079,0.02305404142788515,0.003060355457706431
1728405440446558500,0.252558349609375,0.007528800051659346,0.019818995147943497,0.06602080911397934,0.04394909366965294,-0.3761591911315918,-0.9255121946334839,-0.012973740696907043,0.013060986995697021,-0.0013219118118286133,0.9811953798904238,0.19160324082107666,0.02306761806897571,0.0034409300981882917
1728405440456588500,0.262588623046875,-0.020792586728930473,0.017349179834127426,0.05210818722844124,0.04337872192263603,-0.37643975019454956,-0.9254249930381775,-0.005277525633573532,0.013585686683654785,-0.0028433799743652344,0.9811717775323117,0.19174278003540812,0.02285190855074076,0.0038191117842810286
1728405440466619400,0.272619384765625,-0.04530571773648262,-0.011372320353984833,0.026566077023744583,0.04280131310224533,-0.37632477283477783,-0.9254986047744751,0.005126550793647766,0.004773169755935669,-0.004814445972442627,0.9811894792168364,0.19167600538156682,0.022605143437496665,0.004065566084363564
1728405440476650500,0.282650390625,-0.05769660696387291,-0.042912404984235764,0.03721579164266586,0.04208492115139961,-0.3759503960609436,-0.9256836175918579,0.004210248589515686,-0.005183666944503784,-0.0048735737800598145,0.9812360384316811,0.1914741389806193,0.02226752522403422,0.004215910007420121
1728405440486680600,0.2926806640625,-0.07024502009153366,-0.03332081809639931,0.04765218868851662,0.041453082114458084,-0.3754745125770569,-0.9259052276611328,0.004308026283979416,0.0008406639099121094,-0.003477036952972412,0.9812915372037132,0.1912176041338972,0.02198194043741235,0.004414607876507704
1728405440496711400,0.30271142578125,-0.09841220825910568,-0.010681018233299255,0.026797771453857422,0.04128778725862503,-0.3746946156024933,-0.9262285232543945,0.0063806697726249695,0.009124517440795898,-0.005396783351898193,0.9813731859038078,0.19080110744910314,0.021924469429219214,0.004571219336534037
1728405440506741500,0.312741455078125,-0.13217344880104065,-0.010232914239168167,0.006500224117189646,0.04140555113554001,-0.3735533356666565,-0.9266841411590576,-0.012810580432415009,0.0071287453174591064,-0.004605472087860107,0.9814889451719747,0.19019561991403675,0.021990102354687922,0.004628220021006577
1728405440516772600,0.322772705078125,-0.17031230032444,0.0027015265077352524,-0.006543939001858234,0.04136049747467041,-0.37205612659454346,-0.927288293838501,-0.03048097714781761,-0.0011739134788513184,0.00046944618225097656,0.9816427644072658,0.18940303302420888,0.021962588034343086,0.004641782545257022
1728405440526803500,0.332803466796875,-0.2074839025735855,0.02934671938419342,-0.010483553633093834,0.04134511202573776,-0.370150625705719,-0.928051233291626,-0.02256154641509056,-0.0017366111278533936,0.006267845630645752,0.981837024173789,0.18839515677426957,0.021946549165241632,0.004646498108264508
1728405440536833500,0.34283349609375,-0.23303180932998657,0.0313439816236496,-0.003708737902343273,0.041602425277233124,-0.3679600954055786,-0.9289104342460632,-0.011969849467277527,-0.0023249685764312744,0.006303071975708008,0.9820556735303875,0.1872368497328807,0.022071410588984937,0.0046686366025227135
1728405440546864400,0.352864501953125,-0.24202917516231537,0.039721593260765076,-0.019648555666208267,0.042097631841897964,-0.36580803990364075,-0.9297377467155457,-0.0038743652403354645,-0.00900888442993164,0.0003249645233154297,0.9822663298234046,0.18610045338326714,0.022310382719018945,0.004652982132507654
1728405440556894500,0.36289453125,-0.232700914144516,0.05719459801912308,-0.010550931096076965,0.042708612978458405,-0.36382433772087097,-0.9304879307746887,0.00021436437964439392,-0.008490204811096191,-0.002205491065979004,0.9824574281753518,0.1850539669782352,0.02260646084190102,0.0046234023005194145
1728405440566925600,0.372925537109375,-0.21192079782485962,0.0576702356338501,0.03533826395869255,0.043244343250989914,-0.36194509267807007,-0.931195855140686,0.001753825694322586,-0.000619053840637207,-0.0018028020858764648,0.9826367902146054,0.1840592450579162,0.02289717689554596,0.004767143034880809
1728405440576955600,0.38295556640625,-0.15667937695980072,0.05180009454488754,0.05156330391764641,0.04367777705192566,-0.360269695520401,-0.9318251013755798,0.01899006962776184,0.008356213569641113,-0.000013828277587890625,0.9827954735126734,0.18316927015561746,0.02316198882327924,0.0050478447421067815
1728405440586986500,0.392986572265625,-0.1065337285399437,0.04873426631093025,0.04417223483324051,0.04367151856422424,-0.35917341709136963,-0.9322484731674194,0.008971311151981354,0.0065580010414123535,0.001309812068939209,0.982901414766865,0.18258352844172185,0.023216568639256047,0.005388433896371449
1728405440597017600,0.403017578125,-0.09494844079017639,0.05691389739513397,0.007191846612840891,0.04344550892710686,-0.3585268259048462,-0.9325079321861267,-0.009555738419294357,0.008978426456451416,0.009564816951751709,0.9829660815521967,0.18223730059831023,0.0231432283768054,0.005631413555174318
1728405440607047700,0.413047607421875,-0.10454214364290237,0.06510002911090851,-0.039318397641181946,0.0436537005007267,-0.35789257287979126,-0.9327418208122253,-0.0226270891726017,0.012082576751708984,0.014635741710662842,0.9830253843471038,0.18190243703967587,0.02325090957654304,0.005658992617843634
1728405440617078500,0.42307861328125,-0.127048522233963,0.04975596070289612,-0.0585341714322567,0.044084709137678146,-0.3570496141910553,-0.9330445528030396,-0.021455924957990646,0.0027404725551605225,0.01133739948272705,0.9831032445168574,0.1814619116593859,0.023437207887983126,0.005504404474063358
1728405440627109600,0.433109619140625,-0.1486113965511322,0.03487719967961311,-0.08342380821704865,0.0446263812482357,-0.3560448884963989,-0.9334026575088501,-0.0013829655945301056,0.0004540085792541504,0.005012214183807373,0.9831958368129723,0.18093919681995083,0.023657395970779514,0.00523193765875354
1728405440637139500,0.443139404296875,-0.19164729118347168,0.0189198050647974,-0.10737015306949615,0.04518832266330719,-0.35467153787612915,-0.9338983297348022,0.01349698007106781,0.0017203986644744873,-0.0030217766761779785,0.983323996758225,0.18022621080333093,0.02386074294105699,0.004819938724716931
1728405440647170600,0.453170654296875,-0.22758091986179352,0.0071940659545362,-0.10919308662414551,0.04569005221128464,-0.35276567935943604,-0.93459552526474,0.018122218549251556,-0.001741856336593628,-0.004048824310302734,0.983503610966436,0.17923619318688938,0.024012870308071213,0.004305599171561377
1728405440657200600,0.46320068359375,-0.24765555560588837,0.006079799495637417,-0.06435263901948929,0.0463397279381752,-0.3505101501941681,-0.935411810874939,0.025208745151758194,-0.009200572967529297,0.0031151175498962402,0.9837127453590391,0.17806071824745057,0.024258468470180837,0.0038947457727908368
1728405440667231500,0.4732314453125,-0.27181240916252136,0.01411370374262333,-0.07698135077953339,0.04678957164287567,-0.3481016159057617,-0.9362884163856506,0.030923448503017426,-0.009137213230133057,0.01014101505279541,0.9839365199339388,0.17680270285822033,0.02442534084300271,0.0036096651120311254
1728405440677261600,0.483261474609375,-0.28869232535362244,0.023350346833467484,-0.10273811966180801,0.04708170145750046,-0.34551870822906494,-0.9372300505638123,0.01393819972872734,-0.001542508602142334,0.019886910915374756,0.9841770452893619,0.17545648038273112,0.02449515534586349,0.003229973126268472
1728405440687292700,0.493292724609375,-0.3014269769191742,0.042690861970186234,-0.104533351957798,0.04728441312909126,-0.34281331300735474,-0.9382127523422241,0.007387835532426834,-0.004400491714477539,0.025844037532806396,0.984427917843496,0.17404762970611398,0.024516014098838516,0.0028270545137707866
1728405440697323500,0.503323486328125,-0.3242121636867523,0.040401339530944824,-0.1245022639632225,0.047668956220149994,-0.34008896350860596,-0.939184308052063,0.018325310200452805,-0.00826922059059143,0.026922404766082764,0.9846757740583041,0.17263139540514408,0.024622157615041662,0.0023771075351442404
1728405440707353600,0.513353515625,-0.35702839493751526,0.016194112598896027,-0.1551925390958786,0.048340871930122375,-0.3371134400367737,-0.9402221441268921,0.025999952107667923,-0.014540672302246094,0.02852475643157959,0.9849405401582502,0.17108939390544342,0.02484646472000611,0.0017643057175522204
1728405440717384700,0.523384765625,-0.4359988272190094,0.008376669138669968,-0.23323939740657806,0.04927997291088104,-0.3335671126842499,-0.9414374232292175,0.03465864062309265,-0.026921838521957397,0.031998395919799805,0.985250222741334,0.16925829649546426,0.025157588818465176,0.0008657419605686922
1728405440727414500,0.53341455078125,-0.5379594564437866,0.020261771976947784,-0.2887905240058899,0.05050703510642052,-0.32911866903305054,-0.942936897277832,0.04168657213449478,-0.029585033655166626,0.04523181915283203,0.9856309004408971,0.16696827586468618,0.02555695348113773,-0.0003820726871940463
1728405440737445600,0.543445556640625,-0.6238580942153931,0.03033784031867981,-0.35055243968963623,0.0517914704978466,-0.32344597578048706,-0.9448282122612,0.046871867030858994,-0.031397223472595215,0.05894869565963745,0.9861088792572402,0.16404990985924284,0.025952283273200042,-0.0018528366460091033
1728405440747476500,0.5534765625,-0.7060734033584595,-0.05708792805671692,-0.3888910412788391,0.052928850054740906,-0.3169213831424713,-0.9469738006591797,0.061817243695259094,-0.03696051239967346,0.05483824014663696,0.9866477199368185,0.16070162716567465,0.02623139482493789,-0.0036295753448040953
1728405440757506600,0.563506591796875,-0.780086874961853,-0.06616531312465668,-0.14953118562698364,0.05315805971622467,-0.30973291397094727,-0.9493364691734314,0.08673453330993652,-0.03841167688369751,0.057063519954681396,0.9872395912919708,0.15700337470221173,0.026109460383800614,-0.005112864444886108
1728405440767537700,0.57353759765625,-0.9012971520423889,-0.42817583680152893,0.2588142454624176,0.05090819671750069,-0.30185452103614807,-0.9519938230514526,0.1432446390390396,-0.026438415050506592,0.06498515605926514,0.9879146855363187,0.15289096712104533,0.025048924418956404,-0.0046300791901122615
1728405440777567700,0.583567626953125,-0.9690892696380615,-0.6122884154319763,0.1784629374742508,0.04505503177642822,-0.2929220497608185,-0.9550741910934448,0.3270457983016968,-0.036881476640701294,0.0850791335105896,0.9886973566384643,0.14822154881218935,0.022209731495476618,-0.0038375851110875256
1728405440787598600,0.5935986328125,-0.9377121925354004,-0.5517410039901733,0.1850968599319458,0.0388469435274601,-0.2838135361671448,-0.9580922722816467,0.2294788658618927,-0.0316619873046875,0.11684471368789673,0.9894620470490422,0.14348245681028646,0.019148088971473496,-0.003325597253787577
1728405440797629700,0.603629638671875,-0.9331022500991821,-0.14933599531650543,-0.11424696445465088,0.03501696512103081,-0.2748992443084717,-0.9608351588249207,0.08145338296890259,-0.019000321626663208,0.07059168815612793,0.9901554732118232,0.13887056702064474,0.017244804346334075,-0.0031212175684183934
1728405440807659500,0.613659423828125,-0.8007499575614929,0.020152581855654716,-1.387581706047058,0.038544733077287674,-0.2663367688655853,-0.963109016418457,0.010817460715770721,-0.04015132784843445,0.05353266000747681,0.9907083513939539,0.1345513141964686,0.018477601029509044,-0.007182778659929936
1728405440817690600,0.623690673828125,-0.7488327026367188,-0.4317363202571869,-1.0764459371566772,0.03975581005215645,-0.25841224193573,-0.965216338634491,-0.12116143852472305,-0.1618911623954773,0.03476589918136597,0.9911684372323111,0.13061301430929842,0.01822273384489594,-0.01390448461682336
1728405440827720700,0.633720703125,-0.92125004529953,-0.40529122948646545,0.5126294493675232,0.03629281371831894,-0.2502986490726471,-0.967488169670105,0.12978385388851166,-0.09395495057106018,0.12942975759506226,0.9917125587899758,0.1264548683498383,0.016280888975721323,-0.01581944015350863
1728405440837751600,0.64375146484375,-0.8686781525611877,-0.42300739884376526,1.6555508375167847,0.028949666768312454,-0.2418159544467926,-0.9698901772499084,0.45556265115737915,0.07575450837612152,0.15175974369049072,0.9923901501842274,0.12197388608237873,0.013314675185270646,-0.010342219949391381
1728405440847781600,0.65378173828125,-0.7827705144882202,-0.1456209421157837,1.451481580734253,0.022832823917269707,-0.2343064248561859,-0.9718946218490601,0.5246220231056213,0.12621310353279114,0.14325082302093506,0.9929467104303838,0.11800878015726791,0.011252303806731588,-0.0020631860978382183
1728405440857812700,0.663812744140625,-0.7014559507369995,-0.6425622701644897,0.40689584612846375,0.01701573096215725,-0.22719819843769073,-0.9736998677253723,0.3512551486492157,-0.02866123616695404,0.05687558650970459,0.993400872269702,0.11433435810892344,0.008815635148809266,0.002183016896736737
1728405440867843600,0.673843505859375,-0.7171205878257751,-0.6758058071136475,0.28506022691726685,0.00948543194681406,-0.22041074931621552,-0.9753610491752625,0.2154138684272766,-0.16313423216342926,0.07701510190963745,0.9938157107245934,0.11087418150123513,0.005138462723288632,0.0032827213965573535
1728405440877873700,0.683873779296875,-0.7750142216682434,-0.40751656889915466,0.5443117618560791,0.003333858447149396,-0.21304254233837128,-0.977037250995636,0.15258045494556427,-0.11692884564399719,0.07388478517532349,0.9942301087083266,0.10712827952172611,0.002216751353849396,0.005012978471700676
1728405440887904800,0.69390478515625,-0.6938610076904297,-0.14225566387176514,0.948080837726593,-0.000926133943721652,-0.20580781996250153,-0.9785919785499573,0.20774376392364502,-0.05620090663433075,0.03941357135772705,0.9945966591236094,0.10345928238719101,0.00042597848789061894,0.008570944229694937
1728405440897932500,0.7039326171875,-0.6446979641914368,0.06286127120256424,1.2662007808685303,-0.003523983061313629,-0.19921797513961792,-0.979948878288269,0.26521220803260803,-0.058030009269714355,0.003447413444519043,0.9948739508814894,0.10012715195319102,-0.0003467133341854123,0.01415255920690347
1728405440907963400,0.71396337890625,-0.58022540807724,0.1316775679588318,1.3377704620361328,-0.005046461708843708,-0.19310729205608368,-0.9811646938323975,0.26879462599754333,-0.04508247971534729,0.03840041160583496,0.9950632196377043,0.09704331774685296,-0.0005097196806579013,0.02077451280713569
1728405440917994500,0.723994384765625,-0.5235901474952698,0.06368093937635422,1.3073539733886719,-0.0065408675000071526,-0.18764373660087585,-0.982215404510498,0.26252231001853943,-0.05072912573814392,0.07260847091674805,0.9951662864723485,0.09429654116640984,-0.0006881964324802037,0.027419499522848775
1728405440928024600,0.734024658203125,-0.5694997906684875,-0.06628446280956268,1.3233615159988403,-0.00894418079406023,-0.18219304084777832,-0.9832221269607544,0.29426828026771545,-0.09055787324905396,0.0830756425857544,0.9952174251135931,0.09158098774480417,-0.0013683482470750925,0.03396214040439231
1728405440938055400,0.744055419921875,-0.6549539566040039,-0.208187535405159,1.4069727659225464,-0.012749888934195042,-0.17602141201496124,-0.9843037724494934,0.34072229266166687,-0.11027930676937103,0.09682214260101318,0.9952361934299286,0.08854584204472155,-0.0027839476953836627,0.04070500448630606
1728405440948085200,0.754085205078125,-0.7842809557914734,-0.29192009568214417,1.536564588546753,-0.017793988808989525,-0.16869032382965088,-0.9855085015296936,0.3727744519710541,-0.1129869818687439,0.0815320611000061,0.9952170028240288,0.08498395705744614,-0.004846694195155019,0.047932359846686236
1728405440958116600,0.76411669921875,-0.866497278213501,-0.322010338306427,1.6474554538726807,-0.023473525419831276,-0.16016046702861786,-0.9868118166923523,0.3646447956562042,-0.10419812798500061,0.06837010383605957,0.9951380094365464,0.08087833363007232,-0.007264490269056502,0.05573300562019293
1728405440968147500,0.7741474609375,-0.9253023862838745,-0.2913839817047119,1.74271821975708,-0.02918635495007038,-0.15081530809402466,-0.9881309866905212,0.3270379304885864,-0.08909869194030762,0.06929254531860352,0.9949701353847333,0.07641626940550553,-0.009749159117381475,0.0640315878536654
1728405440978177300,0.78417724609375,-0.9515118598937988,-0.22927002608776093,1.821239948272705,-0.034350477159023285,-0.14090697467327118,-0.9894267320632935,0.2864409387111664,-0.0684131532907486,0.06208908557891846,0.9946942995843759,0.07170876092850272,-0.012020165000714797,0.07277838929841411
1728405440988208600,0.794208740234375,-0.9089331030845642,-0.20882126688957214,1.900361180305481,-0.03902021795511246,-0.13092385232448578,-0.9906242489814758,0.25381818413734436,-0.04735991358757019,0.08919602632522583,0.9942843838434433,0.06700010952204576,-0.014102102673992265,0.08191940856684884
1728405440998238200,0.80423828125,-0.832439124584198,-0.22090934216976166,2.001636028289795,-0.043608665466308594,-0.12148553878068924,-0.9916347861289978,0.2415151596069336,-0.021901369094848633,0.1133541464805603,0.9937031390134352,0.06261719214558176,-0.01617695376378939,0.09149632073154218
1728405441008269300,0.814269287109375,-0.7712194323539734,-0.21982203423976898,2.127351760864258,-0.04821353778243065,-0.11253789067268372,-0.9924770593643188,0.24822574853897095,0.013630352914333344,0.10765039920806885,0.9929278851675845,0.05854167031136546,-0.01828528296853388,0.10165070987702032
1728405441018300400,0.824300537109375,-0.7194462418556213,-0.2145841270685196,2.2139439582824707,-0.052751630544662476,-0.10403115302324295,-0.9931740760803223,0.2533741891384125,0.035397060215473175,0.10650116205215454,0.991951293525309,0.054746760757654285,-0.020389799872298657,0.11233774765730577
1728405441028330200,0.834330322265625,-0.7591658234596252,-0.18758149445056915,2.279280185699463,-0.05700802803039551,-0.0954865887761116,-0.9937969446182251,0.24067805707454681,0.03461921960115433,0.0926128625869751,0.9907969333842533,0.050978539691720025,-0.02242116796547426,0.12336934630953
1728405441038361300,0.844361328125,-0.8443115949630737,-0.15911416709423065,2.345064401626587,-0.06082376092672348,-0.08611684292554855,-0.9944266676902771,0.21957619488239288,0.033184029161930084,0.0758170485496521,0.9894762620646139,0.0468329514308525,-0.024358775216641895,0.13472245926905896
1728405441048391400,0.854391357421875,-0.929388701915741,-0.1592538207769394,2.389343023300171,-0.0643199235200882,-0.07575817406177521,-0.9950495958328247,0.2016337513923645,0.029249317944049835,0.07308304309844971,0.9879863526600193,0.04223401663051265,-0.02629643824451679,0.14631426743606482
1728405441058422300,0.86442236328125,-0.9941298961639404,-0.16377560794353485,2.4302234649658203,-0.06762915849685669,-0.06454352289438248,-0.995620608329773,0.1849539875984192,0.0332019105553627,0.08186334371566772,0.9863168022460834,0.03725719758589723,-0.028312328134437754,0.15808093316022892
1728405441068453400,0.874453369140625,-1.0230112075805664,-0.1337580531835556,2.4508655071258545,-0.07056456059217453,-0.052749160677194595,-0.9961115121841431,0.16625240445137024,0.05709785223007202,0.08825933933258057,0.9844609294536633,0.032024212762840475,-0.030309856108290692,0.16997793792790958
1728405441078483500,0.8844833984375,-0.9772351980209351,-0.0669446587562561,2.4666411876678467,-0.07272719591856003,-0.040925465524196625,-0.9965118169784546,0.14230725169181824,0.08863963186740875,0.10219424962997437,0.9824212025301688,0.026765930565411253,-0.03205716187760511,0.1819463800760992
1728405441088514300,0.894514404296875,-0.8926166892051697,0.02501727268099785,2.4913697242736816,-0.07381512969732285,-0.029751412570476532,-0.9968280792236328,0.11530375480651855,0.11513952910900116,0.11393928527832031,0.9801936708171984,0.021775525808088187,-0.03334361551660578,0.19399593666773735
1728405441098544400,0.90454443359375,-0.7944908738136292,0.08791901171207428,2.498021364212036,-0.07383734732866287,-0.019441554322838783,-0.9970808029174805,0.09513859450817108,0.12762629985809326,0.11933422088623047,0.9777830572525972,0.017139078494509737,-0.03414475669358113,0.2061084598388973
1728405441108575200,0.9145751953125,-0.6889503002166748,0.13872364163398743,2.484618663787842,-0.07305758446455002,-0.010196550749242306,-0.9972755908966064,0.07757417112588882,0.1344945877790451,0.14798665046691895,0.9752102244475761,0.01295941999946253,-0.034557982864624116,0.21818066025021074
1728405441118606300,0.9246064453125,-0.625728964805603,0.2011563926935196,2.480616807937622,-0.07153662294149399,-0.0018582678167149425,-0.9974362254142761,0.0645785927772522,0.1483883559703827,0.1379849910736084,0.9724844158329784,0.009149174562756915,-0.03461460760460346,0.2302003781869826
1728405441128636400,0.934636474609375,-0.6240595579147339,0.2840912938117981,2.485523223876953,-0.06902461498975754,0.006140238139778376,-0.9975960850715637,0.06211235374212265,0.1663755625486374,0.10839015245437622,0.9696065065608295,0.005388581943235607,-0.03424810580023111,0.24220093016596275
1728405441138667300,0.944667236328125,-0.6481302976608276,0.3608553111553192,2.4820101261138916,-0.06552649289369583,0.014154834672808647,-0.9977504014968872,0.06137608736753464,0.17023231089115143,0.08855551481246948,0.9665789283135429,0.0014880979615248325,-0.03350478865256269,0.25416610091553105
1728405441148697300,0.954697265625,-0.7277790904045105,0.38631612062454224,2.457902669906616,-0.0612880177795887,0.022586185485124588,-0.9978645443916321,0.06008254736661911,0.17132245004177094,0.07150346040725708,0.9634172946847983,-0.0027313688783244692,-0.03256176849377478,0.26600657361356805
1728405441158728400,0.964728515625,-0.798266589641571,0.37194037437438965,2.4459774494171143,-0.056788865476846695,0.03170838952064514,-0.9978825449943542,0.062022604048252106,0.18954399228096008,0.06396842002868652,0.960116266022423,-0.007344464141700145,-0.0316982460916457,0.2777016401522486
1728405441168758300,0.97475830078125,-0.8278759717941284,0.37224677205085754,2.418416976928711,-0.05220192298293114,0.04118165001273155,-0.9977870583534241,0.06578221917152405,0.20668205618858337,0.06356769800186157,0.9566744732241323,-0.012162380096592774,-0.030960345619668664,0.2892534275020492
1728405441178789400,0.984789306640625,-0.8557105660438538,0.40791261196136475,2.364109516143799,-0.04717721790075302,0.05079590156674385,-0.9975941777229309,0.056881777942180634,0.20843559503555298,0.06477862596511841,0.9531330535073702,-0.01713851895131673,-0.030152884264144423,0.3005570447522502
1728405441188820500,0.994820556640625,-0.8641411066055298,0.4585381746292114,2.282284736633301,-0.04152935743331909,0.06046197563409805,-0.997306227684021,0.027735378593206406,0.21071717143058777,0.100547194480896,0.9495443024374245,-0.022267912941375975,-0.029172569024217603,0.31147815008634283
1728405441198850300,1.004850341796875,-0.8572669625282288,0.5314019918441772,2.1814489364624023,-0.035149477422237396,0.06992298364639282,-0.9969329237937927,-0.013068333268165588,0.2170642614364624,0.12542718648910522,0.9459625392219537,-0.02745700959393171,-0.027922062661513036,0.32190275755229086
1728405441208881400,1.01488134765625,-0.8402290940284729,0.6497125625610352,2.1181623935699463,-0.02765709161758423,0.07911105453968048,-0.9964820742607117,-0.054862476885318756,0.22806356847286224,0.12309950590133667,0.9423923065924754,-0.03274514149014518,-0.02620530802867465,0.331870142292658
1728405441218911500,1.024911376953125,-0.7871261835098267,0.787506103515625,2.0932633876800537,-0.018709154799580574,0.08775801956653595,-0.9959661364555359,-0.08228880167007446,0.24471569061279297,0.1356756091117859,0.9387858463921076,-0.038074627509053285,-0.023817355879942097,0.34156129395533474
1728405441228942300,1.0349423828125,-0.7269712686538696,0.9208695888519287,2.1001179218292236,-0.0082491934299469,0.09559863060712814,-0.9953857660293579,-0.08766759186983109,0.2584052085876465,0.13527840375900269,0.9350843543099643,-0.043348029395293176,-0.020689567200222712,0.35115537850843664
1728405441238973400,1.044973388671875,-0.6870869994163513,1.044264554977417,2.0758795738220215,0.0036323764361441135,0.10266043245792389,-0.994709849357605,-0.08087240904569626,0.26173466444015503,0.12584388256072998,0.9312815742093106,-0.04858640690544487,-0.01686555453393239,0.36065166284170336
1728405441249003500,1.05500341796875,-0.7022916078567505,1.1540846824645996,2.014549493789673,0.016809578984975815,0.1093645989894867,-0.993859589099884,-0.0735265389084816,0.25318416953086853,0.11037564277648926,0.9274353032942597,-0.05398860956192637,-0.012467971584702062,0.36985627535789256
1728405441259034400,1.065034423828125,-0.7514855265617371,1.214880108833313,1.9181462526321411,0.030907394364476204,0.11613975465297699,-0.9927518963813782,-0.07273177802562714,0.22930392622947693,0.12261945009231567,0.9235946165703087,-0.059700377050242656,-0.007741197136785607,0.3786144394371351
1728405441269064400,1.075064453125,-0.8174306750297546,1.213758945465088,1.7971341609954834,0.04523659870028496,0.1232151910662651,-0.991348385810852,-0.07021528482437134,0.19488473236560822,0.15119946002960205,0.9198135471635648,-0.0657005530349983,-0.003038586661498407,0.38680394908046944
1728405441279095300,1.08509521484375,-0.9265297055244446,1.2111493349075317,1.66105318069458,0.05948366969823837,0.1309499591588974,-0.9896028637886047,-0.07431525737047195,0.16801545023918152,0.16483479738235474,0.9161344337873063,-0.07208684408676906,0.0014359944847445875,0.39433369682339714
1728405441289126400,1.09512646484375,-0.9832794666290283,1.2288256883621216,1.5869425535202026,0.07373853027820587,0.13938689231872559,-0.9874886870384216,-0.08965349197387695,0.17857570946216583,0.17816251516342163,0.9125160172375212,-0.07888629655537573,0.0057100462506760085,0.4013213614978605
1728405441299156500,1.105156494140625,-0.9844238758087158,1.3099870681762695,1.5762888193130493,0.08854427933692932,0.14784455299377441,-0.9850390553474426,-0.098538838326931,0.19872824847698212,0.18643981218338013,0.9088476584174434,-0.08589243456622621,0.010147600289877655,0.4080629302545078
1728405441309187300,1.115187255859375,-0.9437012076377869,1.4209463596343994,1.5792262554168701,0.10443700850009918,0.1558515578508377,-0.9822439551353455,-0.09674662351608276,0.2095201015472412,0.17577117681503296,0.9050666305052218,-0.09300878901040446,0.015079262924071543,0.41470023151977836
1728405441319217400,1.125217529296875,-0.9070334434509277,1.52475905418396,1.5380498170852661,0.12142189592123032,0.1631452739238739,-0.9791017770767212,-0.108436718583107,0.21414348483085632,0.17296475172042847,0.9012193628418906,-0.10012858790639385,0.02057580425861134,0.42113481412083437
1728405441329248500,1.13524853515625,-0.909096360206604,1.6210322380065918,1.485974907875061,0.1393788456916809,0.17008192837238312,-0.9755232930183411,-0.12187705934047699,0.2220078706741333,0.15151816606521606,0.8973436557480531,-0.1073996344387749,0.026526910049792813,0.42724230637396754
1728405441339279400,1.145279296875,-0.8422811031341553,1.7049192190170288,1.4585291147232056,0.15821032226085663,0.17648912966251373,-0.9715045690536499,-0.1290813535451889,0.2270142287015915,0.1386951208114624,0.893422982290298,-0.11473229303478334,0.03292766189616148,0.4330675396532171
1728405441349309400,1.155309326171875,-0.8048180937767029,1.7683147192001343,1.3960607051849365,0.17765815556049347,0.182016521692276,-0.9671130180358887,-0.11210644245147705,0.20364932715892792,0.13669919967651367,0.8894942332761892,-0.12191510577066492,0.03975179265553255,0.43858460316295816
1728405441359340500,1.165340576171875,-0.854794442653656,1.8248525857925415,1.3126944303512573,0.1975635290145874,0.1874784529209137,-0.962195634841919,-0.09525340795516968,0.18402722477912903,0.13153773546218872,0.8855883485365225,-0.1292832788269832,0.04677613559256182,0.44365649128360163
1728405441369370400,1.175370361328125,-0.9018948674201965,1.8561614751815796,1.252044677734375,0.21775633096694946,0.1932671070098877,-0.9566765427589417,-0.08888065814971924,0.18504400551319122,0.14016348123550415,0.8816667608031905,-0.136979418248236,0.0538364880732097,0.4483325124865917
1728405441379401500,1.1854013671875,-0.9861103892326355,1.8589820861816406,1.1846730709075928,0.23792330920696259,0.19943581521511078,-0.9505881667137146,-0.07549354434013367,0.15989336371421814,0.1611747145652771,0.8777183682610595,-0.14495512751301334,0.06077768973239609,0.4526639466530799
1728405441389432300,1.195432373046875,-1.1360849142074585,1.8486793041229248,1.1410984992980957,0.2578996419906616,0.2066260278224945,-0.9438185691833496,-0.0727495551109314,0.1271141618490219,0.17384475469589233,0.8736773592425525,-0.15346778877628656,0.06736737559517894,0.4567243517546945
1728405441399462400,1.20546240234375,-1.290656328201294,1.8456898927688599,1.1446313858032227,0.2777175307273865,0.2150338590145111,-0.9362870454788208,-0.07778167724609375,0.11266385018825531,0.18579870462417603,0.8694379336859566,-0.16262880770015742,0.07354151931275223,0.4606747548372721
1728405441409493500,1.215493408203125,-1.295812726020813,1.8222066164016724,1.1900920867919922,0.29743698239326477,0.22388076782226562,-0.928121030330658,-0.08062490820884705,0.0924338847398758,0.18782562017440796,0.8649308618036682,-0.17211743242059763,0.0794674255912164,0.46470982301834257
1728405441419523600,1.225523681640625,-1.2777482271194458,1.8581960201263428,1.1776388883590698,0.31717556715011597,0.23207171261310577,-0.9195337891578674,-0.07919955253601074,0.06413185596466064,0.15815073251724243,0.8602514760845276,-0.1814600470933957,0.08547135682574857,0.468758399126741
1728405441429554400,1.235554443359375,-1.2516032457351685,1.9267884492874146,1.1293206214904785,0.3372683525085449,0.23998397588729858,-0.9103063941001892,-0.0818210244178772,0.07445383071899414,0.07621520757675171,0.855500078603326,-0.19089687812850664,0.09167976819838045,0.4725175900461193
1728405441439585500,1.24558544921875,-1.0975478887557983,1.9979997873306274,1.107096552848816,0.3578476309776306,0.24679113924503326,-0.900577187538147,-0.09364175796508789,0.12314289808273315,0.0403628945350647,0.8507475432684349,-0.20008149840648684,0.09838095689702255,0.47593834769970317
1728405441449615400,1.255615478515625,-0.9515889883041382,2.045966148376465,1.0671651363372803,0.37873154878616333,0.25187671184539795,-0.8905731439590454,-0.0789116621017456,0.14775094389915466,-0.01688230037689209,0.8460614485857492,-0.20868047235156068,0.10566870977152583,0.47902686475396644
1728405441459646500,1.265646484375,-0.941517174243927,2.0788416862487793,1.0061662197113037,0.3997146189212799,0.25619202852249146,-0.8801101446151733,-0.06478425860404968,0.15744316577911377,-0.06433266401290894,0.8414258200094352,-0.2170716295680706,0.11324681230840158,0.48172358436675144
1728405441469676500,1.275676513671875,-0.937207818031311,2.05297589302063,0.9701024889945984,0.42042022943496704,0.2603842318058014,-0.8691644668579102,-0.07038366794586182,0.16477134823799133,-0.060660362243652344,0.8367794977116326,-0.22546032723932427,0.12077006978421335,0.484130367423882
1728405441479707400,1.285707275390625,-0.9484482407569885,1.999228596687317,0.9530681371688843,0.4405076503753662,0.26433396339416504,-0.8579513430595398,-0.07432729005813599,0.12854930758476257,-0.047932446002960205,0.8320868389363513,-0.23370998974397508,0.1280779568453783,0.48642272470798914
1728405441489738500,1.295738525390625,-1.057007908821106,1.9677495956420898,0.9171639084815979,0.4599676728248596,0.2686495780944824,-0.8463197946548462,-0.0693732500076294,0.07113310694694519,-0.057412564754486084,0.8272959059835985,-0.24210230421268059,0.13500589533715562,0.488611683558855
1728405441499768600,1.3057685546875,-1.1050028800964355,1.900039553642273,0.8847609758377075,0.47872525453567505,0.273564875125885,-0.8342567682266235,-0.07064425945281982,0.0403846800327301,-0.048525214195251465,0.8224028374472169,-0.2507221577812776,0.1414567274133578,0.49069543993842496
1728405441509799400,1.31579931640625,-1.1294758319854736,1.8480392694473267,0.8471861481666565,0.4966781437397003,0.2785952687263489,-0.8220070004463196,-0.06218418478965759,0.026961952447891235,-0.053527116775512695,0.8174877748196352,-0.2592983374456117,0.14751567645852878,0.4926634639092825
1728405441519829500,1.32582958984375,-1.1316378116607666,1.8467007875442505,0.8920276761054993,0.514211118221283,0.28350430727005005,-0.8094518184661865,-0.042546749114990234,0.035938411951065063,-0.09780532121658325,0.8124590139043971,-0.26785357717115565,0.1533902044766261,0.494607240768913
1728405441529860600,1.335860595703125,-1.081164002418518,1.8384929895401,1.0212016105651855,0.5318403840065002,0.28742948174476624,-0.7965739965438843,-0.01024925708770752,0.06672698259353638,-0.1147419810295105,0.8071234904903335,-0.27620605173094703,0.15944662785543795,0.49682862237237146
1728405441539890400,1.345890380859375,-1.032458782196045,1.7095386981964111,1.10969877243042,0.5490540266036987,0.28998225927352905,-0.7838686108589172,0.042407095432281494,0.07654908299446106,-0.14282816648483276,0.8015172236443558,-0.2840346795388089,0.1654992702820715,0.49950410507763815
1728405441549921500,1.355921630859375,-1.074142575263977,1.5228081941604614,1.1105773448944092,0.5649558305740356,0.2919173240661621,-0.771757185459137,0.06831437349319458,0.050047367811203,-0.1739063262939453,0.7958287350274467,-0.29136203801675387,0.1709665806884499,0.5025287394826818
1728405441559952400,1.365952392578125,-1.2096819877624512,1.3667056560516357,1.0496529340744019,0.5791970491409302,0.2944565713405609,-0.7601487040519714,0.04508572816848755,0.0004652440547943115,-0.16265708208084106,0.7901674329418824,-0.29858666634338193,0.1754184746563531,0.5056774628184915
1728405441569982500,1.375982421875,-1.401102066040039,1.2831730842590332,1.0419801473617554,0.5922949314117432,0.2982112169265747,-0.7485029697418213,-0.005106210708618164,-0.04770773649215698,-0.1273515224456787,0.7843705253932283,-0.30617473812263984,0.17890089736354298,0.508934437906337
1728405441580013600,1.386013671875,-1.5815016031265259,1.2281603813171387,1.1106902360916138,0.6048821806907654,0.30287623405456543,-0.7364669442176819,-0.05126279592514038,-0.07054591178894043,-0.08845376968383789,0.7781640715814715,-0.31426562376235584,0.18166907929570986,0.5125369052930167
1728405441590043400,1.39604345703125,-1.7118990421295166,1.1906559467315674,1.185236930847168,0.61723393201828,0.307966023683548,-0.7240021824836731,-0.0856025218963623,-0.07180574536323547,-0.04206538200378418,0.7714528442731876,-0.3227582835152922,0.18391847033711928,0.5165864295245436
1728405441600074500,1.406074462890625,-1.6785855293273926,1.2386395931243896,1.2531073093414307,0.6297382116317749,0.3126116096973419,-0.7111284136772156,-0.12244462966918945,-0.05737787485122681,-0.004600346088409424,0.76434954260326,-0.33134479303098346,0.1861354597162661,0.5208971671586745
1728405441610105600,1.416105712890625,-1.5526046752929688,1.3521438837051392,1.2775726318359375,0.6429345011711121,0.3159567713737488,-0.6977152228355408,-0.14641356468200684,-0.03627845644950867,-0.010017931461334229,0.7570718425061452,-0.33974391077975197,0.18898803801709044,0.5250711298052962
1728405441620135400,1.426135498046875,-1.387015461921692,1.375191330909729,1.2639727592468262,0.6564751267433167,0.3178430497646332,-0.6841170787811279,-0.1347925066947937,0.008893370628356934,-0.03954625129699707,0.7498643572893234,-0.347698798120903,0.19247598469247393,0.5289252956296071
1728405441630166500,1.43616650390625,-1.248488187789917,1.282456636428833,1.2412517070770264,0.6695504784584045,0.31846025586128235,-0.6710329055786133,-0.09447729587554932,0.06593912839889526,-0.05467510223388672,0.7429057139910871,-0.35496238613614783,0.1961765590344236,0.5325481125286122
1728405441640196400,1.4461962890625,-1.177817940711975,1.164500117301941,1.209065556526184,0.6816290020942688,0.31818440556526184,-0.6588934063911438,-0.056796908378601074,0.09957066178321838,-0.0540887713432312,0.7362351329499326,-0.3614944101349257,0.19968745683091801,0.5361011545276503
1728405441650227200,1.456227294921875,-1.2208373546600342,1.0635093450546265,1.154036045074463,0.6927129626274109,0.3178408443927765,-0.647399365901947,-0.038141489028930664,0.10801666975021362,-0.06634581089019775,0.7297340470778325,-0.36769461418778876,0.202733818795022,0.5396182099680188
1728405441660258600,1.466258544921875,-1.3299906253814697,0.9738174676895142,1.0853486061096191,0.7028502225875854,0.3181990087032318,-0.6362003684043884,-0.051803529262542725,0.11345681548118591,-0.06253010034561157,0.7232810215610939,-0.37395779778214566,0.20507409334431612,0.543106471399079
1728405441670288400,1.476288330078125,-1.4459439516067505,0.9446364045143127,1.0462028980255127,0.7122708559036255,0.319443941116333,-0.625000536441803,-0.09834885597229004,0.10426205396652222,-0.03184455633163452,0.7167686900047578,-0.3804774247296957,0.20672846132972922,0.5465736850834391
1728405441680319200,1.4863193359375,-1.573486566543579,1.0437449216842651,1.0676311254501343,0.7217717170715332,0.3212416172027588,-0.6130655407905579,-0.15477043390274048,0.08577129244804382,-0.014269113540649414,0.7099450901495311,-0.38748916332493843,0.20813310099916726,0.550009674195925
1728405441690349300,1.496349365234375,-1.6051729917526245,1.1949841976165771,1.1140120029449463,0.7321158051490784,0.323016881942749,-0.5997219681739807,-0.18786543607711792,0.08079168200492859,-0.019769608974456787,0.7026131332398765,-0.39511360084166836,0.20981958118150487,0.5533495238685956
1728405441700380400,1.50638037109375,-1.5340648889541626,1.3212257623672485,1.1249083280563354,0.7432782053947449,0.3240564167499542,-0.5852563381195068,-0.18169379234313965,0.10628718137741089,-0.03023749589920044,0.6949966083720928,-0.4029607527245578,0.2121190048553905,0.5564241995800219
1728405441710411300,1.516411376953125,-1.441243052482605,1.3529713153839111,1.0582784414291382,0.7546461820602417,0.32444387674331665,-0.5703028440475464,-0.13330835103988647,0.16888803243637085,-0.06601929664611816,0.6874548613099567,-0.41071007270768073,0.21486234658928322,0.5590681560315022
1728405441720441300,1.52644140625,-1.350926160812378,1.2584730386734009,0.9342030882835388,0.7653343081474304,0.32470443844795227,-0.55572509765625,-0.0673058032989502,0.24649304151535034,-0.103424072265625,0.6803214558741421,-0.4181094995946797,0.2175359669130556,0.5612710518885602
1728405441730472400,1.536472412109375,-1.2710024118423462,1.0563000440597534,0.7888935804367065,0.7745391130447388,0.3252602219581604,-0.5424897074699402,-0.01292717456817627,0.2995566725730896,-0.12186276912689209,0.6738446256423472,-0.42488728991100017,0.21960405941794978,0.5631858977414306
1728405441740502300,1.546502197265625,-1.1772674322128296,0.8953495025634766,0.6805660128593445,0.7821216583251953,0.32615798711776733,-0.5309489369392395,0.007993638515472412,0.31799179315567017,-0.13599753379821777,0.6680813560377763,-0.4309361082486511,0.2209515627222083,0.5649264591553131
1728405441750533400,1.556533447265625,-1.0427170991897583,0.984817624092102,0.6629081964492798,0.7891666889190674,0.32674869894981384,-0.5200492739677429,-0.014981567859649658,0.32654106616973877,-0.16044700145721436,0.6627449809722944,-0.43651510072886734,0.2223284344316659,0.5663865852313247
1728405441760564200,1.566564208984375,-0.9425991177558899,1.2049304246902466,0.6446916460990906,0.7969814538955688,0.3266456425189972,-0.5080583691596985,-0.04145783185958862,0.3477775752544403,-0.2312300205230713,0.6574695259380522,-0.44218484892417265,0.22459605038546193,0.567241691689686
1728405441770594300,1.57659423828125,-0.9001558423042297,1.2966006994247437,0.5843020677566528,0.8053382635116577,0.3263034224510193,-0.494930624961853,-0.04746478796005249,0.3657589554786682,-0.28918808698654175,0.6522390512605807,-0.44808269503580483,0.2275007247725758,0.5674940800227907
1728405441780625400,1.58662548828125,-0.9791713356971741,1.2494540214538574,0.48832306265830994,0.8133602738380432,0.32652008533477783,-0.4814870357513428,-0.02161228656768799,0.33694732189178467,-0.2757914662361145,0.647130998070752,-0.4541503246668299,0.23022590908273627,0.5674196689795363
1728405441790655500,1.596655517578125,-1.1136996746063232,1.091615915298462,0.3590460419654846,0.8203706741333008,0.3280353248119354,-0.46838533878326416,0.03499126434326172,0.2734508812427521,-0.22469943761825562,0.6421542684221098,-0.46040127315322515,0.23203016807626745,0.567301130974616
1728405441800686300,1.606686279296875,-1.1538255214691162,0.8082446455955505,0.19437532126903534,0.8257236480712891,0.3310418128967285,-0.456718385219574,0.09369462728500366,0.2204870879650116,-0.1487656533718109,0.6375833385336372,-0.4664679501444084,0.23248324111635846,0.5673152327033953
1728405441810717400,1.616717529296875,-1.0736372470855713,0.5644716024398804,0.008021954447031021,0.8291639089584351,0.3352934718132019,-0.447286993265152,0.12466299533843994,0.1838563084602356,-0.12833565473556519,0.6338597413222459,-0.47187601606525414,0.2317100159410177,0.5673318481693244
1728405441820747300,1.626747314453125,-0.8717250823974609,0.4127516448497772,-0.15605565905570984,0.8310571312904358,0.34028705954551697,-0.4399418830871582,0.12168633937835693,0.20216289162635803,-0.15499836206436157,0.6311888362046771,-0.47644651700323415,0.23027761165776173,0.5670729236287398
1728405441830778400,1.6367783203125,-0.5807267427444458,0.4202750623226166,-0.2241968959569931,0.8321523070335388,0.345137357711792,-0.43405383825302124,0.0825815200805664,0.2552959620952606,-0.14155352115631104,0.6295253204249492,-0.48013675293869035,0.22900171623301693,0.5663257142176341
1728405441840808400,1.646808349609375,-0.31691938638687134,0.6073389649391174,-0.24153009057044983,0.8335376381874084,0.3489952087402344,-0.4282725155353546,0.03136098384857178,0.2834968864917755,-0.17776089906692505,0.6285459726447391,-0.48323492325823986,0.2287963231987768,0.5648594557844098
1728405441850839300,1.65683935546875,-0.202836811542511,0.7704018950462341,-0.28002792596817017,0.835608184337616,0.35223016142845154,-0.42153650522232056,-0.004233062267303467,0.25796881318092346,-0.2659788131713867,0.6278548386487472,-0.4863033987346213,0.22965354199703042,0.5626425619758575
1728405441860869400,1.666869384765625,-0.2008887082338333,0.792305588722229,-0.3316003084182739,0.837837278842926,0.35562917590141296,-0.4141938388347626,-0.0257493257522583,0.20699286460876465,-0.2806303799152374,0.6273259380691352,-0.4895040978424487,0.2308436974697547,0.5599634366534445
1728405441870900500,1.676900390625,-0.22189773619174957,0.6908648610115051,-0.36511698365211487,0.8396560549736023,0.3594440221786499,-0.4071579575538635,-0.01285862922668457,0.1292491853237152,-0.27077481150627136,0.6269148242720587,-0.49266761801610476,0.23173183125756763,0.557276130216408
1728405441880931300,1.686931396484375,-0.2424970120191574,0.504001796245575,-0.40376904606819153,0.8406826257705688,0.3636581301689148,-0.4012548625469208,0.03176909685134888,0.060139477252960205,-0.2556818723678589,0.6267143098977183,-0.49552803703960624,0.23200115266833235,0.5548482919778105
1728405441890961400,1.69696142578125,-0.19889333844184875,0.36224669218063354,-0.40760451555252075,0.8408726453781128,0.3680416941642761,-0.39683571457862854,0.06636917591094971,0.05818206071853638,-0.19111597537994385,0.6268075054740987,-0.4978980979333707,0.23168864001091863,0.5527479262927796
1728405441900992500,1.706992431640625,-0.09954439103603363,0.4060751497745514,-0.35052233934402466,0.8409844040870667,0.3717817962169647,-0.3930948078632355,0.08388125896453857,0.09588482975959778,-0.1638663411140442,0.6270257034091382,-0.49984766106868433,0.23152735916842526,0.5508050273570047
1728405441911022600,1.717022705078125,0.05051714554429054,0.31702637672424316,-0.4029024541378021,0.8410528302192688,0.3750357925891876,-0.38984400033950806,0.1096307635307312,0.10264059901237488,-0.19140911102294922,0.6275479589992019,-0.5013976932678859,0.23168589641155538,0.5487308710686603
1728405441921053700,1.7270537109375,0.13792502880096436,0.2363685667514801,-0.45495685935020447,0.8404672741889954,0.3782862424850464,-0.3879617154598236,0.10710352659225464,0.08661854267120361,-0.15622782707214355,0.6286878510360518,-0.5023144980636765,0.23173107400044093,0.5465641806578923
1728405441931084500,1.73708447265625,0.09054598957300186,0.2844819128513336,-0.41127490997314453,0.8398118615150452,0.381519615650177,-0.38621073961257935,0.09073007106781006,0.015880286693572998,-0.09480735659599304,0.6298778720812381,-0.5031666365062766,0.23177135962798082,0.544388774598138
1728405441941114600,1.747114501953125,-0.01504382025450468,0.2965787947177887,-0.3821638822555542,0.839436948299408,0.38467055559158325,-0.3838934600353241,0.08454370498657227,-0.06644850969314575,-0.05064636468887329,0.6307116042983613,-0.5042942529428389,0.23182012847036285,0.5423556472513951
1728405441951145700,1.757145751953125,-0.15000496804714203,0.2577557861804962,-0.398765504360199,0.8389917612075806,0.3883218765258789,-0.3811812400817871,0.07459771633148193,-0.1353921890258789,-0.026854097843170166,0.6312298804172644,-0.5057951463040082,0.23147492963583402,0.5404994276620199
1728405441961175800,1.76717578125,-0.2332412749528885,0.3096623718738556,-0.333019495010376,0.8385844826698303,0.3922080397605896,-0.3780858814716339,0.0515979528427124,-0.1573752760887146,-0.006099998950958252,0.6314268031045114,-0.5075948680966947,0.2308777013517404,0.5388350073032735
1728405441971206700,1.77720654296875,-0.3456851840019226,0.3952822685241699,-0.20918279886245728,0.8388632535934448,0.3955918252468109,-0.37391915917396545,0.0525398850440979,-0.1544114351272583,-0.044202178716659546,0.6309999855677518,-0.5097995887996973,0.23053154610325446,0.537399841021606
1728405441981237800,1.78723779296875,-0.41867151856422424,0.3627687990665436,-0.12134215980768204,0.8396635055541992,0.3983723819255829,-0.36914029717445374,0.07551276683807373,-0.14393213391304016,-0.05900612473487854,0.6300045037170836,-0.5122371888227703,0.23031048264392953,0.5363435387301944
1728405441991267600,1.797267578125,-0.49915269017219543,0.2791854441165924,-0.0928356871008873,0.8404327034950256,0.40094149112701416,-0.3645804226398468,0.09474796056747437,-0.13878026604652405,-0.04447728395462036,0.6287300238609508,-0.5146746393473505,0.22982559504443276,0.5357133847490215
1728405442001298700,1.807298583984375,-0.5432189702987671,0.1578454226255417,-0.10455412417650223,0.8408516645431519,0.4036513864994049,-0.36060211062431335,0.1060171127319336,-0.13511201739311218,-0.03795751929283142,0.6273722698830728,-0.5170302645863971,0.22886383044968756,0.5354483414174925
1728405442011328800,1.817328857421875,-0.5030865669250488,0.05263926088809967,-0.1332464963197708,0.8407403230667114,0.4065439999103546,-0.357599675655365,0.10164237022399902,-0.1250346302986145,-0.0067192018032073975,0.6262024123206645,-0.5190961453792486,0.2274628726857526,0.5354159711465182
1728405442021359600,1.827359619140625,-0.414266437292099,0.020591044798493385,-0.16258147358894348,0.8402520418167114,0.40944841504096985,-0.35542720556259155,0.08052432537078857,-0.11269551515579224,0.012516379356384277,0.6253607494304325,-0.5208038098116484,0.22594199428846165,0.5353854076067635
1728405442031390700,1.837390625,-0.3026648163795471,0.04932133108377457,-0.17308925092220306,0.8396543264389038,0.41216278076171875,-0.3536983132362366,0.04294455051422119,-0.09429168701171875,0.026137828826904297,0.6248416954772424,-0.5222035840497289,0.22462024162860536,0.5351841113930641
1728405442041420800,1.8474208984375,-0.19262807071208954,0.17860795557498932,-0.14228712022304535,0.8393849730491638,0.41435787081718445,-0.3517678380012512,0.004319250583648682,-0.08746880292892456,0.025748491287231445,0.6244964339359023,-0.5234416477540679,0.223885962972516,0.5346851822415476
1728405442051451600,1.85745166015625,-0.15626539289951324,0.3297775685787201,-0.11397718638181686,0.8397689461708069,0.4160149395465851,-0.34888362884521484,-0.015565454959869385,-0.11291435360908508,-0.01644235849380493,0.6240982703352864,-0.524806887509182,0.22391052023569977,0.5338007158172037
1728405442061481500,1.8674814453125,-0.15605953335762024,0.41425248980522156,-0.10384945571422577,0.8406275510787964,0.41747725009918213,-0.34504809975624084,-0.0025232434272766113,-0.12568336725234985,-0.05335894227027893,0.6235598502416719,-0.5264253401393524,0.22439320176332803,0.5326323950892403
1728405442071512600,1.8775126953125,-0.2244461178779602,0.390601247549057,-0.08963030576705933,0.8416462540626526,0.418937623500824,-0.34076836705207825,0.04527097940444946,-0.1253432035446167,-0.062002748250961304,0.622856479031705,-0.5282245896952834,0.2249324401783156,0.5314453299170792
1728405442081543700,1.887543701171875,-0.3113575577735901,0.206170454621315,-0.08114387840032578,0.8423250913619995,0.42057812213897705,-0.3370497524738312,0.12422764301300049,-0.11468517780303955,-0.06343251466751099,0.6220215022329807,-0.5299788170535109,0.22493906693293195,0.5306732955521525
1728405442091573500,1.897573486328125,-0.3883018493652344,0.0018169842660427094,-0.09316245466470718,0.8423062562942505,0.42248329520225525,-0.33470582962036133,0.19156819581985474,-0.10159093141555786,-0.04073673486709595,0.6212031651546955,-0.5314389723975187,0.22409752710850883,0.5305276105864069
1728405442101604600,1.9076044921875,-0.40390902757644653,-0.11558607965707779,-0.09703655540943146,0.8416821360588074,0.4246521294116974,-0.33352938294410706,0.21451598405838013,-0.08755496144294739,-0.03449743986129761,0.6204526548899237,-0.5326351729959576,0.22256478560216547,0.5308514471487586
1728405442111634400,1.917634521484375,-0.3221612870693207,-0.10863745957612991,-0.059592776000499725,0.8409401178359985,0.4265633523464203,-0.3329618573188782,0.19471967220306396,-0.04887780547142029,-0.0481722354888916,0.6198129794843567,-0.5335540127479693,0.2209958846779846,0.5313312685864151
1728405442121665500,1.92766552734375,-0.1565914899110794,-0.012666190974414349,-0.0160016231238842,0.8405793905258179,0.4276784062385559,-0.3324418067932129,0.15675032138824463,-0.009648621082305908,-0.06800991296768188,0.6193219822031596,-0.5341862834994394,0.22005480127407773,0.5316589411594103
1728405442131695600,1.937695556640625,-0.007644760422408581,0.08773897588253021,0.0010026604868471622,0.8406965732574463,0.4279813766479492,-0.33175498247146606,0.12449812889099121,0.010205298662185669,-0.08403182029724121,0.6190735121052681,-0.5345483860170525,0.21995576062308453,0.531625379509429
1728405442141726500,1.9477265625,0.09522755444049835,0.15157334506511688,0.003161418717354536,0.8411171436309814,0.4278120994567871,-0.3309061527252197,0.10154032707214355,0.007093906402587891,-0.07955533266067505,0.6190534491724952,-0.5347345426323384,0.22046745486189254,0.5312494475263552
1728405442151757600,1.957757568359375,0.14155317842960358,0.16146348416805267,-0.002985157072544098,0.8416612148284912,0.42739588022232056,-0.33005955815315247,0.10018754005432129,-0.007306158542633057,-0.0560184121131897,0.6191903276040158,-0.5347892372408142,0.22129323318347968,0.5306912573631752
1728405442161787400,1.967787353515625,0.17776231467723846,0.12409134209156036,-0.028162149712443352,0.8420925140380859,0.4269813299179077,-0.32949572801589966,0.11304676532745361,-0.02390509843826294,-0.037737637758255005,0.6194853327731965,-0.5347033291720341,0.22213620170998521,0.5300811040783172
1728405442171818500,1.977818603515625,0.250501424074173,0.07167782634496689,-0.054029431194067,0.8422493934631348,0.4266425669193268,-0.3295331597328186,0.11865752935409546,-0.025458484888076782,-0.018855571746826172,0.6200399499296165,-0.5343711511553865,0.22289209991616238,0.5294497891004807
1728405442181848600,1.9878486328125,0.36933138966560364,0.06683113425970078,-0.05644411966204643,0.8422077298164368,0.42611372470855713,-0.3303227722644806,0.10936081409454346,-0.007671982049942017,-0.01179453730583191,0.6209532792636827,-0.5336415752668787,0.22375271920807943,0.5287516616960742
1728405442191879400,1.99787939453125,0.5117114186286926,0.1926044523715973,-0.019352145493030548,0.8424520492553711,0.42496976256370544,-0.33117255568504333,0.09050077199935913,0.020281702280044556,-0.02212950587272644,0.622089525454308,-0.5326355603663984,0.22519566195203625,0.5278171098782511
1728405442201910500,2.00791064453125,0.5980290174484253,0.32986804842948914,0.021925251930952072,0.8433645367622375,0.4230808615684509,-0.3312682807445526,0.0732613205909729,0.034102946519851685,-0.06633004546165466,0.6232665438612162,-0.5315984501144597,0.22752791664392266,0.5264720761660402
1728405442211940600,2.017940673828125,0.630175769329071,0.3390839099884033,0.041926924139261246,0.8446518182754517,0.4207545816898346,-0.3309513032436371,0.06757950782775879,0.028601467609405518,-0.10433623194694519,0.6244181611202363,-0.5305460230233995,0.23031558677546382,0.5249548125765255
1728405442221971500,2.027971435546875,0.6294436454772949,0.27126386761665344,0.0483696423470974,0.8458690643310547,0.4182760715484619,-0.3309843838214874,0.08258241415023804,0.015958547592163086,-0.07801228761672974,0.6256229162480818,-0.5293259436347,0.23307050080700373,0.5235343112246141
1728405442232001500,2.03800146484375,0.6244051456451416,0.17290453612804413,0.049679651856422424,0.8468257784843445,0.4157625436782837,-0.3317040503025055,0.10730624198913574,0.006402343511581421,-0.05644908547401428,0.6268865149598309,-0.5278861998792667,0.23555070861541608,0.5223650875476883
1728405442242032600,2.04803271484375,0.6511203646659851,0.09080778807401657,0.024153251200914383,0.8474265336990356,0.41330137848854065,-0.33324185013771057,0.1108253002166748,0.012052565813064575,-0.032389312982559204,0.628301875855121,-0.526180612016852,0.23772471013995136,0.5213996272709783
1728405442252063500,2.0580634765625,0.7263981699943542,0.06284987181425095,-0.017452247440814972,0.8476982116699219,0.41095268726348877,-0.3354485332965851,0.0790138840675354,0.027478158473968506,-0.011444836854934692,0.6300050812658217,-0.5242027593391017,0.23976487780523892,0.5204017237699532
1728405442262093600,2.068093505859375,0.8306060433387756,0.09186074882745743,-0.060132067650556564,0.8477972745895386,0.4086626470088959,-0.33798637986183167,0.019100308418273926,0.044248729944229126,-0.0021930932998657227,0.6320454730286483,-0.5219957521001759,0.2419240375568001,0.5191453052822559
1728405442272124400,2.07812451171875,0.9785396456718445,0.2150103747844696,-0.0637129545211792,0.8480308651924133,0.40614834427833557,-0.3404219150543213,-0.048531413078308105,0.05747467279434204,0.0013715922832489014,0.6343957227232779,-0.5195909828952084,0.24456952495523324,0.5174484779774595
1728405442282154500,2.088154541015625,1.1070358753204346,0.41266700625419617,-0.03337794914841652,0.8489024043083191,0.40300509333610535,-0.34198182821273804,-0.10164904594421387,0.07061249017715454,-0.02508366107940674,0.6368539816344622,-0.5171388018814759,0.24814623142447578,0.5151775320225204
1728405442292185600,2.098185546875,1.197507381439209,0.5977798700332642,0.007041644770652056,0.8506082892417908,0.3991565406322479,-0.34225690364837646,-0.13057655096054077,0.08056449890136719,-0.03707665205001831,0.6392314507602957,-0.5147822879059407,0.2527266218676898,0.5123589798625725
1728405442302216400,2.108216552734375,1.2437340021133423,0.7225039601325989,0.06485594063997269,0.8530332446098328,0.39464452862739563,-0.34145286679267883,-0.12975138425827026,0.08777734637260437,-0.03592759370803833,0.641437173542743,-0.512507235280617,0.2580889392851784,0.509200174192159
1728405442312246500,2.11824658203125,1.2226364612579346,0.7817025780677795,0.12698429822921753,0.8560090661048889,0.3895992934703827,-0.33979517221450806,-0.09773892164230347,0.07577845454216003,-0.04281899333000183,0.6433628113129656,-0.510338095567157,0.2639269693856484,0.5059464172840153
1728405442322277600,2.128277587890625,1.2132620811462402,0.7107359766960144,0.1605401188135147,0.8591371178627014,0.38421642780303955,-0.33802545070648193,-0.04035055637359619,0.05818164348602295,-0.04399365186691284,0.6450941446026518,-0.5081217510288569,0.2698139466326706,0.5028581628338956
1728405442332307500,2.138307373046875,1.1660892963409424,0.6066199541091919,0.1922019124031067,0.8620365858078003,0.378660649061203,-0.33691099286079407,0.015313208103179932,0.05122518539428711,-0.03354194760322571,0.6467877365797112,-0.5056699781578958,0.2753949567165634,0.5001210582363389
1728405442342338600,2.148338623046875,1.0785099267959595,0.5557247996330261,0.24814482033252716,0.8648208975791931,0.37297022342681885,-0.3361218273639679,0.05482625961303711,0.051788657903671265,-0.028197020292282104,0.6482725702011104,-0.5031675386159364,0.2806448064163269,0.49779862520684687
1728405442352369700,2.15836962890625,0.9710723757743835,0.5506792068481445,0.3099519908428192,0.8677319884300232,0.3670664429664612,-0.3351171314716339,0.0669603943824768,0.05918782949447632,-0.023174524307250977,0.6493652451454249,-0.5008093809950896,0.28571207920901437,0.4958662945796035
1728405442362399500,2.1683994140625,0.8610377907752991,0.5796620845794678,0.34413260221481323,0.8708285689353943,0.36113035678863525,-0.33353039622306824,0.05574613809585571,0.050109267234802246,-0.023037075996398926,0.6500210045132778,-0.49875843210445175,0.2906455466109733,0.4942043218298872
1728405442372430600,2.1784306640625,0.7810044288635254,0.629844605922699,0.37433871626853943,0.8741444945335388,0.3552475869655609,-0.3311655521392822,0.03091531991958618,0.03850546479225159,-0.02898770570755005,0.6502835931144356,-0.49705900918500634,0.29554960935161745,0.49266017011397256
1728405442382460700,2.188460693359375,0.7254796624183655,0.6725395917892456,0.42616143822669983,0.8777101039886475,0.34924933314323425,-0.3281002640724182,0.016912639141082764,0.04622793197631836,-0.04302406311035156,0.6501938200765809,-0.49561730081285366,0.30052181507827413,0.4912210230510259
1728405442392491500,2.198491455078125,0.6743993759155273,0.7154505252838135,0.47736257314682007,0.8815604448318481,0.3429695963859558,-0.3243809640407562,0.02343827486038208,0.0663168728351593,-0.06070515513420105,0.6497575541263724,-0.4943643808227678,0.30563603148702595,0.4899036165452907
1728405442402521600,2.208521484375,0.6667346358299255,0.6995779871940613,0.5073286890983582,0.885553240776062,0.33641788363456726,-0.32034122943878174,0.04350864887237549,0.08063530921936035,-0.08676332235336304,0.6490912794140977,-0.4931732745701267,0.31082070354989116,0.4887239798830866
1728405442412552700,2.218552734375,0.6720134615898132,0.6467675566673279,0.5144835710525513,0.8894243240356445,0.32971909642219543,-0.3165590167045593,0.0643109679222107,0.08782237768173218,-0.09947189688682556,0.6484270146539026,-0.49184595202154757,0.31592411842852136,0.48766983073101455
1728405442422583600,2.22858349609375,0.6725572347640991,0.6221258640289307,0.5230996608734131,0.8931299448013306,0.32296833395957947,-0.31306618452072144,0.08216607570648193,0.10298073291778564,-0.08659207820892334,0.647798815770017,-0.49039163002246366,0.3209095711903377,0.4867132815243838
1728405442432613600,2.238613525390625,0.6566283106803894,0.5795484185218811,0.5354753732681274,0.8967316746711731,0.3161098062992096,-0.30975276231765747,0.09917885065078735,0.1283176839351654,-0.07504341006278992,0.647153842149304,-0.4888444981444441,0.3258138630276741,0.4858685190943373
1728405442442644500,2.24864453125,0.5929779410362244,0.5097323060035706,0.5119977593421936,0.9000737071037292,0.3094395399093628,-0.3067808151245117,0.11005806922912598,0.13274487853050232,-0.06925681233406067,0.6465074030713414,-0.48728164183994704,0.3304030795089907,0.48519951761818125
1728405442452674600,2.258674560546875,0.5196599364280701,0.4283006191253662,0.4736834168434143,0.9030359387397766,0.3032895624637604,-0.304206520318985,0.10688227415084839,0.11770039796829224,-0.0574420690536499,0.6458674097644761,-0.48581963768642633,0.33447872263861983,0.48472525807596223
1728405442462705700,2.26870556640625,0.49734774231910706,0.36633604764938354,0.44272708892822266,0.9056293368339539,0.2976091504096985,-0.3021000623703003,0.09539300203323364,0.10124033689498901,-0.04988974332809448,0.6453060214199345,-0.4843894244250005,0.33810775012370725,0.4843865190006501
1728405442472736500,2.278736572265625,0.5168796181678772,0.33775919675827026,0.4207085967063904,0.9079768061637878,0.2921646237373352,-0.30036336183547974,0.07978564500808716,0.09112086892127991,-0.05383896827697754,0.64486851673403,-0.4828915334591414,0.3415173378622097,0.484072725380263
1728405442482766600,2.2887666015625,0.5855103135108948,0.37004444003105164,0.392753928899765,0.910232424736023,0.28680548071861267,-0.29869648814201355,0.06019604206085205,0.09615960717201233,-0.05565845966339111,0.6445977927584015,-0.4812803857486999,0.3449941262601468,0.4835720864731666
1728405442492797700,2.298797607421875,0.6484310626983643,0.3629719913005829,0.36214888095855713,0.9124281406402588,0.28150469064712524,-0.2970355153083801,0.04557967185974121,0.10670942068099976,-0.07628607749938965,0.6445146468849975,-0.4795363794365927,0.3486073814218345,0.4828236234616699
1728405442502827500,2.30882763671875,0.700294554233551,0.33427590131759644,0.33545923233032227,0.9144548773765564,0.2763024568557739,-0.29568448662757874,0.038685381412506104,0.11653506755828857,-0.06543010473251343,0.6446751104694886,-0.47759257992847737,0.3522259040339917,0.4819089823181324
1728405442512858600,2.318858642578125,0.6882935166358948,0.30120113492012024,0.31070512533187866,0.9163067936897278,0.27128133177757263,-0.29459866881370544,0.04197567701339722,0.11201941967010498,-0.06190770864486694,0.6449788788756486,-0.4755587171006499,0.35573103461323424,0.48093826177896165
1728405442522889700,2.3288896484375,0.6273433566093445,0.25363948941230774,0.26816219091415405,0.9179368615150452,0.26668477058410645,-0.2937193214893341,0.04113894701004028,0.09546729922294617,-0.05058005452156067,0.6453262440891697,-0.4736123548666984,0.3589313064111474,0.48001413338578075
1728405442532919600,2.33891943359375,0.5574299693107605,0.21726645529270172,0.22155074775218964,0.9193050861358643,0.2627117335796356,-0.2930198311805725,0.03270596265792847,0.0720812976360321,-0.03312155604362488,0.6456979687535431,-0.47185418156748204,0.36172326866745874,0.4791492064566521
1728405442542950700,2.34895068359375,0.4585305154323578,0.20909985899925232,0.16802307963371277,0.9204655885696411,0.2594943940639496,-0.292243093252182,0.018194198608398438,0.042736440896987915,-0.02080628275871277,0.646019478352454,-0.47042716373367083,0.36411087755081994,0.47831009974096933
1728405442552980700,2.358980712890625,0.4070899784564972,0.18122126162052155,0.1481843888759613,0.9214769005775452,0.2568378746509552,-0.2914011776447296,0.005830228328704834,0.0263499915599823,-0.009105503559112549,0.6462652689311742,-0.46927702754557904,0.36616728833385165,0.4775372058513923
1728405442563011600,2.369011474609375,0.3840368688106537,0.11787717044353485,0.138252392411232,0.9222974181175232,0.25442278385162354,-0.29092344641685486,0.00021839141845703125,0.01465064287185669,0.006652146577835083,0.6465560542684392,-0.46814226884384674,0.3679416949400606,0.4768930079632375
1728405442573041700,2.379041748046875,0.4510345160961151,0.12678001821041107,0.1366603523492813,0.9230074882507324,0.2520151436328888,-0.2907670736312866,-0.005099833011627197,0.004225671291351318,0.026500076055526733,0.6469596008889051,-0.46688383907632586,0.3696429929788366,0.4762633650287611
1728405442583072800,2.38907275390625,0.5393342971801758,0.19478197395801544,0.15443189442157745,0.923846960067749,0.24927808344364166,-0.2904604375362396,-0.018588781356811523,0.0020189136266708374,0.02700209617614746,0.647467009294166,-0.4654210040717213,0.371689489756673,0.47541215376047014
1728405442593103600,2.399103515625,0.6040997505187988,0.2782018184661865,0.16731414198875427,0.9249574542045593,0.24615700542926788,-0.28958678245544434,-0.027847468852996826,0.0034462660551071167,0.01856011152267456,0.647961963179028,-0.46385899355171534,0.3742211058812677,0.4742770473977596
1728405442603133700,2.4091337890625,0.606640636920929,0.30958741903305054,0.17557740211486816,0.9262641072273254,0.2428124099969864,-0.28823086619377136,-0.02475959062576294,0.005570158362388611,0.0238112211227417,0.6483899889797851,-0.46229089070194734,0.3770566337194974,0.47297558801687073
1728405442613164500,2.41916455078125,0.515055239200592,0.2972705066204071,0.17778275907039642,0.9275898337364197,0.239569291472435,-0.2866770327091217,-0.009209096431732178,-0.012182846665382385,0.03116852045059204,0.6486868652427866,-0.46087077307168955,0.3798152443738405,0.4717455953578524
1728405442623194600,2.429194580078125,0.3990548849105835,0.263132780790329,0.17767436802387238,0.9288310408592224,0.2366563379764557,-0.28507286310195923,0.008058547973632812,-0.03359237313270569,0.03925371170043945,0.6487646632879329,-0.4597531473628968,0.38221802088887624,0.47078739566808064
1728405442633225700,2.439225830078125,0.32242152094841003,0.20912979543209076,0.17978225648403168,0.9299387335777283,0.23397907614707947,-0.2836686074733734,0.01989036798477173,-0.05387960374355316,0.038307249546051025,0.648705762413292,-0.4588167598058045,0.3842562627904188,0.4701225563962245
1728405442643256600,2.449256591796875,0.26395899057388306,0.18877366185188293,0.17491772770881653,0.9309164881706238,0.23152409493923187,-0.28247305750846863,0.021201372146606445,-0.061327606439590454,0.03520432114601135,0.6485678244195162,-0.4580127044221288,0.3859894277962534,0.4696767417217377
1728405442653286700,2.45928662109375,0.2429664134979248,0.22980259358882904,0.17171421647071838,0.9319063425064087,0.22922830283641815,-0.2810783386230469,0.005395233631134033,-0.04523785412311554,0.0468711256980896,0.6483268190782123,-0.4573707440840917,0.38765040853624866,0.46926705981655226
1728405442663317800,2.46931787109375,0.2556089758872986,0.2788665294647217,0.18272638320922852,0.9330347776412964,0.22687208652496338,-0.279240220785141,-0.018270432949066162,-0.029209747910499573,0.04199647903442383,0.6479819798587643,-0.45681953848154155,0.3894814493293267,0.46876375080368005
1728405442673347600,2.47934765625,0.2842068076133728,0.3111337721347809,0.18433226644992828,0.9342952966690063,0.2244144082069397,-0.2770026922225952,-0.03443872928619385,-0.03027684986591339,0.03518134355545044,0.6475604847355044,-0.456314286316013,0.391504698398998,0.46815248501492146
1728405442683378700,2.489378662109375,0.344750314950943,0.3546181321144104,0.1858374923467636,0.9356223344802856,0.22184017300605774,-0.2745865285396576,-0.04420393705368042,-0.02906067669391632,0.03578647971153259,0.6471934273620125,-0.4557199526595593,0.3937334813683425,0.4673691250065579
1728405442693409800,2.499409912109375,0.39712682366371155,0.4082852303981781,0.19828137755393982,0.9370924234390259,0.21907298266887665,-0.27178049087524414,-0.04675745964050293,-0.02139541506767273,0.014028996229171753,0.6468308936893613,-0.45505811237321486,0.39627246980116504,0.46636889266523823
1728405442703439400,2.509439453125,0.4546170234680176,0.44628801941871643,0.22106552124023438,0.9387266635894775,0.21594564616680145,-0.26862549781799316,-0.045294106006622314,-0.014529675245285034,0.009866923093795776,0.6464475550132985,-0.45427157442896005,0.399154833631377,0.46520775300502887
1728405442713470700,2.519470703125,0.46398091316223145,0.43817949295043945,0.2311152219772339,0.9404066801071167,0.21256700158119202,-0.2654254138469696,-0.0358504056930542,-0.030010879039764404,0.0034624338150024414,0.64607709199876,-0.4533530641771929,0.40219186472448926,0.46400124735046483
1728405442723500500,2.52950048828125,0.45073753595352173,0.42415741086006165,0.23660773038864136,0.9420453906059265,0.20915591716766357,-0.2623058259487152,-0.02813553810119629,-0.04449833929538727,0.010215282440185547,0.6456914897112146,-0.4524112154750345,0.4051804263794761,0.46285579976888663
1728405442733531400,2.539531494140625,0.42690184712409973,0.38224345445632935,0.24731017649173737,0.9436074495315552,0.20574723184108734,-0.25937044620513916,-0.024173855781555176,-0.04867325723171234,0.017213404178619385,0.6453035328382581,-0.4514452927294394,0.4080587244244419,0.4618100668303957
1728405442743562800,2.549562744140625,0.4301455616950989,0.30870240926742554,0.27416256070137024,0.945039689540863,0.2021898627281189,-0.25694212317466736,-0.019319474697113037,-0.04946468770503998,0.02018672227859497,0.6449499008484469,-0.45034297153204833,0.41075557345701974,0.46098880355139327
1728405442753592600,2.559592529296875,0.4625972509384155,0.24998748302459717,0.31248944997787476,0.9463405609130859,0.19827842712402344,-0.2551966905593872,-0.016073167324066162,-0.04706382751464844,0.029519110918045044,0.6447089762651527,-0.4489392736559364,0.41334632646469294,0.4603789864673586
1728405442763623400,2.56962353515625,0.4402919411659241,0.2573583126068115,0.3275991678237915,0.9475870132446289,0.19410158693790436,-0.25377848744392395,-0.025483131408691406,-0.052347466349601746,0.020898759365081787,0.6444940946475959,-0.44736885893101275,0.41589886610394433,0.45990938491782907
1728405442773653500,2.579653564453125,0.373756468296051,0.32059845328330994,0.34073442220687866,0.9489632248878479,0.189894899725914,-0.2518109679222107,-0.0511818528175354,-0.056090593338012695,0.024088740348815918,0.6440288672251974,-0.44602436497660297,0.41851735769487425,0.4594913821596029
1728405442783684600,2.5896845703125,0.28236475586891174,0.3664165437221527,0.3522152900695801,0.9504947066307068,0.18576788902282715,-0.24909867346286774,-0.06943702697753906,-0.06020332872867584,0.028563320636749268,0.6432271827762757,-0.4450406271367755,0.42117633395291143,0.45913853385524384
1728405442793715500,2.599715576171875,0.1997648924589157,0.35037294030189514,0.3595309853553772,0.9520535469055176,0.18176455795764923,-0.24608103930950165,-0.07137715816497803,-0.07026861608028412,0.02664431929588318,0.6421753300846959,-0.44434235851779813,0.4236972349522358,0.4589678735844278
1728405442803745500,2.60974560546875,0.13705569505691528,0.29926741123199463,0.3789036273956299,0.953513503074646,0.17784346640110016,-0.2432771623134613,-0.054572463035583496,-0.07077257335186005,0.03972482681274414,0.641001518946256,-0.4437772698332851,0.4259379672895291,0.45908134104067305
1728405442813776400,2.6197763671875,0.1324063539505005,0.256761759519577,0.40073463320732117,0.9548786282539368,0.17380738258361816,-0.240827277302742,-0.03623855113983154,-0.06464602053165436,0.049741387367248535,0.6397943111061822,-0.4431735808461871,0.4279994569138428,0.4594310545121564
1728405442823806500,2.629806396484375,0.2202773541212082,0.23139676451683044,0.4159705638885498,0.9561560750007629,0.1694847047328949,-0.23883134126663208,-0.018518805503845215,-0.053624749183654785,0.050369992852211,0.6387218282362829,-0.4422955176895194,0.43006860753446224,0.4598369756873442
1728405442833837600,2.639837646484375,0.3440302610397339,0.22375310957431793,0.4291665256023407,0.9574061036109924,0.16476412117481232,-0.23712065815925598,-0.011910557746887207,-0.02998325228691101,0.03199666738510132,0.6378772998243311,-0.4410094812012499,0.43237750372311595,0.460079159223277
1728405442843867600,2.64986767578125,0.46332576870918274,0.22297945618629456,0.4341413080692291,0.9586402773857117,0.15963271260261536,-0.23563972115516663,-0.007300674915313721,0.00687117874622345,0.02696046233177185,0.6372919758783679,-0.4392779388116636,0.4349885397305166,0.4600855748094131
1728405442853898500,2.6598984375,0.5338056087493896,0.20912586152553558,0.44260403513908386,0.9598500728607178,0.15423133969306946,-0.2343081533908844,-0.0008963346481323242,0.024677932262420654,0.028772249817848206,0.6368980745853291,-0.4372262249563399,0.4378117730067618,0.4599073978284716
1728405442863929600,2.6699296875,0.5519416928291321,0.1852937638759613,0.44448503851890564,0.9609865546226501,0.1486785113811493,-0.2332371473312378,0.005535602569580078,0.025286898016929626,0.027731716632843018,0.6366382796959442,-0.4349573253263704,0.44067397151665183,0.45968502364288705
1728405442873959400,2.67995947265625,0.5055615305900574,0.16357894241809845,0.43838587403297424,0.9620417952537537,0.14317718148231506,-0.2323267161846161,0.013086259365081787,0.009639546275138855,0.031200557947158813,0.6363900319837409,-0.43268314393653085,0.4434207269169909,0.4595334413843672
1728405442883990500,2.689990478515625,0.4151389002799988,0.15576042234897614,0.4274381399154663,0.9630253911018372,0.13793706893920898,-0.23142047226428986,0.010851502418518066,-0.0034613758325576782,0.04901684820652008,0.6360309934295902,-0.43062351250220676,0.44592953877118324,0.45953754820794723
1728405442894020600,2.7000205078125,0.31873801350593567,0.16798247396945953,0.4258975088596344,0.9639816880226135,0.13296647369861603,-0.23034556210041046,0.002418339252471924,-0.02107381820678711,0.06301762163639069,0.6354603557133834,-0.42888602345551546,0.44820084553930223,0.4597421609408726
1728405442904052000,2.710052001953125,0.2886887788772583,0.18990188837051392,0.4195554554462433,0.9649493098258972,0.12817882001399994,-0.22900420427322388,-0.004118680953979492,-0.03947950899600983,0.0624086856842041,0.6347261512592793,-0.42738760840975554,0.45037509689591637,0.4600269485839652
1728405442914083000,2.7200830078125,0.3467576801776886,0.1826530247926712,0.41402220726013184,0.9659088850021362,0.12343066930770874,-0.2275630086660385,-0.0040863752365112305,-0.03724905848503113,0.04125314950942993,0.6340010629440421,-0.4258914034349717,0.4525870160429636,0.4602435757875445
1728405442924113200,2.730113037109375,0.5092282891273499,0.15008389949798584,0.4286360442638397,0.966802179813385,0.1183914989233017,-0.2264438271522522,-0.0008141398429870605,-0.0048508718609809875,0.033923640847206116,0.6335513684253379,-0.42397582401488226,0.4549973448230389,0.4602548077420018
1728405442934144000,2.74014404296875,0.6553032994270325,0.10746096074581146,0.44011878967285156,0.9676031470298767,0.11284890025854111,-0.22585232555866241,0.010988771915435791,0.0353902131319046,0.014456987380981445,0.6334921969939973,-0.4214217660523436,0.457687155860672,0.4600149821445386
1728405442944174000,2.750174072265625,0.7296470403671265,0.049345728009939194,0.4397534132003784,0.9682714343070984,0.10697474330663681,-0.2258470505475998,0.01923161745071411,0.067799411714077,0.014482259750366211,0.6337554169687326,-0.41837293808083065,0.4604786217325345,0.45964944915949174
1728405442954205000,2.760204833984375,0.7088003158569336,-0.008181322365999222,0.42308253049850464,0.9687669277191162,0.10111647099256516,-0.22642002999782562,0.013548076152801514,0.06329695135354996,0.036783769726753235,0.6342301954821132,-0.4151038262534037,0.46311855995878315,0.4593060278539341
1728405442964236000,2.770236083984375,0.605216383934021,-0.01020825281739235,0.40637654066085815,0.9691458940505981,0.09557527303695679,-0.22720380127429962,-0.007918477058410645,0.019140273332595825,0.05706822872161865,0.6346729981446108,-0.4120051440197803,0.46545661248966846,0.45912099509513593
1728405442974266000,2.78026611328125,0.5054318904876709,0.05087379738688469,0.4002813696861267,0.969566822052002,0.09038881212472916,-0.227530837059021,-0.0348590612411499,-0.019511766731739044,0.08080223202705383,0.6348409261162549,-0.4093408983900541,0.4676265708515613,0.45906704703536816
1728405442984297000,2.790296875,0.444919228553772,0.10325737297534943,0.3936018943786621,0.9700988531112671,0.08544526249170303,-0.22717274725437164,-0.052999794483184814,-0.03754792362451553,0.09417703747749329,0.6347069597608839,-0.40708493630967024,0.46978237543020984,0.4590572647541433
1728405442994327000,2.8003271484375,0.3852550685405731,0.11746720224618912,0.38871338963508606,0.9706801772117615,0.08069345355033875,-0.22642597556114197,-0.054038822650909424,-0.04671213775873184,0.10502699017524719,0.6343905407587715,-0.40509468403446636,0.4718954406558283,0.4590879439956376
1728405443004358100,2.810358154296875,0.3183002471923828,0.08987019956111908,0.3837636411190033,0.9712311625480652,0.07613526284694672,-0.22564004361629486,-0.03565382957458496,-0.04810488969087601,0.11039038002490997,0.633950491316744,-0.4033166832676326,0.47383080681632345,0.45926768209353847
1728405443014389000,2.820388916015625,0.2846909761428833,0.015360703691840172,0.3729860782623291,0.9716348648071289,0.0717841386795044,-0.22532780468463898,-0.009888708591461182,-0.03768078237771988,0.1160900741815567,0.6335498781844662,-0.4015995792064291,0.475451234245838,0.4596502814360027
1728405443024419000,2.830419189453125,0.2866175174713135,-0.07441232353448868,0.34616005420684814,0.9718194603919983,0.06764507293701172,-0.2258119285106659,0.010327696800231934,-0.027178794145584106,0.1042909175157547,0.6333630429062236,-0.3997732978943405,0.47673403802176045,0.46017082333922166
1728405443034450200,2.8404501953125,0.32314029335975647,-0.11167788505554199,0.33122479915618896,0.9718282222747803,0.06365938484668732,-0.22693048417568207,0.014347314834594727,-0.0061795637011528015,0.08549672365188599,0.633415268527825,-0.3977815155060181,0.47781233438138854,0.46070638139491377
1728405443044480000,2.85047998046875,0.38201531767845154,-0.09914691001176834,0.34050723910331726,0.9717932939529419,0.05957550182938576,-0.2281850129365921,-0.004752397537231445,0.015146765857934952,0.07693983614444733,0.6335954223291222,-0.3956071109177043,0.4789598142447165,0.4611391118990098
1728405443054511000,2.860510986328125,0.430503249168396,-0.04953930899500847,0.35243552923202515,0.9718189835548401,0.05524437129497528,-0.2291635423898697,-0.03543293476104736,0.017936747521162033,0.07527858018875122,0.633776624878453,-0.393299902110252,0.48034718014362415,0.46142063075525025
1728405443064541200,2.870541259765625,0.4774600863456726,0.08549441397190094,0.36570632457733154,0.9720399975776672,0.050712455064058304,-0.22927401959896088,-0.07134419679641724,0.0051651932299137115,0.0878860354423523,0.6338107031950109,-0.3910227262679974,0.4821454289331667,0.4614337238467529
1728405443074572000,2.880572021484375,0.5160524845123291,0.23348508775234222,0.38093242049217224,0.972591757774353,0.04595501720905304,-0.22793297469615936,-0.09826314449310303,-0.005351416766643524,0.07899188995361328,0.6335310918079099,-0.38891957710925684,0.4845359361963963,0.4610909523430494
1728405443084603100,2.89060302734375,0.5429219007492065,0.31220361590385437,0.3871232271194458,0.973392903804779,0.04099792242050171,-0.22544480860233307,-0.09604310989379883,-0.004117466509342194,0.0701407939195633,0.6329930252445078,-0.3869450198698561,0.4873921890044786,0.4604803744359073
1728405443094633200,2.90063330078125,0.5340211987495422,0.3157259225845337,0.39592763781547546,0.9742580056190491,0.03596825897693634,-0.22254815697669983,-0.07095295190811157,0.006283290684223175,0.06547409296035767,0.6323598990019206,-0.3850044440184202,0.49040544256979085,0.45977720214487844
1728405443104664000,2.9106640625,0.5155681371688843,0.27747175097465515,0.4063911736011505,0.9750543236732483,0.030879240483045578,-0.2198079228401184,-0.030916810035705566,0.020512331277132034,0.05649304389953613,0.631715223074873,-0.38303204096641835,0.4933381153617442,0.4591730179423477
1728405443114694100,2.920694091796875,0.47371116280555725,0.22378000617027283,0.41402673721313477,0.9757235050201416,0.02578161284327507,-0.21748338639736176,0.0057828426361083984,0.024709682911634445,0.058807194232940674,0.6310964810008245,-0.3810250790021748,0.49606269507277445,0.4587581021499403
1728405443124725000,2.93072509765625,0.42149055004119873,0.16611884534358978,0.41281554102897644,0.9762465953826904,0.020735396072268486,-0.21566814184188843,0.02608799934387207,0.01593143492937088,0.05780065059661865,0.6305065485256552,-0.3790186647810005,0.49850855925823695,0.4585799947843753
1728405443134756000,2.940756103515625,0.37527891993522644,0.14229345321655273,0.3981175422668457,0.9766471982002258,0.01589024066925049,-0.21426035463809967,0.025504112243652344,-0.0028134938329458237,0.06806585192680359,0.6299475796920573,-0.37708675883678744,0.5006749447566351,0.4585805080882764
1728405443144786200,2.9507861328125,0.3439215123653412,0.1716097891330719,0.38304564356803894,0.9770335555076599,0.011293654330074787,-0.21278606355190277,0.015871107578277588,-0.016069669276475906,0.06335669755935669,0.6293361322285541,-0.37532684772671526,0.5027292771733576,0.45861645628149506
1728405443154817000,2.960817138671875,0.31554222106933594,0.2040853351354599,0.36409273743629456,0.977476179599762,0.006944179069250822,-0.2109312266111374,0.006105244159698486,-0.014894042164087296,0.05263651907444,0.6286115134176538,-0.37379078321455567,0.5047918760853335,0.45859910068141513
1728405443164847000,2.97084716796875,0.3055303394794464,0.19493338465690613,0.366831511259079,0.9779223799705505,0.00271802581846714,-0.20895034074783325,0.007429063320159912,-0.0024739212822169065,0.047359734773635864,0.6278384296949755,-0.3723564404591638,0.5068288805365513,0.4585781885708122
1728405443174878200,2.980878173828125,0.28887197375297546,0.14012058079242706,0.37035197019577026,0.978281557559967,-0.001502406899817288,-0.20727473497390747,0.027776122093200684,0.008902898989617825,0.045974016189575195,0.6271101518122562,-0.3708830647320937,0.5087321378671726,0.45866128972277753
1728405443184909000,2.990908935546875,0.2686849534511566,0.05521315336227417,0.36009079217910767,0.9784731864929199,-0.005665678530931473,-0.20629599690437317,0.0506252646446228,0.0074661849066615105,0.0493897944688797,0.6265317668772226,-0.3693035834643999,0.5103595452348154,0.4589181648756155
1728405443194939100,3.000939208984375,0.24528923630714417,-0.01925671473145485,0.3207244873046875,0.9784817695617676,-0.00955131370574236,-0.20611220598220825,0.06108427047729492,-0.0049750907346606255,0.05736947059631348,0.626179624262682,-0.36765603289369453,0.5116375087702514,0.45929856424086185
1728405443204970200,3.01097021484375,0.22527877986431122,-0.047215379774570465,0.28114885091781616,0.9783787727355957,-0.012968888506293297,-0.2064141035079956,0.0528254508972168,-0.010392339900135994,0.04950791597366333,0.62600238836091,-0.36608192213759627,0.5126177650594523,0.45970432173390713
1728405443215000000,3.021,0.23329481482505798,-0.060137998312711716,0.2687148153781891,0.9782274961471558,-0.016154935583472252,-0.20690560340881348,0.03668028116226196,-0.0022624414414167404,0.041790202260017395,0.6259258087117915,-0.36452470872590803,0.5134870328374723,0.46007567078932604
1728405443225031200,3.03103125,0.24784740805625916,-0.026258593425154686,0.26304787397384644,0.978089451789856,-0.01925024576485157,-0.20729298889636993,0.023772060871124268,-0.0023409761488437653,0.027437567710876465,0.6258626986015932,-0.36299141715385075,0.5143838413149241,0.46037198715170563
1728405443235062000,3.04106201171875,0.27202537655830383,0.008325589820742607,0.2725585401058197,0.9780292510986328,-0.022425396367907524,-0.20725826919078827,0.011548995971679688,-0.005025198683142662,0.017148971557617188,0.6257182507947087,-0.36147930070526907,0.5154644342172343,0.46054951273483047
1728405443245092000,3.051092041015625,0.29560554027557373,0.008227319456636906,0.2693486511707306,0.9779864549636841,-0.025687331333756447,-0.20708170533180237,0.010508477687835693,-0.018868356943130493,0.010594218969345093,0.6255718732987564,-0.3599115425243664,0.5166457478444482,0.4606525930056426
1728405443255123200,3.061123291015625,0.3033273220062256,-0.0036961850710213184,0.254191517829895,0.9779292345046997,-0.02883775718510151,-0.20693685114383698,0.014716029167175293,-0.03807205334305763,0.012188851833343506,0.6254929273506387,-0.35832498996708717,0.5178173214000023,0.46068104670361515
1728405443265153000,3.071153076171875,0.34536585211753845,-0.04005099833011627,0.23997236788272858,0.977817177772522,-0.031935982406139374,-0.20701098442077637,0.019649803638458252,-0.045441366732120514,0.014307692646980286,0.6255500217610844,-0.3566229279347272,0.5189552923346008,0.4606436722524356
1728405443275184000,3.08118408203125,0.3763037621974945,-0.10259491205215454,0.24333222210407257,0.9775901436805725,-0.035051606595516205,-0.20757870376110077,0.03046649694442749,-0.048581842333078384,0.011808395385742188,0.6258211168405559,-0.3546982155518849,0.5199998341241956,0.4605836778136859
1728405443285214000,3.0912138671875,0.3761173486709595,-0.11608115583658218,0.2569332420825958,0.9772604703903198,-0.038307588547468185,-0.20855306088924408,0.038120269775390625,-0.05019340664148331,0.013057440519332886,0.6262121488400784,-0.35258602197852246,0.5209669533769251,0.46058093282203827
1728405443295245000,3.1012451171875,0.3402373790740967,-0.09744983911514282,0.25533217191696167,0.9769362211227417,-0.0415760800242424,-0.2094448059797287,0.0376511812210083,-0.05351670831441879,0.014544248580932617,0.6265334786985747,-0.35053723547278265,0.521920728572862,0.46062810124463355
1728405443305276200,3.111276123046875,0.30700698494911194,-0.0973542332649231,0.2552890181541443,0.9766251444816589,-0.044766951352357864,-0.21023619174957275,0.029386818408966064,-0.05336233600974083,0.007919847965240479,0.6267565691868225,-0.3486311287219604,0.5228175978675021,0.4607540489769646
1728405443315306000,3.121305908203125,0.2788178324699402,-0.11938396096229553,0.2769543528556824,0.9762775897979736,-0.0479922853410244,-0.2111370712518692,0.028071105480194092,-0.060375649482011795,0.007844150066375732,0.6269368276676337,-0.34675966817040277,0.523630785267751,0.4609976252515423
1728405443325336800,3.1313369140625,0.24829933047294617,-0.11513594537973404,0.3008067011833191,0.9758973717689514,-0.051383305341005325,-0.2120947539806366,0.036675870418548584,-0.06809306144714355,0.0025457143783569336,0.6270164583723191,-0.34491452939764106,0.5243916408265964,0.461408460057772
1728405443335367000,3.141366943359375,0.24817442893981934,-0.15536971390247345,0.3136596381664276,0.9754530191421509,-0.054921768605709076,-0.21324890851974487,0.04746568202972412,-0.06054151803255081,0.007758736610412598,0.6270801370085749,-0.34301879377748057,0.5250844265843069,0.46194696387486306
1728405443345398000,3.15139794921875,0.2278182953596115,-0.21761231124401093,0.3128833472728729,0.9748837351799011,-0.05847927927970886,-0.21489965915679932,0.05798369646072388,-0.05957801267504692,0.01972442865371704,0.6272521923493398,-0.3410207763803555,0.5255996578090454,0.4626062151173136
1728405443355428900,3.161428955078125,0.19514909386634827,-0.2827719748020172,0.32410484552383423,0.9741604924201965,-0.06201808527112007,-0.2171749323606491,0.06548172235488892,-0.06382116675376892,0.030544668436050415,0.6275316923237985,-0.3389505688408886,0.5258564907655492,0.46345584888335933
1728405443365459000,3.171458984375,0.13505300879478455,-0.29895228147506714,0.3278535008430481,0.9733050465583801,-0.06561832129955292,-0.21993522346019745,0.06795471906661987,-0.06916259229183197,0.04113268852233887,0.6278186466127839,-0.3368681612575592,0.525882331703741,0.4645550145208968
1728405443375490000,3.181489990234375,0.10224558413028717,-0.33984091877937317,0.329768568277359,0.9723987579345703,-0.06901855766773224,-0.2228831648826599,0.06715190410614014,-0.06731874495744705,0.03944195806980133,0.6280738099163778,-0.33493762686497913,0.5257139921960576,0.4657947760852392
1728405443385519900,3.191519775390625,0.08558112382888794,-0.3993189036846161,0.36293184757232666,0.971319317817688,-0.07260654121637344,-0.22642193734645844,0.05764174461364746,-0.05810026824474335,0.03202493488788605,0.6283965912462843,-0.33286227540714564,0.5253491578989155,0.467256461007152
1728405443395551000,3.201551025390625,0.1073446124792099,-0.49304333329200745,0.4435840845108032,0.9700009822845459,-0.07668837159872055,-0.23068834841251373,0.0599367618560791,-0.03410574048757553,0.020040690898895264,0.6287938881212085,-0.3304742078947411,0.5248262821487308,0.4690015653837827
1728405443405581800,3.211581787109375,0.1471543312072754,-0.5887911319732666,0.597295880317688,0.9683677554130554,-0.0818740725517273,-0.23571287095546722,0.04800492525100708,-0.012760967016220093,0.019343197345733643,0.6291905347280701,-0.3275237334128975,0.5242821494574456,0.4711430077179052
1728405443415612000,3.22161181640625,0.2419203221797943,-0.760209858417511,0.89138263463974,0.9662819504737854,-0.08900734782218933,-0.24161280691623688,0.02570706605911255,-0.008343763649463654,0.019429519772529602,0.6294845568006605,-0.3236646277423751,0.5238652527112868,0.4738729218960686
1728405443425643000,3.23164306640625,0.3084791302680969,-0.5635359883308411,1.3385335206985474,0.96335369348526,-0.10104671865701675,-0.24847334623336792,-0.00787895917892456,-0.0009888261556625366,0.024840503931045532,0.6291368199256799,-0.31786813169942746,0.5241404156848278,0.4779366303384499
1728405443435673000,3.241673095703125,0.4118346869945526,-0.38733187317848206,1.3936396837234497,0.9607521295547485,-0.11513097584247589,-0.25238922238349915,-0.011289238929748535,0.0401950478553772,0.027856111526489258,0.6275154885583881,-0.3121478954796856,0.5257081642350598,0.48209851756324557
1728405443445704000,3.251703857421875,0.45914626121520996,-0.357598215341568,1.3205944299697876,0.9582063555717468,-0.12930281460285187,-0.2551889419555664,-0.1239473819732666,0.02574138343334198,0.02356046438217163,0.6258274245822592,-0.30633572090548783,0.5277915831016381,0.4857309426325138
1728405443455734000,3.261734130859375,0.330985426902771,-0.230037122964859,1.134970784187317,0.955699622631073,-0.14232708513736725,-0.2576456367969513,-0.147868812084198,-0.016959428787231445,0.02349942922592163,0.62425208709065,-0.300959209304862,0.5297176060052514,0.4890114190162225
1728405443465765000,3.27176513671875,-0.5012007355690002,1.8444840908050537,-1.6936639547348022,0.9577194452285767,-0.14187470078468323,-0.2502901256084442,-0.09707790613174438,-0.020951882004737854,0.05279555916786194,0.6219674037261289,-0.30335384402897264,0.5318189336196811,0.48816155294614716
1728405443475796000,3.2817958984375,-0.33271265029907227,-0.31691864132881165,-3.059187889099121,0.9633500576019287,-0.11498033255338669,-0.24235564470291138,-0.2797258496284485,-0.2225593775510788,0.0449221134185791,0.6254885275040681,-0.3139433381042753,0.5293975417833244,0.47952267118536396
1728405443485826000,3.291825927734375,-0.5946590304374695,-1.7624534368515015,-0.9537674784660339,0.9628608822822571,-0.09325498342514038,-0.25338196754455566,-0.40068137645721436,-0.471625417470932,0.05419367551803589,0.6327981937324002,-0.31832905133413564,0.5215128297313071,0.4756652656101056
1728405443495857000,3.30185693359375,-0.477497935295105,-1.8472516536712646,1.3179347515106201,0.9575678110122681,-0.09448899328708649,-0.27227890491485596,0.5697453618049622,-0.014809750020503998,0.22697550058364868,0.6361280115916824,-0.3148697168549078,0.5145071548843467,0.48112439751776587
1728405443505887000,3.311886962890625,-0.11725001782178879,-1.0990453958511353,1.402153730392456,0.9519266486167908,-0.10799561440944672,-0.2866578996181488,0.7273489236831665,0.32392269372940063,0.18691107630729675,0.6358212675625738,-0.3083703574142338,0.5114477281150418,0.48893802109095036
1728405443515918000,3.32191796875,0.17133338749408722,-0.5289387702941895,0.2655688226222992,0.9486508369445801,-0.11616551131010056,-0.29422324895858765,0.04336881637573242,0.24804720282554626,0.01971757411956787,0.6358209997277993,-0.30414109751060564,0.5102808708747996,0.49279145665578195
1728405443525949000,3.331948974609375,0.23900564014911652,-0.19354133307933807,-0.34584927558898926,0.9477503895759583,-0.11582613736391068,-0.2972431182861328,-0.5174068212509155,0.03591585159301758,-0.005125075578689575,0.6373154380556006,-0.3028326673634,0.509579064617947,0.4923926835427349
1728405443535979000,3.34197900390625,0.10764840990304947,0.013491536490619183,0.014985321089625359,0.9477417469024658,-0.11438769102096558,-0.2978271245956421,-0.5168641209602356,-0.10648330301046371,-0.004480034112930298,0.638303179010438,-0.3025939060822188,0.5094343520073229,0.4914087489447952
1728405443546010000,3.352010009765625,0.08294173330068588,0.1091189906001091,0.5313336253166199,0.9476110935211182,-0.11744345724582672,-0.2970525324344635,-0.21268683671951294,-0.059970512986183167,0.038583904504776,0.6375242155806372,-0.3017424564608839,0.5103187493517465,0.4920255239206623
1728405443556040000,3.3620400390625,0.18455377221107483,0.044378612190485,0.5598230957984924,0.9471700191497803,-0.12333190441131592,-0.29607149958610535,0.008152246475219727,0.04625973850488663,0.025838255882263184,0.6360662256363528,-0.30005900871552604,0.5117898439378,0.493412202995459
1728405443566071000,3.372071044921875,0.26279187202453613,-0.11101843416690826,0.2822577953338623,0.9465484619140625,-0.12804804742336273,-0.2960573434829712,0.02192699909210205,0.10021597146987915,-0.0017180144786834717,0.6354379956547245,-0.298158665018502,0.5129061752161611,0.4942139070371863
1728405443576102100,3.38210205078125,0.17979350686073303,-0.3049987852573395,0.13138729333877563,0.9456838369369507,-0.13056597113609314,-0.2977158725261688,-0.012654662132263184,0.07357436418533325,0.0007798075675964355,0.6358332354604238,-0.29641647899546925,0.5131075312918851,0.494544361462567
1728405443586132000,3.392132080078125,-0.03444182127714157,-0.5019789338111877,0.1670781821012497,0.9442758560180664,-0.13216951489448547,-0.30145376920700073,0.01603597402572632,0.014646291732788086,0.03648483753204346,0.6366319566811803,-0.29479048033405086,0.5122223047574896,0.4954055936376613
1728405443596163000,3.4021630859375,-0.2505342364311218,-0.6105378270149231,0.173537939786911,0.9423289895057678,-0.13338778913021088,-0.3069590926170349,0.05469554662704468,-0.028736889362335205,0.07783305644989014,0.6374230877168229,-0.29340395578300604,0.5103279037336635,0.4971633913657283
1728405443606193200,3.412193115234375,-0.4130411148071289,-0.6195350885391235,0.08253507316112518,0.9402270913124084,-0.13358892500400543,-0.3132525384426117,0.022953450679779053,-0.04873836040496826,0.10229969024658203,0.6381751272942974,-0.2925995858410316,0.5076999251074931,0.49935844229842075
1728405443616224000,3.42222412109375,-0.5212637782096863,-0.5896515846252441,-0.0291746836155653,0.9382773041725159,-0.13234250247478485,-0.31956401467323303,-0.058852314949035645,-0.05193792283535004,0.10353004932403564,0.638956370627122,-0.29251978905911774,0.504628734199029,0.5015145199908574
1728405443626255000,3.432255126953125,-0.551016628742218,-0.5717474222183228,-0.07553286105394363,0.9364784359931946,-0.13007651269435883,-0.325711727142334,-0.11752402782440186,-0.03371135890483856,0.0951513946056366,0.6397578421457849,-0.29293633584736106,0.5013306701535599,0.5035530279969153
1728405443636285200,3.44228515625,-0.557914674282074,-0.5726137757301331,-0.09585677087306976,0.9346979856491089,-0.1274651736021042,-0.33180126547813416,-0.13364219665527344,-0.021903127431869507,0.10711559653282166,0.6405953745476358,-0.2934698671176673,0.49797068942087164,0.5055077215307108
1728405443646316000,3.45231591796875,-0.5601115226745605,-0.5281376838684082,-0.14246821403503418,0.9329946041107178,-0.12447341531515121,-0.33767974376678467,-0.14089560508728027,-0.024482905864715576,0.10768395662307739,0.6414455824751137,-0.2941635997289895,0.4945987288624196,0.507333795357184
1728405443656346000,3.46234619140625,-0.5399406552314758,-0.45411416888237,-0.1998921036720276,0.9315280914306641,-0.12098929286003113,-0.34295347332954407,-0.16179847717285156,-0.02505260705947876,0.1035582423210144,0.6422853238145265,-0.2951069379959271,0.4913605210791554,0.5088677036448325
1728405443666377000,3.472376953125,-0.5236407518386841,-0.3971560597419739,-0.23809807002544403,0.9303222298622131,-0.11708005517721176,-0.34755268692970276,-0.1776825189590454,-0.027817435562610626,0.0909760594367981,0.6431047947705193,-0.2962808389732875,0.48830453861834305,0.510090808102352
1728405443676407000,3.482406982421875,-0.5149015188217163,-0.3495631515979767,-0.24827560782432556,0.9292945265769958,-0.11297948658466339,-0.351635217666626,-0.17746353149414062,-0.020794354379177094,0.0832635760307312,0.6438744291459747,-0.29759222145346076,0.4854083489196456,0.5111196886468669
1728405443686438100,3.492438232421875,-0.5191750526428223,-0.2852901518344879,-0.23086172342300415,0.9284408688545227,-0.10890450328588486,-0.3551580011844635,-0.16165632009506226,-0.01469169557094574,0.08118638396263123,0.6444863341500576,-0.29903511478843403,0.48269970072829743,0.5120705419747346
1728405443696469000,3.502468994140625,-0.5452436804771423,-0.24022525548934937,-0.1997395008802414,0.9277406334877014,-0.10498472303152084,-0.35815557837486267,-0.14282864332199097,-0.012019701302051544,0.0935375988483429,0.6448735237562448,-0.3006073139866013,0.48016399336979937,0.5130456729223634
1728405443706499000,3.5124990234375,-0.5467081069946289,-0.25660690665245056,-0.1700977087020874,0.9270519018173218,-0.10133743286132812,-0.3609788119792938,-0.12195241451263428,-0.02511216700077057,0.11123812198638916,0.6451040034702569,-0.302174107912449,0.4777043095617156,0.5141306826593807
1728405443716530200,3.5225302734375,-0.6003558039665222,-0.2676609456539154,-0.17149534821510315,0.926254391670227,-0.09768970310688019,-0.3640187978744507,-0.10141003131866455,-0.0693635493516922,0.1299946904182434,0.645303729814199,-0.3037435116532927,0.4751110177250425,0.5153567574558934
1728405443726560000,3.53256005859375,-0.6601930260658264,-0.2038894146680832,-0.1698542982339859,0.9255483150482178,-0.0937688872218132,-0.3668350875377655,-0.09949839115142822,-0.10041449218988419,0.13342133164405823,0.6453511790734404,-0.3055830365951703,0.47244202453896833,0.5166619484372055
1728405443736591000,3.542591064453125,-0.6690462231636047,-0.10423269867897034,-0.14211295545101166,0.9251214861869812,-0.08986527472734451,-0.3688826858997345,-0.10338997840881348,-0.10112900286912918,0.10540908575057983,0.6450967112454582,-0.3077051099673836,0.469974709077968,0.5179687083906854
1728405443746622200,3.552622314453125,-0.6653668284416199,-0.04721761867403984,-0.1136123389005661,0.9249733090400696,-0.08620037138462067,-0.370126873254776,-0.09220969676971436,-0.09443321079015732,0.06501209735870361,0.6445622433414476,-0.30998241272098076,0.46781135301297794,0.519233109012545
1728405443756652000,3.562652099609375,-0.6765817999839783,-0.03287777304649353,-0.10164781659841537,0.9249158501625061,-0.08273119479417801,-0.37106090784072876,-0.07524549961090088,-0.07234389334917068,0.06344369053840637,0.6438841750633533,-0.3122911246130648,0.46577226915331593,0.5205224211343126
1728405443766683100,3.57268310546875,-0.7222470641136169,-0.02089008502662182,-0.08795198053121567,0.9248949289321899,-0.07924831658601761,-0.37187254428863525,-0.05608999729156494,-0.056814342737197876,0.08325248956680298,0.6430964962698937,-0.31469671640055946,0.4637129590391404,0.5218842997387388
1728405443776713200,3.582713134765625,-0.7816333770751953,-0.04282313585281372,-0.08263923972845078,0.9248446226119995,-0.07565046101808548,-0.3727457523345947,-0.03948396444320679,-0.054751187562942505,0.10709017515182495,0.6421985801931432,-0.3172376535597587,0.4615055712758732,0.5234060312283646
1728405443786744000,3.592744140625,-0.856825590133667,-0.05288375914096832,-0.0838717520236969,0.9247213006019592,-0.0718207135796547,-0.3738079071044922,-0.02516990900039673,-0.070375956594944,0.1465587019920349,0.6412235675300341,-0.3199308691507359,0.45906457334140166,0.5251060163004057
1728405443796775200,3.602775146484375,-0.9388405084609985,-0.014903886243700981,-0.10644124448299408,0.9246433973312378,-0.06758775562047958,-0.374788761138916,-0.023886561393737793,-0.08625136315822601,0.16485828161239624,0.6401126204870488,-0.32292538120670466,0.4564261400283594,0.5269253177291517
1728405443806805200,3.61280517578125,-1.0175180435180664,0.04636293277144432,-0.13582709431648254,0.9247725009918213,-0.062788225710392,-0.3753046989440918,-0.03025650978088379,-0.0921342745423317,0.16685432195663452,0.6388067546692572,-0.3263752623011002,0.45368142395346484,0.528751721108186
1728405443816836000,3.622836181640625,-1.0459144115447998,0.11049499362707138,-0.16380120813846588,0.9251620769500732,-0.05748790502548218,-0.37519362568855286,-0.03742104768753052,-0.08475454151630402,0.15029433369636536,0.637319651675511,-0.33024569802961373,0.4509334322513122,0.5304907733687577
1728405443826866200,3.6328662109375,-1.0110714435577393,0.17021824419498444,-0.1708601713180542,0.9257937073707581,-0.05204605683684349,-0.3744291663169861,-0.03713715076446533,-0.0591752864420414,0.1158079206943512,0.6357262615093098,-0.3343005032964831,0.44836212341792325,0.5320401204911916
1728405443836897000,3.64289697265625,-0.933980405330658,0.21989451348781586,-0.15028086304664612,0.9266140460968018,-0.046888526529073715,-0.3730788826942444,-0.03136569261550903,-0.015168998390436172,0.08096456527709961,0.6340704805005055,-0.3382956630548383,0.44611277670652816,0.5333798300638014
1728405443846928100,3.65292822265625,-0.8447810411453247,0.25512412190437317,-0.1462230086326599,0.9275729656219482,-0.04221345856785774,-0.3712497651576996,-0.023276150226593018,0.022819530218839645,0.05603364109992981,0.6324153867373712,-0.3420811053210835,0.44424727340979525,0.5344863058409225
1728405443856958200,3.662958251953125,-0.8134218454360962,0.26435402035713196,-0.1399049311876297,0.92860347032547,-0.03780617192387581,-0.3691427409648895,-0.020751357078552246,0.038874272257089615,0.04753315448760986,0.6307910275935992,-0.3457233715668789,0.442610412330456,0.5354195918610425
1728405443866989000,3.672989013671875,-0.8323313593864441,0.27173176407814026,-0.13749076426029205,0.9296481013298035,-0.03348869830369949,-0.36692363023757935,-0.027487456798553467,0.0433306023478508,0.05855870246887207,0.6291449721366076,-0.3493384505443466,0.44102248070994843,0.5363193237209238
1728405443877019000,3.683018798828125,-0.8930503129959106,0.2957925796508789,-0.149280846118927,0.9307332634925842,-0.02901184931397438,-0.3645459711551666,-0.03991001844406128,0.028187846764922142,0.07409486174583435,0.6273905380784444,-0.3531203639697342,0.4393552402533465,0.5372652431791103
1728405443887050200,3.69305029296875,-0.9852334856987,0.3387927711009979,-0.17394518852233887,0.9319362044334412,-0.02407936006784439,-0.3618219792842865,-0.05824846029281616,0.017273908481001854,0.07520079612731934,0.6254478368007151,-0.35729006687785353,0.4375303680272473,0.5382620197903176
1728405443897082000,3.70308203125,-1.0804604291915894,0.35047292709350586,-0.21562685072422028,0.933234691619873,-0.01854870282113552,-0.35878798365592957,-0.0774761438369751,0.025186264887452126,0.07184645533561707,0.6233377316467772,-0.36188941400328767,0.43547910735956996,0.5392995289887639
1728405443907112200,3.7131123046875,-1.1560354232788086,0.3361978530883789,-0.2579074501991272,0.9345018267631531,-0.012314105406403542,-0.35574519634246826,-0.09540581703186035,0.0440981350839138,0.07418996095657349,0.6211796715753989,-0.36683514601148004,0.43308125963916905,0.5403780072957608
1728405443917143000,3.72314306640625,-1.216507077217102,0.3462843894958496,-0.2659246325492859,0.9357331991195679,-0.005620924755930901,-0.35266396403312683,-0.11247581243515015,0.05791278928518295,0.06428807973861694,0.6189554545587522,-0.3720242536742275,0.43042533531637384,0.5415036809004102
1728405443927173000,3.733173095703125,-1.2636133432388306,0.3533540368080139,-0.27036598324775696,0.9369879961013794,0.0012536008143797517,-0.34935951232910156,-0.1217871904373169,0.06170414760708809,0.030237138271331787,0.6165892302654477,-0.37740427845207,0.4276520229121137,0.5426762898035487
1728405443937204200,3.743204345703125,-1.3231972455978394,0.32146546244621277,-0.30410903692245483,0.9381638765335083,0.008444389328360558,-0.34608888626098633,-0.13222509622573853,0.051690489053726196,0.008457571268081665,0.6141843843607543,-0.38292364177077415,0.42464696875133057,0.5438953852759671
1728405443947234000,3.753234130859375,-1.465577244758606,0.31719908118247986,-0.35868626832962036,0.9392127394676208,0.01636546291410923,-0.342945396900177,-0.14850234985351562,0.03830675780773163,0.0048410892486572266,0.6117366636888705,-0.3887551675240898,0.4211849050044335,0.5452072358185464
1728405443957265200,3.76326513671875,-1.6886197328567505,0.3369828760623932,-0.39731088280677795,0.9402577877044678,0.02532018907368183,-0.33952051401138306,-0.17055875062942505,0.03249533474445343,0.008618354797363281,0.6089874657903636,-0.3952685617453362,0.417136079544062,0.5467124901103142
1728405443967296000,3.7732958984375,-1.9422991275787354,0.3249395489692688,-0.4250072240829468,0.9412719011306763,0.03535247966647148,-0.3357936143875122,-0.18207091093063354,0.029787283390760422,0.02214917540550232,0.6057848383187675,-0.4025794645779992,0.4123505351690365,0.5485631211938793
1728405443977326000,3.783326171875,-2.1749534606933594,0.2810196280479431,-0.44999539852142334,0.942109227180481,0.04637592285871506,-0.3320835828781128,-0.18095511198043823,0.011943146586418152,0.03667336702346802,0.6021654080836977,-0.410551814199599,0.4067006425375823,0.5508526787767893
1728405443987357200,3.793357177734375,-2.2749881744384766,0.2486446648836136,-0.4782232940196991,0.9427436590194702,0.058194760233163834,-0.32840198278427124,-0.17577588558197021,0.0034659989178180695,0.045137763023376465,0.5982582187008575,-0.4189702773694811,0.4003285073051473,0.5534330620196959
1728405443997387000,3.803386962890625,-2.1773688793182373,0.23154689371585846,-0.5150524377822876,0.943206787109375,0.07022756338119507,-0.32469871640205383,-0.173370361328125,0.02118784189224243,0.03713148832321167,0.5944159308688012,-0.4273184075318009,0.39376340726074055,0.555894947911113
1728405444007418000,3.813418212890625,-1.9289474487304688,0.21359053254127502,-0.5502868294715881,0.9435153603553772,0.08195357024669647,-0.3210334777832031,-0.1693454384803772,0.07678361237049103,0.00966256856918335,0.591022324989615,-0.43510417480500474,0.3875146710165836,0.5578614525943074
1728405444017449200,3.82344921875,-1.6040236949920654,0.21612469851970673,-0.5364788770675659,0.9437316656112671,0.09278746694326401,-0.31742894649505615,-0.16205435991287231,0.1628735512495041,-0.01376315951347351,0.5882419153558239,-0.44199760108698627,0.3819995439104476,0.5591833414386918
1728405444027479000,3.83347900390625,-1.4273227453231812,0.202862948179245,-0.5434960722923279,0.9438894987106323,0.10256189852952957,-0.313932865858078,-0.14216220378875732,0.21892553567886353,-0.057099878787994385,0.5860002648395692,-0.4480093584884875,0.3772547884422072,0.5599734207116525
1728405444037510100,3.84351025390625,-1.2663766145706177,0.29948702454566956,-0.5174452662467957,0.9441496729850769,0.1117149367928505,-0.3100019097328186,-0.1253172755241394,0.20754468441009521,-0.07436704635620117,0.5839958865732686,-0.45363265761241933,0.3731172236436243,0.5603122139587082
1728405444047540000,3.8535400390625,-1.3794342279434204,0.30092674493789673,-0.5279756784439087,0.9444693922996521,0.12071709334850311,-0.30562230944633484,-0.1083793044090271,0.1460675746202469,-0.07303988933563232,0.5818946909171789,-0.4592916341877985,0.36910708232994294,0.5605441519042457
1728405444057570800,3.86357080078125,-1.585287094116211,0.2775316536426544,-0.5635251402854919,0.944683313369751,0.13037057220935822,-0.30096009373664856,-0.08466744422912598,0.07487539947032928,-0.028751909732818604,0.5794505365205902,-0.4654311612692691,0.3645460011376719,0.5609965575815015
1728405444067602200,3.873602294921875,-1.8698424100875854,0.2695049047470093,-0.6109794974327087,0.9446988105773926,0.1410958617925644,-0.2960338890552521,-0.06687599420547485,0.024980798363685608,0.008100539445877075,0.5765551401177793,-0.47226087658469096,0.35909986983948594,0.5617838521659261
1728405444077632000,3.883632080078125,-2.155857563018799,0.23364169895648956,-0.6659988164901733,0.9445121884346008,0.1530779004096985,-0.29062655568122864,-0.047295451164245605,-0.01947195827960968,0.023811280727386475,0.5730836920043384,-0.47993680418351986,0.3526292515532818,0.5629283527981478
1728405444087662800,3.893662841796875,-2.375476837158203,0.16722112894058228,-0.7103092670440674,0.9439865350723267,0.1661633402109146,-0.2850947976112366,-0.029496848583221436,-0.049708276987075806,0.038344889879226685,0.5691669365202805,-0.4882143223339733,0.345107775305966,0.5644433292358769
1728405444097693000,3.90369287109375,-2.4664058685302734,0.08510100841522217,-0.7613998651504517,0.9430954456329346,0.17993372678756714,-0.27963370084762573,-0.012934863567352295,-0.053224727511405945,0.04004010558128357,0.5650279596452359,-0.49672788106812804,0.336815318420807,0.5661805374326191
1728405444107724000,3.91372412109375,-2.3273279666900635,0.06766688823699951,-0.7742483019828796,0.9418675899505615,0.19384832680225372,-0.27442365884780884,-0.0037572383880615234,-0.025253966450691223,0.016199111938476562,0.5610484791206258,-0.5049996843209825,0.3282734942817761,0.5678348846902475
1728405444117755000,3.9237548828125,-2.1053221225738525,0.08084580302238464,-0.7743138074874878,0.940473735332489,0.20728734135627747,-0.26933467388153076,-0.006696939468383789,0.028232067823410034,-0.013685405254364014,0.5574833916049233,-0.5126991503755675,0.3201128517727609,0.5691042688886078
1728405444127785000,3.933784912109375,-1.8459053039550781,0.15640980005264282,-0.7311469316482544,0.9391767978668213,0.21966202557086945,-0.26399949193000793,-0.009840190410614014,0.09566088020801544,-0.045006364583969116,0.5543457534479861,-0.519727350324861,0.31286377403413135,0.5698251269561913
1728405444137816000,3.943816162109375,-1.6103554964065552,0.20922262966632843,-0.6843242645263672,0.938080906867981,0.23080892860889435,-0.2583244740962982,0.001036524772644043,0.14199382066726685,-0.08869099617004395,0.5515458313538708,-0.5261414852600913,0.3066152330909473,0.5700521688996354
1728405444147846000,3.953845947265625,-1.4779919385910034,0.1661694347858429,-0.6788850426673889,0.936968982219696,0.24112239480018616,-0.25288212299346924,0.017743051052093506,0.14648139476776123,-0.09115788340568542,0.5491181545267558,-0.531961810762451,0.3009577582878189,0.5700091966399193
1728405444157877000,3.963876953125,-1.4983023405075073,0.1399681568145752,-0.7098626494407654,0.935623824596405,0.25138601660728455,-0.24781659245491028,0.033477067947387695,0.09175363183021545,-0.07798914611339569,0.546907365835483,-0.5375059876408421,0.29526093149885896,0.5699127799624522
1728405444167907800,3.973907958984375,-1.5869708061218262,0.11831824481487274,-0.7434951663017273,0.9340845942497253,0.26197367906570435,-0.24260154366493225,0.03388702869415283,0.015339523553848267,-0.048673540353775024,0.5446154012934191,-0.5431628884797156,0.28926337956727294,0.5698198927503717
1728405444177938000,3.98393798828125,-1.6880940198898315,0.10731044411659241,-0.7712416052818298,0.9323111176490784,0.2730238139629364,-0.2371790111064911,0.032135844230651855,-0.06619095802307129,-0.01161561906337738,0.5421296534874407,-0.549035958560556,0.2827896997022876,0.5698112786672204
1728405444187969000,3.993968994140625,-1.7278391122817993,0.15225660800933838,-0.77616286277771,0.930455207824707,0.2842842638492584,-0.23116149008274078,0.029414117336273193,-0.12225115299224854,-0.0062653422355651855,0.539416219810302,-0.5551432385044729,0.2761072971756911,0.5697464042598851
1728405444197999000,4.0039990234375,-1.6266292333602905,0.14070430397987366,-0.7677698731422424,0.9285538792610168,0.2953398823738098,-0.22486022114753723,0.032047927379608154,-0.12279349565505981,-0.03809458017349243,0.5366995293424367,-0.5611773360745308,0.2695364324544942,0.5695469976108418
1728405444208030000,4.014030029296875,-1.4681658744812012,0.12153246253728867,-0.745978057384491,0.9265593886375427,0.30583611130714417,-0.21897973120212555,0.036850035190582275,-0.06753960251808167,-0.04290693998336792,0.5343097964841601,-0.5667201794789878,0.26332180459470667,0.5692125943973935
1728405444218060000,4.02406005859375,-1.277559518814087,0.13610923290252686,-0.6897581815719604,0.9245743751525879,0.3155204951763153,-0.2135629802942276,0.04252767562866211,-0.014388293027877808,-0.05839449167251587,0.5322921749925719,-0.5716854778747257,0.2576707686820936,0.5687236389803317
1728405444228091000,4.0340908203125,-1.151134729385376,0.1880107820034027,-0.6050781607627869,0.922845184803009,0.32406890392303467,-0.20817391574382782,0.04546242952346802,-0.00439724326133728,-0.06770506501197815,0.5304505404858154,-0.5761982812936616,0.25280147395838276,0.5680751325654717
1728405444238122000,4.0441220703125,-1.0935713052749634,0.21394197642803192,-0.5607027411460876,0.9213492274284363,0.3317393958568573,-0.2026444971561432,0.04315894842147827,-0.03219407796859741,-0.05335232615470886,0.5286021203980185,-0.5804696231060787,0.24846080486763245,0.5673642425376176
1728405444248152000,4.054152099609375,-1.0497859716415405,0.25620874762535095,-0.5377073884010315,0.9199772477149963,0.33894529938697815,-0.19687066972255707,0.030630111694335938,-0.058427661657333374,-0.009245127439498901,0.5267388253696018,-0.5846503673603899,0.244435288077207,0.5665524082256866
1728405444258183000,4.064182861328125,-0.9902027249336243,0.2911456823348999,-0.5171030759811401,0.9187030792236328,0.34578630328178406,-0.19083113968372345,0.024900436401367188,-0.06655046343803406,-0.0070449113845825195,0.5248976650300458,-0.5887623438505646,0.24071420789598497,0.5655953074366835
1728405444268213000,4.074212890625,-0.9630725979804993,0.30566897988319397,-0.46198174357414246,0.917542576789856,0.3521583378314972,-0.1846623420715332,0.03729134798049927,-0.05873182415962219,-0.016555368900299072,0.5230375273493021,-0.5927665638593259,0.23726910691093528,0.5645909672755566
1728405444278244000,4.084244140625,-0.9862903356552124,0.2674930691719055,-0.40857845544815063,0.9165368676185608,0.35789740085601807,-0.17852072417736053,0.06420648097991943,-0.062380433082580566,-0.028174877166748047,0.5210276052904256,-0.5966403413568672,0.2340084204955202,0.5637292196228659
1728405444288275000,4.09427490234375,-1.0785059928894043,0.23116223514080048,-0.37914758920669556,0.915561318397522,0.36329421401023865,-0.17252492904663086,0.09034383296966553,-0.10009533166885376,-0.032858431339263916,0.5187511537702055,-0.6004779296854649,0.23057275435477276,0.5631693546499396
1728405444298305000,4.104304931640625,-1.153089165687561,0.2186373919248581,-0.376725435256958,0.9145499467849731,0.36868152022361755,-0.16635023057460785,0.09475791454315186,-0.13007983565330505,-0.013459384441375732,0.5161725074779018,-0.6044579792488194,0.22683790916422783,0.5627975701234906
1728405444308336000,4.114336181640625,-1.169753909111023,0.2375974953174591,-0.37281593680381775,0.9135134220123291,0.37405818700790405,-0.15991830825805664,0.0838315486907959,-0.13019219040870667,-0.006875574588775635,0.5134358153868102,-0.6085382197917708,0.22298448754170824,0.5624437071877482
1728405444318366000,4.124365966796875,-1.0818194150924683,0.25634780526161194,-0.34289610385894775,0.9125447869300842,0.37912270426750183,-0.15338806807994843,0.0683053731918335,-0.08906835317611694,-0.009972572326660156,0.5107155992894259,-0.6125345075566626,0.21933408777441188,0.5620174274241606
1728405444328397000,4.13439697265625,-0.9401576519012451,0.27498725056648254,-0.2958764135837555,0.9117295742034912,0.383556067943573,-0.14708508551120758,0.056028544902801514,-0.03004041314125061,0.007390797138214111,0.5082064639430117,-0.6162148258672951,0.21618683810655015,0.561488033166174
1728405444338428000,4.144427978515625,-0.7950491905212402,0.2933204472064972,-0.27594131231307983,0.9110437631607056,0.38740503787994385,-0.1411270648241043,0.049527645111083984,0.012161701917648315,0.003935202956199646,0.5060107570959489,-0.619528420924289,0.2135907459764353,0.5608179483908214
