time,seconds_elapsed,rotationRateX,rotationRateY,rotationRateZ,gravityX,gravityY,gravityZ,accelerationX,accelerationY,accelerationZ,quaternionW,quaternionX,quaternionY,quaternionZ
1729874255384610800,0.11661083984375,-0.3012937903404236,-0.025480380281805992,0.0018556779250502586,0.014133507385849953,-0.2589758634567261,-0.9657803773880005,-0.0056496188044548035,0.0052069127559661865,0.01564610004425049,0.9914081276617212,0.1306101182249123,0.007127996466966263,-3.8162043734582936e-18
1729874255394641000,0.126640869140625,-0.2731492519378662,-0.04754893481731415,-0.024326123297214508,0.013959629461169243,-0.25654786825180054,-0.9664307236671448,-0.022992830723524094,0.01376524567604065,-0.0002593398094177246,0.9915721408256821,0.12936475672754344,0.007028889211882662,-0.00007857036599143264
1729874255404670000,0.136669921875,-0.2414732724428177,-0.0604671835899353,-0.037071213126182556,0.013293023221194744,-0.25446492433547974,-0.9669906497001648,-0.03233598917722702,0.02362993359565735,-0.021717846393585205,0.9917133040115279,0.12829716727426071,0.006672217672673606,-0.00023059489229999283
1729874255414700000,0.146699951171875,-0.23834379017353058,-0.06222699582576752,-0.06775082647800446,0.012495262548327446,-0.25240328907966614,-0.9675414562225342,-0.0378858856856823,0.02191925048828125,-0.03766179084777832,0.9918520272087327,0.12724149089839748,0.006235476433346261,-0.0004948178148604595
1729874255424731100,0.156731201171875,-0.22502200305461884,-0.04905899986624718,-0.09678781032562256,0.011877999641001225,-0.25030574202537537,-0.968093991279602,-0.04913996160030365,0.01873832941055298,-0.04733264446258545,0.9919909680396253,0.12616870373715264,0.00587120198916233,-0.0009100542120033367
1729874255434760700,0.1667607421875,-0.19593149423599243,-0.030443768948316574,-0.11581636220216751,0.011516801081597805,-0.2485247552394867,-0.9685570597648621,-0.05241035670042038,0.019597128033638,-0.050043344497680664,0.9921069890292713,0.12525922379019694,0.005620685606672328,-0.0014536167469646531
1729874255444790800,0.176790771484375,-0.16970933973789215,-0.02036450058221817,-0.12285029888153076,0.011548969894647598,-0.24695712327957153,-0.9689576029777527,-0.0471477247774601,0.017068177461624146,-0.058309853076934814,0.9922068992333057,0.12445998236425829,0.005560610984434807,-0.002066594107745899
1729874255454822000,0.18682177734375,-0.15875495970249176,-0.013843751512467861,-0.10009732097387314,0.011696006171405315,-0.24557267129421234,-0.9693076014518738,-0.03817000240087509,0.007581308484077454,-0.06018763780593872,0.9922936904292983,0.12375468682166209,0.005564852121482201,-0.0026345287776411573
1729874255464852000,0.19685205078125,-0.17010974884033203,-0.018231630325317383,-0.10822288691997528,0.011785725131630898,-0.24410049617290497,-0.9696783423423767,-0.02947065979242325,-0.009073376655578613,-0.04973083734512329,0.992385535835821,0.12300437806507726,0.005546610957633722,-0.0031583117451837845
1729874255474881800,0.2068818359375,-0.15038904547691345,-0.04259848967194557,-0.09622588008642197,0.011526464484632015,-0.24248111248016357,-0.9700876474380493,-0.01912534236907959,-0.02193845808506012,-0.03502398729324341,0.9924868501188477,0.122178179210298,0.005354410144051733,-0.003675375216651597
1729874255484911900,0.216911865234375,-0.10047920793294907,-0.06899787485599518,-0.07353361696004868,0.010845459066331387,-0.2410934567451477,-0.9704412817955017,0.0026890868321061134,-0.016398638486862183,-0.01962524652481079,0.992574275286045,0.1214690723236896,0.004961410025215514,-0.004101139600882391
1729874255494943000,0.22694287109375,-0.07645963132381439,-0.09677623957395554,-0.052046969532966614,0.009737774729728699,-0.24003706872463226,-0.9707148671150208,0.0230075865983963,-0.011305704712867737,-0.015597939491271973,0.992641904233665,0.1209275953381364,0.0043677674899372495,-0.004409733238366939
1729874255504973000,0.23697314453125,-0.060333721339702606,-0.11189547926187515,-0.06692152470350266,0.00826365128159523,-0.23914405703544617,-0.9709489345550537,0.01775258779525757,-0.01402980089187622,-0.012388408184051514,0.9926992997046944,0.12046852989962174,0.0035871172376738397,-0.00473897101208836
1729874255515003000,0.2470029296875,-0.032336972653865814,-0.09357666224241257,-0.06683017313480377,0.006868801545351744,-0.2384401261806488,-0.9711329340934753,-0.006288963370025158,-0.017556607723236084,-0.0015538334846496582,0.9927438044332614,0.12010608442468697,0.002841814790873212,-0.005105543040465747
1729874255525033000,0.257032958984375,-0.01611226424574852,-0.05968639627099037,-0.053619299083948135,0.005844091530889273,-0.2380053997039795,-0.9712462425231934,-0.023818939924240112,-0.016877442598342896,-0.0030121803283691406,0.9927706903059914,0.11988178336684636,0.002287469216089586,-0.005431295383957489
1729874255535064000,0.26706396484375,-0.015115443617105484,-0.036109428852796555,-0.03408128395676613,0.0052139172330498695,-0.23774854838848114,-0.9713127613067627,-0.027354413643479347,-0.016722291707992554,-0.004334211349487305,0.9927861581567842,0.119749129924316,0.0019428542470657372,-0.005662836238719693
1729874255545094000,0.277093994140625,-0.009906101040542126,-0.01994052715599537,0.0017422270029783249,0.0047773076221346855,-0.23766888678073883,-0.9713344573974609,-0.02119576185941696,-0.019716396927833557,0.005514204502105713,0.9927910944428726,0.11970725244339384,0.0017121497477269984,-0.005754428225239552
1729874255555123700,0.287123779296875,-0.0006313761696219444,-0.006227643694728613,0.02932698279619217,0.004493902437388897,-0.23777492344379425,-0.9713099002838135,-0.010063355788588524,-0.01840493083000183,0.013195276260375977,0.9927854104953308,0.11976043888871156,0.0015789211775416579,-0.005673169646414695
1729874255565153800,0.29715380859375,-0.013576336205005646,0.0053106071427464485,0.037478651851415634,0.004523664712905884,-0.23783643543720245,-0.9712947010993958,-0.011405374854803085,-0.018724888563156128,0.015377342700958252,0.9927824246379123,0.11979170790558454,0.0016141919580254062,-0.005503643933352929
1729874255575185000,0.307184814453125,-0.02117992751300335,0.0181579627096653,0.05846329778432846,0.004826020449399948,-0.23780463635921478,-0.9713010191917419,-0.0266460869461298,-0.019397541880607605,0.021288812160491943,0.9927852889159869,0.11977593968993222,0.001793533929642135,-0.005279992449132637
1729874255585215000,0.317215087890625,-0.029606834053993225,0.03710139915347099,0.03444238379597664,0.005286088213324547,-0.23773884773254395,-0.9713147282600403,-0.0388554222881794,-0.015465512871742249,0.020798981189727783,0.9927900734537171,0.11974311224080925,0.0020549745476827917,-0.005034826135465482
1729874255595244800,0.327244873046875,-0.029428936541080475,0.044945474714040756,-0.001722545363008976,0.005563899874687195,-0.23771193623542786,-0.9713197350502014,-0.049921199679374695,-0.011204719543457031,0.012701630592346191,0.9927918419050684,0.11972985860713516,0.0022092596716698438,-0.004916192556875364
1729874255605276000,0.33727587890625,-0.017544779926538467,0.04301074147224426,-0.011982107535004616,0.005535057280212641,-0.23779170215129852,-0.9713004231452942,-0.053432390093803406,-0.005494475364685059,0.01069861650466919,0.9927870222392735,0.11977050294749372,0.002197189224107895,-0.004894258144135752
1729874255615306000,0.347305908203125,-0.022533943876624107,0.05418243631720543,-0.00701371394097805,0.00540906423702836,-0.23795044422149658,-0.9712622165679932,-0.029395876452326775,0.011647313833236694,0.003122568130493164,0.9927774968847893,0.11985126646977344,0.002135404968596428,-0.0048772961351529025
1729874255625335800,0.357335693359375,-0.03186306357383728,0.05839987099170685,0.012984494678676128,0.005457163322716951,-0.238122820854187,-0.9712197184562683,-0.0035803262144327164,0.022699207067489624,-0.0017874836921691895,0.9927671997571528,0.11993932291801104,0.0021680812224203322,-0.004803943836393477
1729874255635366000,0.367365966796875,-0.0484180711209774,0.053858380764722824,0.021781448274850845,0.0057202717289328575,-0.2381509393453598,-0.971211314201355,0.00459467526525259,0.017325714230537415,0.0045670270919799805,0.9927657228334849,0.11995407095807427,0.0023167211696044432,-0.004669907285960378
1729874255646649900,0.37864990234375,-0.07695091515779495,0.050202928483486176,0.025910943746566772,0.005950181279331446,-0.23788411915302277,-0.9712753295898438,0.009476455859839916,0.014709040522575378,0.00261688232421875,0.9927826816458026,0.119817829496098,0.00245592466341998,-0.004480894940064158
1729874255665453000,0.397453125,-0.1671026349067688,0.041908301413059235,-0.005441649816930294,0.005208542104810476,-0.23671968281269073,-0.9715640544891357,0.030512286350131035,0.021692797541618347,0.015280485153198242,0.9928567691364822,0.11922031269509224,0.002122167753684991,-0.0041709546047619265
1729874255675483000,0.40748291015625,-0.19876442849636078,0.021330054849386215,-0.03383520618081093,0.004780778661370277,-0.23514199256896973,-0.9719492793083191,0.03148936480283737,0.017551615834236145,0.023707091808319092,0.9929537134986797,0.11841338254453573,0.0019061469743849426,-0.0042028500084789425
1729874255685513000,0.417512939453125,-0.23473608493804932,0.029052795842289925,-0.03501312434673309,0.0043755085207521915,-0.23320074379444122,-0.9724187850952148,0.037464093416929245,0.022766754031181335,0.022513389587402344,0.9930713151634086,0.11742124938900818,0.0016931926235087247,-0.004311768308354059
1729874255695544000,0.4275439453125,-0.29150640964508057,0.04875379428267479,-0.04185665026307106,0.004546881653368473,-0.2305769920349121,-0.9730434417724609,0.0401003398001194,0.025392040610313416,0.019918501377105713,0.9932279011968248,0.11608252218466122,0.0017659549610233203,-0.004474791854393138
1729874255705574100,0.43757421875,-0.34763339161872864,0.06317108124494553,-0.030974972993135452,0.005124709103256464,-0.22733020782470703,-0.973804235458374,0.04550395533442497,0.029606789350509644,0.024799108505249023,0.9934187089425228,0.11442763658758123,0.0020475293721315675,-0.004616895623768036
1729874255715603700,0.447603759765625,-0.33312955498695374,0.06946999579668045,0.022215012460947037,0.005818470846861601,-0.22389081120491028,-0.9745968580245972,0.05649842694401741,0.03282022476196289,0.029070734977722168,0.9936182563034436,0.11267555723645466,0.0024053870612828856,-0.004607909945182247
1729874255725634800,0.457634765625,-0.33451905846595764,0.07417116314172745,0.06661389768123627,0.006484684534370899,-0.22068768739700317,-0.975322961807251,0.061416931450366974,0.024047628045082092,0.025676965713500977,0.9938021986155242,0.11104410805679212,0.0027784638881251673,-0.004332500966471342
1729874255735665000,0.467664794921875,-0.3699958324432373,0.052867740392684937,0.08931121975183487,0.007043377496302128,-0.217246875166893,-0.9760912656784058,0.06052254140377045,0.028556659817695618,0.03975099325180054,0.9939972127968599,0.10929166993030409,0.003112874711166284,-0.0039115522416222
1729874255745695000,0.477695068359375,-0.5045896768569946,-0.01110405195504427,0.10785800963640213,0.006999782752245665,-0.21319158375263214,-0.9769853353500366,0.06448764353990555,0.021861612796783447,0.0652269721031189,0.9942234829529782,0.10722619414443323,0.0031424746181631775,-0.003502590334042808
1729874255755724800,0.487724853515625,-0.5636002421379089,0.04639386013150215,0.2557888925075531,0.007089400198310614,-0.2079850435256958,-0.9781063199043274,0.08641646057367325,-0.002601534128189087,0.09036523103713989,0.9945080656561677,0.10457541280377455,0.003290518356855933,-0.0026034126915218895
1729874255765756000,0.497755859375,-0.5832465887069702,0.09146007895469666,0.3729240298271179,0.0073659042827785015,-0.20243096351623535,-0.9792688488960266,0.10680035501718521,0.04682178795337677,0.07285100221633911,0.9948032060563898,0.10174780792448143,0.003600952358205043,-0.0009898305652815014
1729874255775786000,0.507785888671875,-0.6017470359802246,0.11664213240146637,0.4703531265258789,0.007521578576415777,-0.19657564163208008,-0.9804598093032837,0.13206583261489868,0.0417294055223465,0.07449972629547119,0.9951022749462178,0.09876699006637782,0.0038955744936214056,0.0011715012936934787
1729874255785816000,0.517816162109375,-0.6030428409576416,0.16285006701946259,0.6363394260406494,0.007812725380063057,-0.1906576156616211,-0.981625497341156,0.12281776964664459,0.0237569659948349,0.09286212921142578,0.9953877620498679,0.09575317577130174,0.00430995700507178,0.0040073445056230195
1729874255795846000,0.527845947265625,-0.6322177648544312,0.21366184949874878,0.858727753162384,0.00829272996634245,-0.18466074764728546,-0.9827673435211182,0.10260815173387527,0.01766851544380188,0.09670472145080566,0.9956521834823849,0.09269536655979398,0.004888661153862143,0.0077786086814426725
1729874255805877000,0.537876953125,-0.6590091586112976,0.16364911198616028,0.6961708068847656,0.00841477420181036,-0.17840147018432617,-0.9839218258857727,0.11452528834342957,-0.0021558254957199097,0.1066482663154602,0.9959006492151946,0.08950432283339235,0.005298695557382471,0.011950118156484928
1729874255815907000,0.547906982421875,-0.8370649218559265,0.21228376030921936,-1.25531804561615,0.01292472891509533,-0.1711307018995285,-0.9851635694503784,-0.01597648486495018,-0.07181978225708008,0.09339416027069092,0.9962368155187983,0.0858172703104833,0.007322323548807574,0.009699721323978365
1729874255825937200,0.557937255859375,-1.0938761234283447,-0.3540368676185608,-1.0891392230987549,0.01383073441684246,-0.16150352358818054,-0.9867752194404602,-0.01972062513232231,-0.31013041734695435,0.0916793942451477,0.9966823329798001,0.08099564958945178,0.00721790500430494,0.003439584292628743
1729874255835968000,0.567968017578125,-1.2210161685943604,-0.7574756145477295,-0.02445795014500618,0.009300881065428257,-0.14971603453159332,-0.9886853098869324,0.5098488926887512,-0.08708515763282776,0.12848633527755737,0.9971672012969369,0.07506846492337371,0.004698941918412022,0.00046877691890042506
1729874255845997800,0.577997802734375,-1.0554096698760986,-0.9904118776321411,0.5476335287094116,-0.00019665896252263337,-0.13833308219909668,-0.9903857707977295,0.6469098925590515,0.0860411673784256,0.026930570602416992,0.9975920216957997,0.06933345485079712,0.00002338850979391447,0.001754732562855885
1729874255856028000,0.58802783203125,-0.9136341214179993,-0.2913246750831604,0.9851261973381042,-0.007743338588625193,-0.12846653163433075,-0.9916836023330688,0.25516459345817566,0.08059968054294586,-0.05545073747634888,0.9979057674529962,0.06438616310109742,-0.0035517151064569986,0.0050848224996878555
1729874255866058000,0.59805810546875,-0.6962692141532898,-0.07777932286262512,1.2111259698867798,-0.011267679743468761,-0.12032385170459747,-0.9926707744598389,0.062125228345394135,0.04366365820169449,-0.12425732612609863,0.9981097257349919,0.06032900340114477,-0.005003828994659199,0.010599703099011771
1729874255876088800,0.6080888671875,-0.5256543159484863,0.061613455414772034,1.2514275312423706,-0.012679015286266804,-0.11412938684225082,-0.9933849573135376,0.09121600538492203,-0.004416175186634064,-0.10839110612869263,0.9982021009267269,0.057258496300742485,-0.005382700526499139,0.01687931984564006
1729874255886119000,0.618118896484375,-0.46230220794677734,0.0028631621971726418,1.1482641696929932,-0.01372503861784935,-0.10911688208580017,-0.993934154510498,0.11200690269470215,-0.06274289637804031,-0.11325877904891968,0.9982194801677806,0.05478468207090783,-0.005617377411686676,0.022910489613357166
1729874255896149000,0.62814892578125,-0.45987552404403687,-0.08155718445777893,1.130926251411438,-0.015311827883124352,-0.10437241941690445,-0.9944204092025757,0.1827770471572876,-0.10703814029693604,-0.07863867282867432,0.9981950912036535,0.052457148712490784,-0.006168032997491112,0.028575967158287058
1729874255906179000,0.638178955078125,-0.4925396740436554,-0.17882083356380463,1.1967936754226685,-0.017812084406614304,-0.09947767853736877,-0.9948803782463074,0.2868855595588684,-0.1529027223587036,-0.06339293718338013,0.9981294571339983,0.050079643868881925,-0.007200813092825557,0.034319301209209126
1729874255916210000,0.6482099609375,-0.5984280109405518,-0.279526948928833,1.2922407388687134,-0.021270092576742172,-0.0938054621219635,-0.9953632950782776,0.35414057970046997,-0.1731013059616089,-0.05567735433578491,0.9980193929017918,0.0473501473288253,-0.008735507596450068,0.04048224090524744
1729874255926240000,0.658239990234375,-0.7060650587081909,-0.38405323028564453,1.3288997411727905,-0.025826193392276764,-0.08699854463338852,-0.9958736300468445,0.37419959902763367,-0.17519327998161316,-0.027441799640655518,0.997866235706255,0.04410309069501457,-0.010867806491469244,0.04690102069009434
1729874255936270000,0.66827001953125,-0.7888640761375427,-0.46453580260276794,1.3534306287765503,-0.031183507293462753,-0.07915715128183365,-0.9963743090629578,0.35300663113594055,-0.17120909690856934,-0.0029848217964172363,0.9976600031136243,0.04039325853087172,-0.013462457777523985,0.05349401787721854
1729874255946301000,0.678301025390625,-0.9033809304237366,-0.5040355324745178,1.4047287702560425,-0.037057872861623764,-0.07018175721168518,-0.9968456625938416,0.33413124084472656,-0.1726771742105484,0.006184041500091553,0.9973951021473739,0.036172249053770256,-0.01639350658519714,0.06021558962777913
1729874255956331000,0.6883310546875,-0.9823178052902222,-0.5335021018981934,1.4640228748321533,-0.043188370764255524,-0.0601690337061882,-0.9972534775733948,0.3043883144855499,-0.16140387952327728,0.030639708042144775,0.9970499255883808,0.0314905006664961,-0.019535132857295648,0.06721654103734881
1729874255966360800,0.69836083984375,-1.0412193536758423,-0.5604506134986877,1.539556860923767,-0.049457304179668427,-0.049277424812316895,-0.9975599050521851,0.284503698348999,-0.1350030153989792,0.04058969020843506,0.9966062980761475,0.026430553383201175,-0.022836084054099065,0.07453747368062125
1729874255976391000,0.708390869140625,-1.034596562385559,-0.5962048768997192,1.6187880039215088,-0.05593039467930794,-0.03797092288732529,-0.9977123737335205,0.27866294980049133,-0.1109243854880333,0.05520749092102051,0.9960400928105149,0.021233903591847,-0.02632355681470246,0.08222130415579573
1729874255986421800,0.718421875,-0.9900005459785461,-0.6024243831634521,1.682206630706787,-0.062446702271699905,-0.026848573237657547,-0.9976871013641357,0.2766801118850708,-0.09056785702705383,0.05379366874694824,0.9953356281868667,0.01619925691556388,-0.029900343430683627,0.09028027709884086
1729874255996451800,0.728451904296875,-0.9709091782569885,-0.6060172319412231,1.7322312593460083,-0.06882617622613907,-0.015896616503596306,-0.9975020289421082,0.26477953791618347,-0.06534121930599213,0.049977004528045654,0.9945004139394747,0.011311494161260937,-0.03348203096678246,0.09858952565725156
1729874256006482000,0.73848193359375,-0.9425215721130371,-0.6054335236549377,1.8303463459014893,-0.07504252344369888,-0.005024949554353952,-0.9971676468849182,0.2514646351337433,-0.037821777164936066,0.07022678852081299,0.9935194898242575,0.006529659510411122,-0.03706111960009645,0.10725172827871268
1729874256016512000,0.748511962890625,-0.885679304599762,-0.6114403009414673,1.9470902681350708,-0.08113694936037064,0.005605281330645084,-0.9966871738433838,0.24033188819885254,-0.03714524582028389,0.08743125200271606,0.9923598548344303,0.001947051956154798,-0.04065228767513842,0.11647110635631389
1729874256026542800,0.75854296875,-0.855568528175354,-0.5850838422775269,2.0232791900634766,-0.08688674867153168,0.015965823084115982,-0.9960902333259583,0.21150527894496918,-0.04855864495038986,0.10198628902435303,0.9910207565474487,-0.0024340312580337143,-0.04414691998673674,0.12618629443874926
1729874256036573000,0.768572998046875,-0.8552971482276917,-0.5404841303825378,2.053614854812622,-0.09206289052963257,0.026324689388275146,-0.9954051375389099,0.16470998525619507,-0.052234165370464325,0.12179374694824219,0.9895310171207489,-0.006773901466133328,-0.0474503270628898,0.13612885777015446
1729874256046603000,0.77860302734375,-0.8675662279129028,-0.4905857443809509,2.102696657180786,-0.0965491235256195,0.03691515699028969,-0.9946434497833252,0.1312170922756195,-0.03999748080968857,0.1326591968536377,0.9878957485126495,-0.011204909459320045,-0.05052463649399637,0.1462315498258194
1729874256056633000,0.788633056640625,-0.8552765250205994,-0.4344966411590576,2.180985450744629,-0.10024755448102951,0.04765911027789116,-0.9938204288482666,0.12128941714763641,-0.02870774269104004,0.1452028751373291,0.9860901407219838,-0.015695124256272376,-0.0533240132259232,0.15664139879454264
1729874256066664000,0.798663818359375,-0.8396215438842773,-0.37446245551109314,2.262425661087036,-0.10309460014104843,0.058368779718875885,-0.9929574728012085,0.11340954154729843,-0.024830017238855362,0.15579932928085327,0.9840983595321439,-0.020161286398494585,-0.055810163786058055,0.16741935657221324
1729874256076694000,0.808694091796875,-0.8582589030265808,-0.3015331029891968,2.32869815826416,-0.10497675836086273,0.06920602172613144,-0.9920637011528015,0.10227594524621964,-0.015785053372383118,0.168226420879364,0.9819178094755597,-0.024705155686173676,-0.0579465284173242,0.17851936230842952
1729874256086723800,0.818723876953125,-0.8999765515327454,-0.21672432124614716,2.3944308757781982,-0.1057465448975563,0.08048839867115021,-0.9911302924156189,0.08691719174385071,-0.005934007465839386,0.1910509467124939,0.9795416694024547,-0.029510970414133385,-0.0596988259765729,0.18990280094675743
1729874256096755000,0.8287548828125,-0.9032011032104492,-0.14716202020645142,2.5020511150360107,-0.10537570714950562,0.09206000715494156,-0.9901620745658875,0.07430880516767502,-0.00658031553030014,0.22591036558151245,0.9769427164722302,-0.0345138104440356,-0.061055426339806596,0.20165262564051148
1729874256106784800,0.83878466796875,-0.8613764643669128,-0.07652278989553452,2.612306833267212,-0.10399279743432999,0.10350130498409271,-0.989177942276001,0.07327684015035629,-0.017502814531326294,0.264721155166626,0.9740756758318737,-0.039499279936635906,-0.062055155537933095,0.21392845297633326
1729874256116814800,0.84881494140625,-0.8843260407447815,0.028513610363006592,2.6622166633605957,-0.10131843388080597,0.11482954025268555,-0.988204836845398,0.07067877799272537,-0.023276858031749725,0.27049243450164795,0.9709680037439093,-0.04453385883308742,-0.06256460176007525,0.2265469074238338
1729874256126845000,0.858844970703125,-0.9392469525337219,0.11720997840166092,2.68984317779541,-0.09733372926712036,0.12652531266212463,-0.9871765375137329,0.055127911269664764,-0.017058804631233215,0.3084503412246704,0.9676504651866029,-0.04989246805170624,-0.06262970380373231,0.23925046216409113
1729874256136875800,0.868875732421875,-1.0136070251464844,0.1773769110441208,2.703090190887451,-0.09226329624652863,0.13874107599258423,-0.9860215187072754,0.05687814950942993,-0.02373562753200531,0.3488755226135254,0.9641161656113798,-0.05564621491211448,-0.06239189664850214,0.2519737987893016
1729874256146905900,0.87890576171875,-1.1253446340560913,0.19228960573673248,2.6984431743621826,-0.08645112812519073,0.1517173945903778,-0.9846360087394714,0.06484466791152954,-0.030699998140335083,0.34898537397384644,0.9603588341162782,-0.06188821029933835,-0.06206329862934223,0.26462992398174395
1729874256156936000,0.88893603515625,-1.2560168504714966,0.21238209307193756,2.6764564514160156,-0.08018260449171066,0.16569727659225464,-0.9829115867614746,0.06100229173898697,-0.01582549512386322,0.3200697898864746,0.9563791894828242,-0.06871177375404175,-0.06182964933841677,0.2771182568547017
1729874256166967000,0.898967041015625,-1.3683297634124756,0.24907910823822021,2.6580939292907715,-0.07328132539987564,0.18073581159114838,-0.9807978272438049,0.05292608588933945,0.022343352437019348,0.27782541513442993,0.9521843468216363,-0.07617500027672112,-0.06163154034005386,0.28938530138871915
1729874256176996900,0.908996826171875,-1.4048599004745483,0.3387956917285919,2.681846857070923,-0.06535906344652176,0.19626127183437347,-0.9783709645271301,0.050100259482860565,0.06640344858169556,0.23925048112869263,0.947759450851473,-0.08405851465284843,-0.0612265864651805,0.3015583111361573
1729874256187027000,0.91902685546875,-1.3789713382720947,0.44077882170677185,2.7592570781707764,-0.055961087346076965,0.21157822012901306,-0.9757576584815979,0.047583989799022675,0.10391245782375336,0.2405892014503479,0.9430719311958445,-0.09210177612587515,-0.060319419254286875,0.3138376779181204
1729874256197057000,0.92905712890625,-1.3176965713500977,0.5501090288162231,2.8521065711975098,-0.04492931813001633,0.22623181343078613,-0.9730367660522461,0.03601815924048424,0.11757917702198029,0.2874441146850586,0.9380645837902816,-0.10012690384403819,-0.058789708488448646,0.32642460158389097
1729874256207087900,0.939087890625,-1.2233024835586548,0.6692571043968201,2.9183363914489746,-0.03225216642022133,0.23971423506736755,-0.9703076481819153,0.003748726099729538,0.10188420116901398,0.3229840397834778,0.9327560833559818,-0.10792832502385553,-0.05654791982996884,0.3392930641261214
1729874256217118000,0.949117919921875,-1.1922553777694702,0.8151160478591919,2.9214487075805664,-0.0178239569067955,0.2521355450153351,-0.9675277471542358,-0.046949632465839386,0.07743898034095764,0.34792935848236084,0.9272160586959,-0.1156307996882509,-0.053531643701172756,0.35218489818936943
1729874256227147800,0.959147705078125,-1.2317453622817993,0.956702470779419,2.886699914932251,-0.001669623306952417,0.2641671299934387,-0.9644754528999329,-0.10027437657117844,0.06285920739173889,0.37598973512649536,0.921494860245829,-0.12360530327404085,-0.049839677142122465,0.36480792885836644
1729874256237177900,0.969177734375,-1.238730549812317,1.0509955883026123,2.8235576152801514,0.015764832496643066,0.2758903205394745,-0.9610598087310791,-0.13382211327552795,0.06026074290275574,0.3625032901763916,0.9156322771021095,-0.13184596122003944,-0.04568070638224113,0.3770244092061354
1729874256247209000,0.979208984375,-1.2891067266464233,1.191043496131897,2.7323639392852783,0.03438722714781761,0.2872972786426544,-0.9572240114212036,-0.1409851610660553,0.0764874517917633,0.2697240114212036,0.9096836590774366,-0.14035999787994863,-0.041073957509769915,0.3886999330238241
1729874256257238800,0.98923876953125,-1.36834716796875,1.3319270610809326,2.6895737648010254,0.05443231761455536,0.2988418936729431,-0.9527490139007568,-0.13013121485710144,0.11572408676147461,0.23331236839294434,0.9036070615359105,-0.14943019689119538,-0.03600169671595751,0.3998358294490639
1729874256267268900,0.999268798828125,-1.3729724884033203,1.459862232208252,2.639385938644409,0.07570014148950577,0.310234934091568,-0.947641134262085,-0.10191477835178375,0.13564208149909973,0.24437880516052246,0.8973796466834179,-0.15889747992049974,-0.030512437699470405,0.41052450918619166
1729874256277300000,1.009300048828125,-1.3675005435943604,1.5358741283416748,2.6456291675567627,0.09834297001361847,0.3209027349948883,-0.9419926404953003,-0.09005748480558395,0.11905387043952942,0.2525394558906555,0.8909407322198106,-0.16854098959321256,-0.024446370875335483,0.4209762414778981
1729874256287329800,1.019329833984375,-1.2996407747268677,1.5678008794784546,2.5612435340881348,0.12168458849191666,0.3306180238723755,-0.9358870387077332,-0.09333380311727524,0.09821492433547974,0.29588764905929565,0.884334207280451,-0.17813128911831555,-0.018047775690533886,0.4311570472185705
1729874256297360000,1.02935986328125,-1.1083195209503174,1.7200220823287964,2.502312660217285,0.14558324217796326,0.33850401639938354,-0.9296346306800842,-0.14849773049354553,0.09040519595146179,0.29598289728164673,0.8778153976629701,-0.18724238122137205,-0.011089754699570903,0.44074625446184795
1729874256307390000,1.039389892578125,-0.9887672662734985,1.8654974699020386,2.4215991497039795,0.17066487669944763,0.3442331552505493,-0.9232426881790161,-0.1613723337650299,0.11620074510574341,0.2418156862258911,0.8713848394255502,-0.19587891240705194,-0.0031807401406984625,0.4497885104639576
1729874256317421000,1.049421142578125,-0.9691996574401855,2.110140085220337,2.4371695518493652,0.19738492369651794,0.3487982749938965,-0.9161762595176697,-0.16050447523593903,0.14859244227409363,0.2521137595176697,0.8648931208355639,-0.20464540800191686,0.005667065499674804,0.45831009714304255
1729874256327451000,1.059450927734375,-0.9731112718582153,2.313730478286743,2.5595932006835938,0.22643963992595673,0.3523688018321991,-0.9080535769462585,-0.1245415061712265,0.13632437586784363,0.28052061796188354,0.8579659428810037,-0.21384466898452353,0.01560994707378853,0.46682021303966276
1729874256337481000,1.06948095703125,-1.0438631772994995,2.387586832046509,2.6012446880340576,0.2570306062698364,0.3551856577396393,-0.8987649083137512,-0.07296386361122131,0.07817918062210083,0.2998726963996887,0.8504933093905965,-0.22345355030566902,0.026192402846586166,0.475440345897361
1729874256347510800,1.0795107421875,-1.2075722217559814,2.333430290222168,2.432960033416748,0.28736576437950134,0.35831791162490845,-0.8882731199264526,-0.06745615601539612,0.03557240962982178,0.26945292949676514,0.8427461712882951,-0.23352287393175003,0.03647601028791226,0.4836479549371838
1729874256357542100,1.089542236328125,-1.4546682834625244,2.2350029945373535,2.0749924182891846,0.3157205283641815,0.36321258544921875,-0.8765826225280762,-0.0684061348438263,0.06649014353752136,0.17969846725463867,0.8351659880812596,-0.24420332152281704,0.045534744198683884,0.4907025305507193
1729874256367571700,1.09957177734375,-1.6729036569595337,2.0704073905944824,1.6464591026306152,0.341599702835083,0.37071341276168823,-0.8636441230773926,-0.04535037279129028,0.1823108196258545,0.05666780471801758,0.8280067562959857,-0.25566002222385426,0.05306500624416276,0.4962123625746291
1729874256377601800,1.109601806640625,-1.6854088306427002,2.148104429244995,1.6395481824874878,0.36581146717071533,0.3796387016773224,-0.8497390151023865,-0.01147189736366272,0.3093108534812927,-0.045860350131988525,0.8211636517837904,-0.26752740823160487,0.059662108298523205,0.5005594571624181
1729874256387631900,1.1196318359375,-1.4336647987365723,2.1624577045440674,1.9843961000442505,0.3908422589302063,0.3859998285770416,-0.8356114029884338,0.11297237873077393,0.3884752690792084,-0.17510026693344116,0.8137966368292384,-0.278762798392107,0.06697453641199491,0.5055103389554074
1729874256397662500,1.129662353515625,-1.2053605318069458,2.2640254497528076,2.3253517150878906,0.41771095991134644,0.38815364241600037,-0.8214951753616333,0.2070600986480713,0.43693482875823975,-0.2590102553367615,0.8056097700930914,-0.28899539573292726,0.07572373293435182,0.5116057209757198
1729874256407692300,1.1396923828125,-1.0408978462219238,2.304469347000122,2.413893461227417,0.4456871747970581,0.38698360323905945,-0.807221531867981,0.15570738911628723,0.4412786662578583,-0.21522414684295654,0.7968684752936077,-0.2984496406180427,0.08553976323690718,0.5182772059938631
1729874256417722000,1.14972216796875,-0.893047571182251,2.293891429901123,2.267746925354004,0.47326016426086426,0.3838944733142853,-0.7928743958473206,0.04967370629310608,0.38537734746932983,-0.15420818328857422,0.7882097265986429,-0.3072398474884262,0.09574168488351761,0.5245594363135745
1729874256427753200,1.159753173828125,-0.7791610360145569,2.2238388061523438,2.037594795227051,0.4993617534637451,0.37997347116470337,-0.7786257266998291,-0.04930382966995239,0.28248679637908936,-0.1024167537689209,0.780062731713458,-0.3154260073208969,0.10579966222410504,0.5299198301154129
1729874256437783300,1.169783203125,-0.6654675006866455,2.191730499267578,1.8403103351593018,0.5237256288528442,0.37560319900512695,-0.7646134495735168,-0.10272049903869629,0.18115946650505066,-0.06316065788269043,0.7725229785076688,-0.323021203948282,0.11554471030172722,0.5343360844372516
1729874256447813400,1.1798134765625,-0.571722686290741,2.2065649032592773,1.7407375574111938,0.5471353530883789,0.37071871757507324,-0.7504735589027405,-0.10902506113052368,0.12313196063041687,-0.0462183952331543,0.7653794072047994,-0.3302493442776768,0.12529399935401514,0.5379881292563664
1729874256457843200,1.18984326171875,-0.4595932364463806,2.22462797164917,1.7103805541992188,0.5700067281723022,0.3649120032787323,-0.7361599802970886,-0.08908027410507202,0.11258125305175781,-0.0020755529403686523,0.7584046492743729,-0.3370894564777542,0.13524315624105723,0.541204479819845
1729874256467874300,1.199874267578125,-0.37341412901878357,2.2572367191314697,1.7241657972335815,0.5926327705383301,0.35792189836502075,-0.721580445766449,-0.051220476627349854,0.13586774468421936,-0.005378901958465576,0.7514489567196468,-0.34355036054862126,0.14554358632540434,0.5441642347895804
1729874256477904400,1.209904296875,-0.36505499482154846,2.2655441761016846,1.7734720706939697,0.615053653717041,0.3499375581741333,-0.7065781950950623,-0.018450379371643066,0.1578901708126068,-0.0033828020095825195,0.7443215836645669,-0.3497860395586955,0.1560789218200782,0.547059939501334
1729874256487934500,1.2199345703125,-0.43625620007514954,2.237469434738159,1.8321501016616821,0.6370844841003418,0.34138724207878113,-0.6910702586174011,0.012390553951263428,0.14292669296264648,-0.005981802940368652,0.7368374967057933,-0.3559902772028254,0.16654069485416756,0.5500959700294802
1729874256497964300,1.22996435546875,-0.5961300134658813,2.1926302909851074,1.8576176166534424,0.6585413813591003,0.3328852653503418,-0.6749153137207031,0.03794598579406738,0.09397932887077332,-0.023052334785461426,0.728893073388198,-0.3624228302347594,0.17661270853323602,0.5533285463754039
1729874256507995400,1.239995361328125,-0.7773115634918213,2.0804529190063477,1.8361589908599854,0.6789311766624451,0.3250748813152313,-0.6583150625228882,0.05028623342514038,0.04324173927307129,-0.019434571266174316,0.7205418866947577,-0.36918731237793767,0.1858579989995732,0.5567556395997354
1729874256518025500,1.250025390625,-0.8943849205970764,1.9160925149917603,1.7831047773361206,0.6978458166122437,0.31805741786956787,-0.6417559385299683,0.0696253776550293,0.01575911045074463,-0.040235698223114014,0.7119876107353588,-0.37610074155009593,0.19408827258587696,0.5603138833908327
1729874256528055300,1.26005517578125,-0.9121639132499695,1.7419888973236084,1.7112984657287598,0.7149705290794373,0.3114425539970398,-0.6259558796882629,0.08086681365966797,0.012394696474075317,-0.06805968284606934,0.7035204671967634,-0.3827361585022875,0.20133329119050272,0.5639476602834135
1729874256538086100,1.270086181640625,-0.881507158279419,1.6367820501327515,1.6276917457580566,0.730601966381073,0.304908812046051,-0.6109430193901062,0.08063149452209473,0.031074464321136475,-0.09347903728485107,0.695317793991683,-0.3889597148398459,0.20793951106988784,0.5674544970143484
1729874256548116200,1.2801162109375,-0.8561211228370667,1.5710978507995605,1.5800797939300537,0.745151162147522,0.29830658435821533,-0.5964586138725281,0.06115370988845825,0.06068688631057739,-0.0889662504196167,0.6873437537901635,-0.39484599480793015,0.2141666103603206,0.5707782076331238
1729874256558146300,1.290146240234375,-0.8300272226333618,1.5428045988082886,1.5707147121429443,0.7590063214302063,0.2914017140865326,-0.5822322368621826,0.04809194803237915,0.08466640114784241,-0.09983575344085693,0.6794517106167174,-0.4004806813186745,0.22022513629628793,0.5739873081694556
1729874256568176400,1.30017626953125,-0.8444820046424866,1.5616209506988525,1.540911316871643,0.7724379897117615,0.28424325585365295,-0.5679306387901306,0.045249879360198975,0.09351855516433716,-0.13112026453018188,0.6715394963573778,-0.4060287120632007,0.22621975521497723,0.5770613826002569
1729874256578207200,1.310207275390625,-0.8779727816581726,1.5941487550735474,1.4624665975570679,0.7855983972549438,0.2773202955722809,-0.5531080961227417,0.0515291690826416,0.09990742802619934,-0.14493578672409058,0.6635771097068753,-0.411786017257368,0.2321168594454534,0.579844261182682
1729874256588237300,1.3202373046875,-0.8810756206512451,1.5329619646072388,1.3563419580459595,0.7980614304542542,0.2709569036960602,-0.5382194519042969,0.0667455792427063,0.11626535654067993,-0.14513015747070312,0.6557902049441603,-0.4176162189208614,0.23766987070164677,0.5822789704932988
1729874256598267400,1.330267333984375,-0.8540642857551575,1.3994252681732178,1.2471628189086914,0.8094263672828674,0.2650938332080841,-0.5239790081977844,0.09593844413757324,0.1371431052684784,-0.15268725156784058,0.648363461079149,-0.42321379995947794,0.2426943871397818,0.5844776862818583
1729874256608297500,1.34029736328125,-0.7616058588027954,1.2595407962799072,1.1601892709732056,0.8194674849510193,0.2594738304615021,-0.5110246539115906,0.11198985576629639,0.16052427887916565,-0.13542920351028442,0.6414716601581917,-0.4282482602574092,0.24716611983273074,0.5865375319390023
1729874256618328300,1.350328369140625,-0.6407747864723206,1.1834216117858887,1.0889534950256348,0.8285451531410217,0.25371283292770386,-0.499142050743103,0.1135324239730835,0.18303948640823364,-0.13316696882247925,0.6351171104806298,-0.4326749154466691,0.2514386555921546,0.5883853773555032
1729874256628358400,1.3603583984375,-0.5293160676956177,1.1795434951782227,1.0201019048690796,0.8370298743247986,0.24778227508068085,-0.4878370463848114,0.09822702407836914,0.20000214874744415,-0.14184749126434326,0.629229562136491,-0.43666110702585537,0.2557509732320391,0.5899056408812061
1729874256638388500,1.370388427734375,-0.46796348690986633,1.2276556491851807,0.9445627927780151,0.8452675342559814,0.24187783896923065,-0.47646400332450867,0.07407444715499878,0.20062701404094696,-0.1628488302230835,0.6236718173538506,-0.44050812286169905,0.26023180575211624,0.5909868885894426
1729874256648419300,1.38041943359375,-0.4673590064048767,1.2673147916793823,0.8657939434051514,0.853325366973877,0.23634950816631317,-0.4647309482097626,0.04645484685897827,0.17879632115364075,-0.1681274175643921,0.618308053021394,-0.44446019014389443,0.2647445323496048,0.5916592741286638
1729874256658449400,1.390449462890625,-0.5044576525688171,1.2838242053985596,0.7860745787620544,0.8611488342285156,0.2314852625131607,-0.4525895416736603,0.0318412184715271,0.147253155708313,-0.15860134363174438,0.6130534960724829,-0.4486540403117606,0.2690999369450341,0.5919967948872544
1729874256668479200,1.400479248046875,-0.5495206117630005,1.2592965364456177,0.704368531703949,0.868577241897583,0.22734518349170685,-0.44032686948776245,0.04752987623214722,0.12760478258132935,-0.1565818190574646,0.6079205473054274,-0.45302382441089845,0.273140956233379,0.5921115040881395
1729874256678509300,1.41050927734375,-0.6451624631881714,1.176486849784851,0.6210494041442871,0.8754186034202576,0.22409789264202118,-0.4282785654067993,0.09626102447509766,0.13304933905601501,-0.17012542486190796,0.602904817449098,-0.45753773323686414,0.27662237075706547,0.5921529749567767
1729874256688540200,1.4205400390625,-0.820323646068573,1.0158883333206177,0.5190982818603516,0.8813724517822266,0.22215363383293152,-0.41692954301834106,0.1501978635787964,0.1440420299768448,-0.1697556972503662,0.5979888589673683,-0.4622128889424004,0.2790958020345467,0.5923462141129622
1729874256698570200,1.4305703125,-0.9726953506469727,0.8065815567970276,0.4011727273464203,0.8861504197120667,0.22177281975746155,-0.4068834185600281,0.1700018048286438,0.14474327862262726,-0.1495741307735443,0.59325113683825,-0.4669462696856466,0.2802132551351752,0.5928698581350222
1729874256708600300,1.440600341796875,-1.1261218786239624,0.6615676283836365,0.28841927647590637,0.8898760080337524,0.22292998433113098,-0.39802369475364685,0.156266450881958,0.14189238846302032,-0.15197941660881042,0.5887185916904103,-0.4717512217597415,0.2800695328274571,0.5936515938573003
1729874256718630400,1.45063037109375,-1.25519597530365,0.5994341969490051,0.20415125787258148,0.8929066061973572,0.22543491423130035,-0.38973942399024963,0.11841529607772827,0.14245449006557465,-0.12225407361984253,0.5842693145668226,-0.47677958294854345,0.27894714726150244,0.5945578771839671
1729874256728661200,1.4606611328125,-1.3553601503372192,0.5518220663070679,0.14545892179012299,0.895560622215271,0.22894713282585144,-0.38151589035987854,0.07943016290664673,0.13807249069213867,-0.09876984357833862,0.5797713271590421,-0.482112094577899,0.2771461336227953,0.5955024552892872
1729874256738691300,1.47069140625,-1.3961150646209717,0.5338643193244934,0.09102176874876022,0.8978736400604248,0.2330763041973114,-0.3734946846961975,0.05421370267868042,0.12141591310501099,-0.09101343154907227,0.5753275877564862,-0.48753492940597526,0.2748860543898239,0.5964440273304285
1729874256748721400,1.480721435546875,-1.4515559673309326,0.5196237564086914,0.042120009660720825,0.8999795913696289,0.23776304721832275,-0.36538413166999817,0.028273582458496094,0.10118044912815094,-0.06683644652366638,0.5709120817110143,-0.49311226310543615,0.27230172460831714,0.5972868046495734
1729874256758752300,1.490752197265625,-1.5806872844696045,0.5965481400489807,0.026658494025468826,0.902068555355072,0.24295823276042938,-0.35671231150627136,-0.0011591315269470215,0.06626112759113312,-0.0009537637233734131,0.5663019663266241,-0.49904877384827634,0.26943303267281526,0.5980454069654687
1729874256768782300,1.5007822265625,-1.6745752096176147,0.5826172232627869,0.05094679072499275,0.9042869806289673,0.24836380779743195,-0.3472472131252289,-0.01707988977432251,0.013766944408416748,0.04550454020500183,0.5612552127751199,-0.5054186269813828,0.2663238762427397,0.5988457943043306
1729874256778812400,1.5108125,-1.749703288078308,0.5185183882713318,0.03280587121844292,0.906300961971283,0.25379419326782227,-0.3379451036453247,-0.015157341957092285,-0.03905728459358215,0.03701123595237732,0.5560291293634146,-0.5117920374645969,0.26286185186710936,0.5998366911164998
1729874256788842200,1.52084228515625,-1.8634711503982544,0.49669748544692993,-0.003050930332392454,0.9080193042755127,0.2597111165523529,-0.32871103286743164,-0.022078871726989746,-0.03786361217498779,-0.001626521348953247,0.5506616879670375,-0.5183044563761241,0.25885317959795656,0.6009385159383803
1729874256798873000,1.530873046875,-1.9937477111816406,0.5507810115814209,-0.00986569281667471,0.9096758365631104,0.26607152819633484,-0.31889766454696655,-0.028190970420837402,-0.0067789554595947266,-0.039027780294418335,0.5449880805135533,-0.525177583885334,0.25443993184649344,0.6020272182755751
1729874256808903200,1.540903076171875,-2.103628635406494,0.5973718166351318,0.07267605513334274,0.9115723371505737,0.2722618877887726,-0.30807361006736755,-0.031414926052093506,0.02066105604171753,-0.07487630844116211,0.5387184245050908,-0.5324696689692551,0.24987845894232108,0.6031743296894851
1729874256818933200,1.550933349609375,-2.2009730339050293,0.6143507957458496,0.13702842593193054,0.9137251973152161,0.2777780592441559,-0.2965562343597412,-0.03208768367767334,0.018669694662094116,-0.10227811336517334,0.5318364410922132,-0.5399575430523905,0.24529113381578757,0.6045064608156282
1729874256828963300,1.56096337890625,-2.3215279579162598,0.6635545492172241,0.14309749007225037,0.9159808158874512,0.28306281566619873,-0.2843492925167084,-0.05392032861709595,0.00957024097442627,-0.07656693458557129,0.5244595894584492,-0.547708707002486,0.2405005749999698,0.6059015839175188
1729874256838994200,1.570994140625,-2.363971471786499,0.6977037191390991,0.1348257213830948,0.9183080196380615,0.2882842421531677,-0.27129775285720825,-0.0774114727973938,0.0026703178882598877,0.0013697147369384766,0.5167070611442824,-0.5557573868526375,0.23555221831138454,0.6071759326340703
1729874256849024300,1.581024169921875,-2.40324330329895,0.7102227807044983,0.11910773068666458,0.9205484390258789,0.29342401027679443,-0.25786179304122925,-0.07354843616485596,-0.012067198753356934,0.02412763237953186,0.5088105427589774,-0.563875438353152,0.23046385361668986,0.6083112799425406
1729874256859054300,1.591054443359375,-2.492851495742798,0.7543534636497498,0.1341008096933365,0.9227570295333862,0.29843130707740784,-0.24383990466594696,-0.05187714099884033,-0.005340486764907837,0.02499827742576599,0.5006257665018248,-0.5721589749796615,0.22519803219272277,0.6093386720788628
1729874256869085200,1.601085205078125,-2.471597909927368,0.6988885998725891,0.17488205432891846,0.9249788522720337,0.3029015362262726,-0.2294875979423523,-0.019049465656280518,-0.018767625093460083,0.04210962355136871,0.49210738126922815,-0.5804504231573852,0.21984882457461516,0.6103883981569851
1729874256879115300,1.611115234375,-2.4020497798919678,0.6318544745445251,0.13439135253429413,0.9269551634788513,0.30686354637145996,-0.21584394574165344,0.010941386222839355,-0.03312087059020996,-0.018988877534866333,0.4837480854173671,-0.5882833647644619,0.21447775490472165,0.6114814905382301
1729874256889145300,1.621145263671875,-2.24627685546875,0.5687798857688904,0.08596176654100418,0.9285573363304138,0.310724139213562,-0.2030564695596695,0.016038060188293457,0.012899518013000488,-0.03415676951408386,0.47585059972815347,-0.5956102322634647,0.20909379264519032,0.6124496187158639
1729874256899175400,1.631175537109375,-2.0166051387786865,0.49028879404067993,-0.00656044390052557,0.9298295974731445,0.31437820196151733,-0.1912670135498047,0.021326899528503418,0.08224347233772278,-0.019899412989616394,0.46871195843819125,-0.602274776681435,0.2040381916543782,0.6131415046678684
1729874256909206300,1.641206298828125,-1.6971999406814575,0.6008917689323425,0.09236373752355576,0.930976927280426,0.3174850046634674,-0.1802360564470291,0.009101688861846924,0.14165189862251282,-0.04290853440761566,0.46243699554777057,-0.6082563535407973,0.19976531053090826,0.6134084703147769
1729874256919236000,1.651236083984375,-1.568331241607666,0.6951660513877869,0.2648497521877289,0.9326534867286682,0.3187248408794403,-0.169032022356987,0.054284870624542236,0.1569221019744873,-0.09035222232341766,0.45628103785905266,-0.6138125170605914,0.19676936883988475,0.6134521660714705
1729874256929266200,1.66126611328125,-1.6027981042861938,0.7557791471481323,0.3740207254886627,0.9349063038825989,0.3182263672351837,-0.15710555016994476,0.07412683963775635,0.11918208003044128,-0.05000203847885132,0.44968617574077147,-0.619330799408042,0.19461907266936596,0.6134615492438151
1729874256939296300,1.671296142578125,-1.8263732194900513,0.7471547722816467,0.3093501329421997,0.9371562004089355,0.3175238370895386,-0.14462672173976898,0.05223888158798218,0.028209805488586426,0.004245758056640625,0.44257628508124325,-0.6251100267350448,0.19215643904892107,0.6135467390715794
1729874256949327000,1.6813271484375,-2.145427703857422,0.6957048773765564,0.1709831953048706,0.9389405250549316,0.3179892599582672,-0.13142915070056915,0.014993250370025635,-0.042720675468444824,0.04770408570766449,0.43486291893804,-0.6314978464247832,0.18840353366757484,0.6136846836639993
1729874256959357200,1.691357177734375,-2.2020621299743652,0.5229566693305969,0.047714777290821075,0.940041720867157,0.3197944760322571,-0.118545301258564,0.008291959762573242,-0.07135087251663208,0.08732575178146362,0.4269610381414968,-0.6380705510567451,0.18328481093403018,0.6139844282694369
1729874256969387300,1.70138720703125,-2.0831778049468994,0.26294809579849243,0.1257198452949524,0.9407522082328796,0.32147839665412903,-0.10787399858236313,0.05488365888595581,0.011041134595870972,0.04230690747499466,0.4194548989500773,-0.6437844692776343,0.17777670687039826,0.6148125715547773
1729874256979418400,1.71141845703125,-1.6080515384674072,0.17771977186203003,0.3485388159751892,0.9417781233787537,0.3210717439651489,-0.09983351081609726,0.1554812788963318,0.12196716666221619,-0.05588250607252121,0.4124546832650812,-0.6481201031634158,0.17327312468233655,0.616277344022355
1729874256989448200,1.7214482421875,-1.0240676403045654,0.2302735298871994,0.3442886769771576,0.9431049823760986,0.31898489594459534,-0.09381671249866486,0.1850687861442566,0.15913400053977966,-0.1317540407180786,0.4069053207029751,-0.6511027150671772,0.17075390723173975,0.6175244139748892
1729874256999478300,1.731478271484375,-0.6452532410621643,0.3463476598262787,0.3743323087692261,0.9444851279258728,0.3164285719394684,-0.08843576908111572,0.09457743167877197,0.2094809114933014,-0.14836543798446655,0.40290602457371466,-0.6533712786360807,0.1699649560273122,0.6179681862374897
1729874257009508400,1.74150830078125,-0.5287945866584778,0.3715234696865082,0.43338045477867126,0.9460884928703308,0.3130488097667694,-0.08316818624734879,0.07238984107971191,0.1559300720691681,-0.13108056783676147,0.3994561606041943,-0.6553041381571437,0.1702715318784105,0.6180767322498782
1729874257019539500,1.75153955078125,-0.7098721861839294,0.4240087866783142,0.3787366449832916,0.9476900100708008,0.3096311390399933,-0.07753852754831314,0.03744786977767944,0.0301363468170166,-0.03874880075454712,0.39586985591087376,-0.6573755636453497,0.17055234817957085,0.6181070375858361
1729874257029569300,1.7615693359375,-1.0849779844284058,0.47315189242362976,0.30500462651252747,0.9490789175033569,0.30705878138542175,-0.07045597583055496,-0.02929443120956421,-0.05565497279167175,0.031378090381622314,0.3914737500250415,-0.660257319953388,0.16980071819495413,0.6180422887367928
1729874257039599000,1.77159912109375,-1.4308733940124512,0.4380120038986206,0.254826158285141,0.9502499103546143,0.3052166998386383,-0.06219319626688957,-0.03986471891403198,-0.12821471691131592,0.06498544663190842,0.3860183879552608,-0.6639079505605443,0.16771891847380013,0.6181314205651871
1729874257049629200,1.781629150390625,-1.6775387525558472,0.41158348321914673,0.24566620588302612,0.9512523412704468,0.3037596642971039,-0.053377144038677216,-0.023609578609466553,-0.143343985080719,0.05284303426742554,0.3796762737296825,-0.668017083530876,0.16451323388968206,0.618493743275629
1729874257059660300,1.791660400390625,-1.7626006603240967,0.3916095197200775,0.259415864944458,0.9522214531898499,0.30218297243118286,-0.044268831610679626,-0.0008054971694946289,-0.08794957399368286,-0.0023468732833862305,0.3727440432630004,-0.6723260475632058,0.1607584220338631,0.619028497024878
1729874257069690000,1.801690185546875,-1.7044306993484497,0.36322131752967834,0.2692522406578064,0.9531792402267456,0.30032750964164734,-0.03539697453379631,0.02114027738571167,-0.02722567319869995,-0.057681743055582047,0.36572223302406315,-0.676511744107087,0.15695022650145457,0.6196336167058036
1729874257079720200,1.81172021484375,-1.5953415632247925,0.35180458426475525,0.29683592915534973,0.9541429877281189,0.29812902212142944,-0.027026602998375893,0.02829420566558838,0.018078923225402832,-0.09240400791168213,0.35894338490576916,-0.6804010922494476,0.15343093592826484,0.6202201453078419
1729874257089751300,1.821751220703125,-1.443278193473816,0.3342466354370117,0.3473867177963257,0.9551835656166077,0.29539260268211365,-0.019168568775057793,0.027924835681915283,0.014955908060073853,-0.07156026363372803,0.35247076451878623,-0.6839510423370243,0.1504216995771339,0.6207644971658239
1729874257099781400,1.831781494140625,-1.2794958353042603,0.2669656574726105,0.4256000220775604,0.956360399723053,0.2919338643550873,-0.012222334742546082,0.021209120750427246,-0.03848537802696228,-0.027420103549957275,0.346357237667071,-0.6870065372641531,0.14802314118040255,0.6214079287028121
1729874257109811200,1.841811279296875,-1.0935163497924805,0.19350340962409973,0.4455535113811493,0.9576740860939026,0.2877788841724396,-0.006593798752874136,0.02554112672805786,-0.08489805459976196,-0.023252487182617188,0.34071927019265696,-0.6894280162017886,0.1462604222776149,0.622259731918899
1729874257119841300,1.85184130859375,-0.8948301076889038,0.18083715438842773,0.385130375623703,0.9588791131973267,0.2838076651096344,-0.0019437517039477825,0.018827617168426514,-0.07818028330802917,-0.05962556600570679,0.3358168587958792,-0.6913990642600707,0.14489809543586585,0.6230559755214546
1729874257129872400,1.861872314453125,-0.6679191589355469,0.2103114128112793,0.34017834067344666,0.9598910808563232,0.28036466240882874,0.0021489555947482586,-0.009817957878112793,-0.022124916315078735,-0.07684075832366943,0.33184706141909776,-0.6930587794094671,0.14402779632944424,0.6235406672311679
1729874257139902500,1.87190234375,-0.42720159888267517,0.21958141028881073,0.38189783692359924,0.9608874320983887,0.27687859535217285,0.005765778943896294,-0.015803992748260498,0.011710882186889648,-0.07813835144042969,0.32866198738953045,-0.6943832232698992,0.14392646989289615,0.6237773841104318
1729874257149932300,1.881932373046875,-0.23037847876548767,0.25411781668663025,0.4510001838207245,0.9620178937911987,0.2728397250175476,0.008942389860749245,-0.016308724880218506,0.020479977130889893,-0.053955912590026855,0.32605230442160543,-0.695356092477882,0.14474494607018976,0.6238739009632401
1729874257159962000,1.891962158203125,-0.08409983664751053,0.3145371973514557,0.5016950368881226,0.9632920026779175,0.26818257570266724,0.012106349691748619,-0.022511422634124756,0.03633710741996765,-0.04353952407836914,0.3238071775663769,-0.6961450822005227,0.14640764782273472,0.6237753484159758
1729874257169993500,1.901993408203125,-0.015951676294207573,0.34963661432266235,0.5128313302993774,0.9646056294441223,0.2632424831390381,0.015463454648852348,-0.026998937129974365,0.027544230222702026,-0.008246184326708317,0.32181898547092014,-0.6968845706645586,0.14860559337175386,0.6234586648693844
1729874257180023300,1.912023193359375,-0.11220557987689972,0.33225879073143005,0.502845823764801,0.9658867716789246,0.2582710087299347,0.018937069922685623,-0.01845341920852661,-0.016877025365829468,0.037596702575683594,0.31977518047756626,-0.6976612442651905,0.15078900355843608,0.6231173134285933
1729874257190053000,1.92205322265625,-0.34541887044906616,0.2742346525192261,0.48186036944389343,0.9670897722244263,0.253440260887146,0.02248314768075943,0.0059326887130737305,-0.06090480089187622,0.0745168924331665,0.3172177486868774,-0.6986012086619593,0.15230865139547375,0.623001877448587
1729874257200084200,1.932084228515625,-0.6371936798095703,0.15090380609035492,0.4887193441390991,0.9682618379592896,0.24859802424907684,0.025845902040600777,0.033309757709503174,-0.09712399542331696,0.10878229141235352,0.31380538937698443,-0.6996910860384331,0.1528245225799934,0.6233804752063856
1729874257210114300,1.9421142578125,-0.8793293237686157,0.03606058284640312,0.4457111656665802,0.9693976044654846,0.24382439255714417,0.02859468199312687,0.06266093254089355,-0.13647884130477905,0.1332094669342041,0.3095661558253552,-0.700808086318806,0.1522017306260017,0.6243967648811749
1729874257220144400,1.952144287109375,-0.8890666365623474,-0.021737469360232353,0.42332062125205994,0.9704352617263794,0.23937438428401947,0.030903955921530724,0.06748265027999878,-0.12011171877384186,0.09568285942077637,0.3050404732027494,-0.7019104320335784,0.15090965328909323,0.6256981848545702
1729874257230174200,1.96217431640625,-0.7459643483161926,-0.044425204396247864,0.4721052050590515,0.9715123176574707,0.2347414642572403,0.03255816921591759,0.06616145372390747,-0.08404567837715149,0.05861305817961693,0.3007556390066621,-0.7027244058267501,0.14985824887792148,0.6271099273743415
1729874257240205300,1.972205322265625,-0.6018649339675903,-0.020376060158014297,0.48618242144584656,0.9726530313491821,0.2297990322113037,0.033739123493433,0.07921147346496582,-0.057481542229652405,0.03535258397459984,0.2968841510630352,-0.7032460395533631,0.14938061720754758,0.628482411784181
1729874257250235400,1.9822353515625,-0.4108237028121948,-0.00012208148837089539,0.42603546380996704,0.9737106561660767,0.22510480880737305,0.03485875949263573,0.08235001564025879,-0.019965633749961853,-0.0490800179541111,0.293645149626632,-0.7036361290485291,0.14941746232797726,0.6295578067061752
1729874257260265500,1.992265380859375,-0.37850677967071533,-0.037545621395111084,0.3242560923099518,0.9745573997497559,0.2213032841682434,0.035530637949705124,0.07384330034255981,-0.015385940670967102,-0.0467611625790596,0.2911338295851347,-0.7038536745065113,0.14951697088597315,0.6304566607494989
1729874257270295300,2.00229541015625,-0.4944728910923004,-0.03923039138317108,0.22269059717655182,0.9751772880554199,0.21846400201320648,0.036091484129428864,0.0711941123008728,-0.016773328185081482,0.0036423206329345703,0.2887576904753663,-0.7041524560403961,0.14904717401181766,0.6313265354574952
1729874257280326400,2.012326416015625,-0.6290141940116882,-0.0289860051125288,0.16649895906448364,0.9756138920783997,0.21635261178016663,0.037003789097070694,0.05891680717468262,-0.03559693694114685,0.04215872660279274,0.28618837787350687,-0.7047140582193467,0.14791886367783874,0.6321348169717361
1729874257290356500,2.0223564453125,-0.7781125903129578,-0.05934258550405502,0.08629412949085236,0.9759191870689392,0.21478162705898285,0.03808872774243355,0.037050843238830566,-0.06989936530590057,0.10358905792236328,0.2833302490818034,-0.7054743054431969,0.1461176526413735,0.6329926314532744
1729874257300386300,2.03238623046875,-0.9369032382965088,-0.03558771684765816,0.024419307708740234,0.9760546684265137,0.21391570568084717,0.03946305811405182,0.021107137203216553,-0.09096033871173859,0.12084567546844482,0.2801259843327317,-0.7065009952469024,0.14348474657275934,0.6338752844306905
1729874257310417200,2.042417236328125,-1.0202947854995728,0.03529098257422447,0.02872590720653534,0.9761091470718384,0.21327945590019226,0.04150746762752533,0.024882733821868896,-0.12572446465492249,0.07131588459014893,0.27657629279715545,-0.7078339354544394,0.14044519680102072,0.634627329902527
1729874257320447200,2.052447265625,-1.0436508655548096,0.22750091552734375,0.02254258096218109,0.9761174321174622,0.2125435173511505,0.04494608938694,0.05255389213562012,-0.15214918553829193,0.001150611788034439,0.2727021334621915,-0.7096416375673252,0.1374110292695461,0.6349492553111826
1729874257330477300,2.062477294921875,-0.9399939179420471,0.40789133310317993,0.01094717625528574,0.9759981036186218,0.21188856661319733,0.05030946433544159,0.07308948040008545,-0.09671516716480255,-0.03572212904691696,0.26884638431960317,-0.7120406560805266,0.1347324650492291,0.6344816259268767
1729874257340507400,2.07250732421875,-0.6326073408126831,0.3762471079826355,0.09982112050056458,0.97588711977005,0.21096745133399963,0.05601116269826889,0.10072731971740723,0.017731308937072754,-0.019329063594341278,0.2655487204028227,-0.7143800033982156,0.1329164828402359,0.6336232161077512
1729874257350538200,2.082538330078125,-0.13831201195716858,0.17588254809379578,0.21801142394542694,0.9760743975639343,0.20911899209022522,0.05956382304430008,0.16230744123458862,0.12948879599571228,-0.046944860368967056,0.263429366388616,-0.7156749116979092,0.13263231969648093,0.6331058096289184
1729874257360568300,2.092568359375,0.33664172887802124,0.027148207649588585,0.18907324969768524,0.9764713644981384,0.20705710351467133,0.06025947630405426,0.18908655643463135,0.17197129130363464,-0.13424944877624512,0.26306682590941594,-0.7156853406870033,0.1338814086088221,0.6329819698810947
1729874257370598400,2.102598388671875,0.5528314709663391,-0.012337150052189827,0.053256284445524216,0.976723313331604,0.206144317984581,0.05929487198591232,0.12744832038879395,0.1444111168384552,-0.1323387622833252,0.26435937461218223,-0.7149855401192603,0.13580542361616682,0.6328242953024356
1729874257380628200,2.112628173828125,0.5248852968215942,0.08559633791446686,0.06426685303449631,0.9768107533454895,0.20596785843372345,0.05846197530627251,0.04598575830459595,0.10016925632953644,-0.05594432353973389,0.2661345708122341,-0.7143198909826398,0.13776095871308824,0.63240915255146
1729874257390659300,2.122659423828125,0.34972381591796875,0.19095812737941742,0.16131244599819183,0.9769614934921265,0.20512276887893677,0.05891513451933861,0.022534966468811035,0.02926751971244812,-0.05993758887052536,0.26728618961907097,-0.7140865536882651,0.1397782580978665,0.6317440900833269
1729874257400689200,2.132689208984375,0.011899195611476898,0.3058791160583496,0.2037438005208969,0.9772047996520996,0.20337073504924774,0.06091750040650368,0.016798436641693115,-0.04097144305706024,-0.10214686393737793,0.26719473392926685,-0.7144696891703739,0.1413924102068526,0.6309898116707174
1729874257410719200,2.14271923828125,-0.35368403792381287,0.4244416654109955,0.20721469819545746,0.9773953557014465,0.2012084424495697,0.06490914523601532,0.013281404972076416,-0.0676787793636322,-0.1648848056793213,0.26563605764906717,-0.7157290550574937,0.14207918208681355,0.6300657089605824
1729874257420749000,2.1527490234375,-0.5174561738967896,0.4087095856666565,0.20216001570224762,0.9775221943855286,0.19886814057826996,0.07001300156116486,0.02758944034576416,-0.07386812567710876,-0.21121788024902344,0.2630333802789089,-0.7175362125738844,0.14194464895945746,0.6291318901970105
1729874257430780000,2.16277978515625,-0.4409620761871338,0.2502192556858063,0.08487705886363983,0.9776148200035095,0.19686469435691833,0.074252650141716,0.05152934789657593,-0.09754519164562225,-0.19925272464752197,0.260543239711991,-0.7191012788252138,0.14149090426551622,0.628482991224579
1729874257440810000,2.17281005859375,-0.11900082975625992,0.17952486872673035,-0.03699345141649246,0.9775038361549377,0.19634751975536346,0.07703182101249695,0.03072059154510498,-0.08944438397884369,-0.1527765989303589,0.25926646734897574,-0.720161455935591,0.14100846668721817,0.6279052441738919
1729874257450840000,2.182840087890625,0.3235388696193695,0.14277750253677368,-0.028781328350305557,0.9773086309432983,0.19680407643318176,0.0783337652683258,0.011232078075408936,-0.002346038818359375,-0.14847850799560547,0.25961301475453824,-0.720546271094914,0.14135046865026307,0.6272434061520769
1729874257460871000,2.192870849609375,0.7463436126708984,0.2981095612049103,0.04252933710813522,0.9771687984466553,0.19711089134216309,0.0792989656329155,0.01774996519088745,0.1066763699054718,-0.15797340869903564,0.2614083773452204,-0.7204765840101796,0.14339796094788337,0.626111905120684
1729874257470901000,2.20290087890625,1.0691035985946655,0.46634021401405334,0.059808723628520966,0.9769408106803894,0.19746188819408417,0.08121085911989212,-0.022839367389678955,0.19156093895435333,-0.07422245293855667,0.26426423411169553,-0.7204443899457097,0.14685132262590708,0.6241465278783
1729874257480931000,2.21293115234375,1.1495335102081299,0.5085545182228088,0.10293035954236984,0.9767213463783264,0.1975085586309433,0.0837002545595169,-0.026434600353240967,0.1705181896686554,-0.04665195941925049,0.26770741752911376,-0.7203755889211171,0.15135764590965048,0.6216772611333863
1729874257490961200,2.222961181640625,0.9781543016433716,0.5440342426300049,0.13897038996219635,0.976507306098938,0.19721241295337677,0.08683892339468002,0.003885209560394287,0.0815352350473404,-0.02742122858762741,0.27079810009591926,-0.7204994381008029,0.15588464133958724,0.6190710928617582
1729874257500992000,2.232991943359375,0.6611036062240601,0.3892654776573181,0.18361376225948334,0.976413905620575,0.19629260897636414,0.08991681039333344,0.013545751571655273,-0.03844042122364044,0.07396245002746582,0.2728477435376517,-0.7207380324997152,0.1596718289529159,0.6169243607950576
1729874257511022000,2.24302197265625,0.4094720482826233,0.17742884159088135,0.09767967462539673,0.9764577150344849,0.19532029330730438,0.09154430031776428,0.04015910625457764,-0.15863817930221558,0.12471842765808105,0.27410177563916965,-0.7207288531750079,0.1622407780282405,0.615707773270469
1729874257521052200,2.25305224609375,0.07297207415103912,0.1594594269990921,-0.013892392627894878,0.9763896465301514,0.1951647698879242,0.09259369224309921,-0.01571178436279297,-0.1604662835597992,0.12502704560756683,0.2747448259555459,-0.720840310225702,0.16335879128357922,0.6149945279564597
1729874257531082200,2.263082275390625,-0.13501082360744476,0.2661503553390503,-0.03426024690270424,0.9761431217193604,0.19538694620132446,0.09470252692699432,-0.07688170671463013,-0.03689388930797577,0.1860896348953247,0.2744900563421922,-0.7215621387397377,0.1633993375005816,0.6142507137057368
1729874257541113000,2.273113037109375,-0.12767034769058228,0.4451912045478821,0.10138093680143356,0.9758459329605103,0.194990873336792,0.09850671887397766,-0.0650029182434082,0.13513308763504028,0.15915311872959137,0.2735885043836002,-0.7228470772193987,0.16354039602077006,0.6131036507922871
1729874257551143000,2.283142822265625,0.04197580739855766,0.4074871838092804,0.14056429266929626,0.9756945967674255,0.1934131532907486,0.1030111312866211,0.013364791870117188,0.2410045862197876,0.10331809520721436,0.27257363027904596,-0.7241657545513919,0.16458896306104842,0.6117172649775203
1729874257561173000,2.293173095703125,0.4465853273868561,0.3325064182281494,0.23634275794029236,0.9756314158439636,0.19184646010398865,0.10648105293512344,0.0681307315826416,0.21682973206043243,0.10146558284759521,0.27254363502951323,-0.7249147617672289,0.1665506374611047,0.6103109178696604
1729874257571203800,2.303203857421875,0.661767840385437,-0.039508156478405,0.23003558814525604,0.9759277105331421,0.19011594355106354,0.10686736553907394,0.16083663702011108,0.08821964263916016,0.07309471070766449,0.273798751279907,-0.7243827497186971,0.16942053160278173,0.6095903453121121
1729874257581234000,2.31323388671875,0.44289326667785645,-0.3715417683124542,0.12125343829393387,0.9764834046363831,0.18899737298488617,0.10372979938983917,0.16231036186218262,-0.06573688983917236,0.132857546210289,0.27550079480591894,-0.7228082094131423,0.1715027504610372,0.6101100540393294
1729874257591264000,2.323263916015625,0.22125381231307983,-0.5251624584197998,-0.0005185301415622234,0.9770787954330444,0.1886814832687378,0.09857167303562164,0.08989202976226807,-0.2198551446199417,0.1054534912109375,0.2768536400266959,-0.7208868740965351,0.17206961058656056,0.611609534809617
1729874257601294000,2.333294189453125,0.006037112325429916,-0.3692554235458374,-0.19384777545928955,0.9773483276367188,0.1897227168083191,0.09378574788570404,0.010780394077301025,-0.3488107919692993,-0.03658066689968109,0.2779945450191094,-0.719368406226412,0.1714700304919291,0.6130466962238965
1729874257611325000,2.343324951171875,-0.2678241431713104,0.0029103001579642296,-0.26142388582229614,0.9770597219467163,0.19196070730686188,0.09222359955310822,-0.09317922592163086,-0.2685445547103882,-0.039641864597797394,0.27838714729866276,-0.7191978158270258,0.16990085982425335,0.6135052768224057
1729874257621355000,2.35335498046875,-0.3116336762905121,0.23928208649158478,-0.07541035115718842,0.9765851497650146,0.19342146813869476,0.09417971968650818,-0.08284729719161987,-0.06301979720592499,-0.025637254118919373,0.2777229017410863,-0.7202014333353904,0.16852227400498024,0.613009152854555
1729874257631385000,2.363385009765625,-0.13933506608009338,0.22523774206638336,0.15207421779632568,0.9764403700828552,0.1927160620689392,0.09707964211702347,0.049453675746917725,0.09970338642597198,-0.04622221738100052,0.27648452731719975,-0.721261174192982,0.16829183390252692,0.6123857888213332
1729874257641415200,2.373415283203125,0.06976409256458282,-0.05101088434457779,0.19391940534114838,0.9767057299613953,0.19084779918193817,0.0980973169207573,0.13691115379333496,0.1419006735086441,-0.03761160373687744,0.27574472551514945,-0.7214371306381048,0.1690476964070126,0.6123040221183378
1729874257651446000,2.383446044921875,0.10610093176364899,-0.282886266708374,0.14517928659915924,0.9772011041641235,0.18929247558116913,0.09615626186132431,0.10917872190475464,0.09835094213485718,0.036701902747154236,0.27572365556346323,-0.7206111408638803,0.16969888986693984,0.6131053559069082
1729874257661476000,2.39347607421875,0.10396933555603027,-0.30422455072402954,0.192156121134758,0.9778021574020386,0.18776942789554596,0.09298273921012878,0.0514337420463562,0.032842203974723816,0.12244070321321487,0.27585862481780743,-0.7193891283209785,0.17020767144777194,0.6143376541399281
1729874257671506000,2.403505859375,0.051964789628982544,-0.11651457846164703,0.27061283588409424,0.9784483313560486,0.18548794090747833,0.09073610603809357,0.03922128677368164,-0.027650967240333557,0.10883355140686035,0.27554225883675915,-0.7184272157824798,0.17096897080902837,0.6153928934701984
1729874257681537000,2.413537109375,0.0940275564789772,0.05351733788847923,0.22881506383419037,0.9789459705352783,0.18302755057811737,0.09036436676979065,0.049862563610076904,-0.05538776516914368,0.03439140319824219,0.2749964233936316,-0.7180402939434721,0.17204743093968974,0.6157879442466813
1729874257691566800,2.42356689453125,0.1916394680738449,0.1193476989865303,0.13972008228302002,0.9792061448097229,0.18131254613399506,0.09100079536437988,0.046306490898132324,-0.04485318064689636,0.044039368629455566,0.2748733712044638,-0.7179566925090191,0.1733164262052177,0.6155844794659041
1729874257701597000,2.433596923828125,0.2070799469947815,0.13533519208431244,0.10778290778398514,0.9793030619621277,0.1802840530872345,0.09199413657188416,0.10606974363327026,-0.01379537582397461,0.06286727637052536,0.27507515501708335,-0.7180041309048418,0.17454838332747383,0.6150906144842347
1729874257711627000,2.443626953125,0.2774573564529419,0.019565124064683914,0.07395889610052109,0.9794033169746399,0.1795337051153183,0.0923943892121315,0.21506989002227783,0.006867706775665283,0.056805968284606934,0.2755641837007591,-0.717846089230375,0.1757674225605371,0.6147090078442481
1729874257721658000,2.453658203125,0.2501325309276581,-0.09236806631088257,0.01383457612246275,0.9795195460319519,0.1793580800294876,0.09149976074695587,0.2666352391242981,0.014962628483772278,0.07794904708862305,0.27643947129979896,-0.7173058923992908,0.17669786771504362,0.6146798784661913
1729874257731688000,2.46368798828125,0.21893000602722168,-0.2024870663881302,-0.003838426899164915,0.9796630144119263,0.17951001226902008,0.08964665979146957,0.27236634492874146,0.03460134565830231,0.08724844455718994,0.27738873816416776,-0.7165267431812651,0.1772364457594215,0.6150058087462102
1729874257741718000,2.473718017578125,0.15910156071186066,-0.23050884902477264,-0.03708319738507271,0.9798377752304077,0.1798030287027359,0.08711397647857666,0.26024407148361206,0.001730799674987793,0.06867814809083939,0.2783120722185219,-0.7155844245908513,0.17747089820895529,0.615617933200757
1729874257751748000,2.483748046875,0.052594758570194244,-0.22127588093280792,-0.10510725528001785,0.979908287525177,0.180563822388649,0.0847143605351448,0.21238303184509277,-0.0343693345785141,0.06573725491762161,0.2790939074303157,-0.7148053532578615,0.1772300391441598,0.6162381327356165
1729874257761779000,2.493779052734375,0.012027360498905182,-0.2433318942785263,-0.12114188820123672,0.9798943996429443,0.18166996538639069,0.08247959613800049,0.1581365466117859,-0.024504438042640686,0.06864333152770996,0.27973225396375184,-0.7141767315074266,0.17661085797406728,0.616854943137085
1729874257771809000,2.50380908203125,0.08168253302574158,-0.2725487947463989,-0.08992404490709305,0.9799264073371887,0.18266652524471283,0.07985807210206985,0.14368510246276855,0.009762123227119446,-0.004098288714885712,0.2803735835675165,-0.7134145639250454,0.17597925104800485,0.6176258416681174
1729874257781839000,2.513839111328125,0.3757682144641876,-0.16574379801750183,-0.08979327976703644,0.9799647927284241,0.1836068034172058,0.07718639075756073,0.11962944269180298,0.04724344611167908,-0.1277388334274292,0.281611346444827,-0.7124569179212288,0.17606344405763885,0.6181439315126231
1729874257791869000,2.523868896484375,0.6505459547042847,0.14053596556186676,-0.12148942798376083,0.979790210723877,0.18502314388751984,0.07600988447666168,0.04407447576522827,0.08934518694877625,-0.16031479835510254,0.2838009808732161,-0.7117455961991468,0.17726575744403508,0.617618021724406
1729874257801900000,2.533900146484375,0.7520231008529663,0.3822633624076843,-0.1009732335805893,0.9793655872344971,0.1866617351770401,0.07746069878339767,0.0023389458656311035,0.1239309012889862,-0.06677962094545364,0.28642651414370845,-0.7117030956609713,0.17946880754832933,0.6158160415199369
1729874257811929900,2.543929931640625,0.72111976146698,0.32758828997612,-0.11436360329389572,0.978887677192688,0.18820689618587494,0.07972833514213562,0.06896364688873291,0.06872059404850006,0.008864030241966248,0.2890656578802855,-0.7118627620197908,0.1819768554759725,0.6136584025377879
1729874257821960000,2.5539599609375,0.5136530995368958,0.10795234888792038,-0.16771496832370758,0.9784473180770874,0.19005055725574493,0.08075421303510666,0.1443551778793335,-0.014971226453781128,0.053172096610069275,0.2914855602526165,-0.7117779002042844,0.1837098952766354,0.612093872019683
1729874257831991000,2.563990966796875,0.30389463901519775,-0.14439788460731506,-0.22405681014060974,0.9781059622764587,0.19222338497638702,0.07974248379468918,0.17849493026733398,-0.07149581611156464,0.10241687297821045,0.2935728991845201,-0.71127106981943,0.18429516497721737,0.6115093704557024
1729874257842020900,2.574020751953125,0.1033381000161171,-0.2950321137905121,-0.25776442885398865,0.977816641330719,0.19471503794193268,0.07720451056957245,0.16468507051467896,-0.09118416905403137,0.12997925281524658,0.2951863745964176,-0.7105326510373975,0.18369977759730455,0.6117701235342673
1729874257852051000,2.584051025390625,0.14915412664413452,-0.40365666151046753,-0.1836116462945938,0.9776596426963806,0.19690534472465515,0.07355301827192307,0.12434542179107666,-0.03783242404460907,0.09353066235780716,0.29655327178502544,-0.7094932593028084,0.18274524437887052,0.6126007570166185
1729874257862081000,2.5940810546875,0.3661261200904846,-0.3787872791290283,-0.10491684079170227,0.9776825308799744,0.19838102161884308,0.0691521018743515,0.07666933536529541,0.029066547751426697,-0.03063904494047165,0.298216688015075,-0.7080159560799676,0.1824539861885713,0.6135884761147803
1729874257872112000,2.604112060546875,0.5596767067909241,-0.12403374165296555,-0.0718608871102333,0.9777072072029114,0.1994485706090927,0.06564375758171082,-0.010986566543579102,0.08659271895885468,-0.0770420953631401,0.30036501988842856,-0.7065721044501608,0.1832422978926391,0.6139699289740197
1729874257882142000,2.614141845703125,0.6179011464118958,0.1544189304113388,-0.020954828709363937,0.9776037931442261,0.2002459466457367,0.06474817544221878,-0.06097787618637085,0.116114541888237,-0.059041500091552734,0.3025584362083406,-0.7058084202772099,0.18495557146929406,0.6132571203030408
1729874257892172000,2.624172119140625,0.638068675994873,0.14377309381961823,0.031215962022542953,0.9775301218032837,0.20045724511146545,0.06520514190196991,-0.010321259498596191,0.08912412822246552,-0.018375985324382782,0.30455970945118005,-0.7053707645598479,0.18722888966631857,0.6120790942108636
1729874257902202000,2.6342021484375,0.5369181036949158,-0.05490830913186073,0.0003291536122560501,0.9775569438934326,0.20055244863033295,0.0645090714097023,0.07572680711746216,0.02166132628917694,0.00726819783449173,0.3065217591951505,-0.7045881973742223,0.18923532594612566,0.6113836756182046
1729874257912233200,2.644233154296875,0.41975849866867065,-0.2561747431755066,-0.052350569516420364,0.9776182174682617,0.20102092623710632,0.062074944376945496,0.115475594997406,-0.012391731142997742,0.025571465492248535,0.30838198005880374,-0.7034138284408624,0.19038502578040153,0.6114434918850289
1729874257922263000,2.654262939453125,0.38479307293891907,-0.3881972134113312,-0.06097282096743584,0.9777170419692993,0.20172972977161407,0.058090418577194214,0.11325579881668091,-0.02404111623764038,0.008056402206420898,0.310236805757517,-0.7018484046044036,0.19092937294166032,0.612133908790936
1729874257932292900,2.66429296875,0.36358219385147095,-0.35087573528289795,-0.022007310763001442,0.9778712391853333,0.2022213339805603,0.05361500382423401,0.08316397666931152,-0.006573095917701721,-0.036677829921245575,0.3119969313115864,-0.7001298459409063,0.19137842319933532,0.6130664913614556
1729874257942324200,2.67432421875,0.3982786536216736,-0.16825053095817566,0.002128118649125099,0.9780174493789673,0.20234571397304535,0.05038147792220116,0.03466266393661499,0.011704668402671814,-0.039898745715618134,0.31353317107940226,-0.6987590496724944,0.19216276574876176,0.6136011052283831
1729874257952354000,2.68435400390625,0.4046209156513214,-0.10593181103467941,0.0533209964632988,0.9781610369682312,0.20213346183300018,0.04840267077088356,-0.011089622974395752,0.012466132640838623,0.04128837212920189,0.31492375252497856,-0.6977209006096862,0.19335687234023363,0.613695040980025
1729874257962384000,2.6943837890625,0.4310557246208191,-0.21764102578163147,0.13160382211208344,0.9784525632858276,0.2012571543455124,0.04610605537891388,0.007402360439300537,-0.004388287663459778,0.08838486671447754,0.3161784090338462,-0.6965019081714501,0.1947771005504625,0.613985365526776
1729874257972414000,2.7044140625,0.36688777804374695,-0.28837066888809204,0.12707512080669403,0.9788673520088196,0.19997887313365936,0.042745985090732574,0.051390767097473145,-0.038083091378211975,0.07369375228881836,0.31739302340746034,-0.6949122971147298,0.19613743211079063,0.6147265197709435
1729874257982445000,2.714445068359375,0.27050289511680603,-0.28058305382728577,0.10884151607751846,0.9792444109916687,0.19881154596805573,0.039428405463695526,0.060245394706726074,-0.026646584272384644,0.0785372257232666,0.31834238252803193,-0.6934386523516589,0.1971218881262058,0.6155843004669979
1729874257992475100,2.72447509765625,0.24912573397159576,-0.3718535602092743,0.1252569854259491,0.979637086391449,0.19755412638187408,0.03582315146923065,0.07353967428207397,-0.007872119545936584,0.08748304843902588,0.31913026383004217,-0.6919150955265098,0.1979016851089131,0.6166394276464022
1729874258002505000,2.7345048828125,0.21808232367038727,-0.4537060856819153,0.11183810234069824,0.9800605177879333,0.19620437920093536,0.03139108419418335,0.09534847736358643,-0.0049506425857543945,0.03376388922333717,0.31987245679861437,-0.6901515450605706,0.19846003751945174,0.6180502850230198
1729874258012535000,2.74453515625,0.24621017277240753,-0.47487786412239075,0.11345384269952774,0.9804651141166687,0.19490379095077515,0.02646506205201149,0.07809793949127197,0.008083909749984741,-0.0015780963003635406,0.32066983841114965,-0.6882373015530628,0.19890185419514916,0.6196274676920132
1729874258022566100,2.754566162109375,0.3711313009262085,-0.38342756032943726,0.15669159591197968,0.9808776378631592,0.19340984523296356,0.02171754464507103,0.052508533000946045,0.018794164061546326,-0.04837477207183838,0.321624962148926,-0.6862802795924027,0.19969514295012447,0.6210463795280318
1729874258032596200,2.76459619140625,0.4906996488571167,-0.27475348114967346,0.17696703970432281,0.9813144207000732,0.1915900856256485,0.01775791496038437,0.03487521409988403,0.004378572106361389,-0.05527937412261963,0.3228482723696789,-0.6843901758497514,0.2012188974497083,0.6220049043007223
1729874258042626000,2.7746259765625,0.475249320268631,-0.2422322928905487,0.16861750185489655,0.981719434261322,0.18978020548820496,0.014503351412713528,0.023682117462158203,-0.006537392735481262,-0.01157379150390625,0.32414291487263847,-0.6826740924319047,0.2029969433407328,0.6226392616523717
1729874258052655900,2.78465576171875,0.49679431319236755,-0.3241751790046692,0.19712451100349426,0.9821358919143677,0.18785634636878967,0.010911814868450165,0.03753262758255005,-0.0011039972305297852,0.04223442077636719,0.32543660000335317,-0.6808339348758978,0.204746332365943,0.6234060692716002
1729874258062687200,2.794687255859375,0.4805282652378082,-0.38760316371917725,0.1856500208377838,0.9825690984725952,0.18578216433525085,0.006546256598085165,0.07053142786026001,-0.025854751467704773,0.03128015995025635,0.32679122960126683,-0.6787176392732356,0.20643520666451956,0.624447213911827
1729874258072717000,2.804717041015625,0.46476414799690247,-0.4039948880672455,0.12290593236684799,0.9828944802284241,0.184160515666008,0.0017857380444183946,0.06100499629974365,-0.041979119181632996,0.038909316062927246,0.3282781205619424,-0.6765355135357383,0.20782821739244894,0.6255721727186726
1729874258082747000,2.814746826171875,0.43763798475265503,-0.3697783350944519,0.09891751408576965,0.9831106066703796,0.1829899549484253,-0.0028008122462779284,0.037656426429748535,-0.04294478893280029,0.049202680587768555,0.3298377530964034,-0.6744693789084852,0.20902308667937858,0.6265838192503189
1729874258092778000,2.824778076171875,0.373837411403656,-0.4026852250099182,0.07538475841283798,0.9832653403282166,0.1820336878299713,-0.007259448058903217,0.05881822109222412,-0.045436978340148926,0.039455413818359375,0.3312909437124529,-0.6725169411927494,0.20997914131910886,0.6275953124362282
1729874258102808000,2.83480810546875,0.3861769139766693,-0.5342803001403809,0.047762181609869,0.9833449721336365,0.1813163161277771,-0.012516236864030361,0.062324345111846924,-0.053859636187553406,0.057315945625305176,0.33283620309446516,-0.6703551281382124,0.2106321055883246,0.6288703937827093
1729874258112838100,2.844838134765625,0.40884846448898315,-0.5585662722587585,-0.006381213199347258,0.983305811882019,0.1809941530227661,-0.01872115582227707,0.03199857473373413,-0.07142078876495361,0.034208714962005615,0.3346839371530861,-0.6679035861993993,0.2110550202076567,0.6303547232739967
1729874258122868000,2.854867919921875,0.38039499521255493,-0.4277629256248474,-0.022041665390133858,0.9831752777099609,0.18103742599487305,-0.024323629215359688,-0.009496808052062988,-0.05306193232536316,-0.006010947749018669,0.33656583043567373,-0.6656867293129791,0.2114222398757711,0.6315735396329589
1729874258132899000,2.864899169921875,0.44230785965919495,-0.30979612469673157,0.0358157753944397,0.9830999970436096,0.18082471191883087,-0.028581542894244194,-0.019553184509277344,-0.009727880358695984,-0.03617686405777931,0.3382569717800831,-0.6638593810318018,0.21213191867164857,0.6323551324192319
1729874258142929200,2.87492919921875,0.48449525237083435,-0.32707709074020386,0.07392188161611557,0.983122706413269,0.18004155158996582,-0.032477155327796936,-0.011870324611663818,0.006039366126060486,-0.028237640857696533,0.3399596944940654,-0.6620056182167521,0.21333069268573826,0.6329818200052254
1729874258152959200,2.884959228515625,0.4333992302417755,-0.42035993933677673,0.08549917489290237,0.9831498861312866,0.17902523279190063,-0.0369650237262249,-0.009364426136016846,0.01122140884399414,0.03965049609541893,0.34159107460332633,-0.6599527590134728,0.21442911150144575,0.6338754826534979
1729874258162989000,2.894989013671875,0.3927988111972809,-0.4746338427066803,0.08082186430692673,0.9831339716911316,0.17796875536441803,-0.04212697967886925,-0.005198240280151367,-0.01506592333316803,0.07899212837219238,0.34316195828939233,-0.657715285010876,0.2152837974368108,0.635061661724472
1729874258173020200,2.905020263671875,0.366344690322876,-0.491914838552475,0.10070422291755676,0.983094334602356,0.17683100700378418,-0.047499917447566986,-0.005097568035125732,-0.0442320853471756,0.08497542142868042,0.34458976339474107,-0.6554441059695092,0.21597005825918847,0.6364022379682254
1729874258183050200,2.91505029296875,0.36690181493759155,-0.5449197292327881,0.07450538128614426,0.9830037355422974,0.17570097744464874,-0.053225062787532806,0.007551133632659912,-0.05997830629348755,0.027895383536815643,0.34606150876163894,-0.6530544237104333,0.21658113745620608,0.6378510754254675
1729874258193080000,2.925080078125,0.3638070225715637,-0.601511538028717,0.08615165203809738,0.9828290343284607,0.17469191551208496,-0.059412479400634766,-0.0022230148315429688,-0.021646246314048767,-0.0024314522743225098,0.3475825430644156,-0.6505370275014435,0.21701459775237075,0.6394471153846938
1729874258203110000,2.93510986328125,0.39484190940856934,-0.619677722454071,0.13061286509037018,0.9826428294181824,0.1733059138059616,-0.06616552174091339,-0.0229109525680542,0.023349344730377197,0.01637602597475052,0.34912478051316,-0.6477604687148371,0.21753991472564865,0.6412445131009893
1729874258213141000,2.94514111328125,0.41461461782455444,-0.566320538520813,0.15190403163433075,0.9824934005737305,0.17155016958713531,-0.07264363020658493,-0.05823814868927002,0.025593385100364685,0.05271560698747635,0.3505902798523904,-0.6450008058785586,0.2182937135226431,0.6429682681425003
1729874258223171000,2.955171142578125,0.39413759112358093,-0.5121878385543823,0.15094609558582306,0.9823572635650635,0.1696733683347702,-0.07864372432231903,-0.0808071494102478,-0.0025743842124938965,0.08021528273820877,0.35198582940779644,-0.6423698747201675,0.2191781996621748,0.6445367759110064
1729874258233201200,2.965201171875,0.2799490690231323,-0.5361126065254211,0.13746623694896698,0.9822085499763489,0.16785584390163422,-0.08420541137456894,-0.05450481176376343,-0.033471688628196716,0.04000062495470047,0.353118131156718,-0.6399630587632402,0.21987400752478617,0.646072882099715
1729874258243232000,2.97523193359375,0.2846386432647705,-0.643561065196991,0.12341459840536118,0.9819384813308716,0.1662186086177826,-0.09037826955318451,-0.024312198162078857,-0.03339080512523651,0.05532872676849365,0.35417934849270105,-0.6374372166331833,0.22019232197543595,0.6478781632613342
1729874258253262000,2.985261962890625,0.33763042092323303,-0.6778779029846191,0.10188453644514084,0.9815126657485962,0.16474416851997375,-0.09742797911167145,-0.016623198986053467,-0.028254300355911255,-0.01676887273788452,0.3554968462409691,-0.6345978417883107,0.2203896334827688,0.6498737932264531
1729874258263292200,2.995292236328125,0.4454359710216522,-0.6475961804389954,0.11150254309177399,0.9810315370559692,0.16324597597122192,-0.10453695803880692,-0.056364238262176514,0.004280269145965576,-0.03624069690704346,0.3571138408176463,-0.6316263617564272,0.22086117539058892,0.6517194646210466
1729874258273322000,3.005322021484375,0.4656461775302887,-0.5476979613304138,0.1677841991186142,0.9806193709373474,0.16131402552127838,-0.11119182407855988,-0.09478557109832764,0.031435057520866394,-0.028822913765907288,0.3587599879533616,-0.6286730580799482,0.22175273482060756,0.6533661222688948
1729874258283353000,3.01535302734375,0.42676588892936707,-0.4216904640197754,0.21958135068416595,0.9804072380065918,0.15879932045936584,-0.11655143648386002,-0.09448206424713135,0.04821668565273285,-0.023783735930919647,0.3600188601748476,-0.626093787868364,0.22300414675995148,0.6547228543060281
1729874258293383200,3.025383056640625,0.3656599521636963,-0.456948846578598,0.25402161478996277,0.9802845120429993,0.1559443324804306,-0.12134058028459549,-0.08373916149139404,0.014542162418365479,0.07730364799499512,0.36094267405758307,-0.6237128078712004,0.22430346322609565,0.6560416031661935
1729874258303413200,3.035413330078125,0.2845821976661682,-0.6647202372550964,0.21914511919021606,0.979981541633606,0.15307964384555817,-0.127289816737175,-0.04170340299606323,-0.05511815845966339,0.13704007863998413,0.36178564008892555,-0.6210071494955629,0.225178182713891,0.6578419316247115
1729874258313443000,3.045443115234375,0.1689632385969162,-0.7712563276290894,0.1789228767156601,0.9793261885643005,0.15087051689624786,-0.13475197553634644,-0.029787123203277588,-0.08690564334392548,0.12115634977817535,0.3626405125238087,-0.6179903699224949,0.22519306084631127,0.6602027874702486
1729874258323474000,3.055473876953125,0.1656111180782318,-0.7005166411399841,0.2072216272354126,0.9785772562026978,0.1487254649400711,-0.14236222207546234,-0.04524308443069458,-0.0376414954662323,0.05416633188724518,0.36334965974806377,-0.6149825844014986,0.2249784712816181,0.6626899719294679
1729874258333504000,3.06550390625,0.21835508942604065,-0.46837204694747925,0.23681387305259705,0.9780654907226562,0.1462407112121582,-0.14832964539527893,-0.06529992818832397,0.031569987535476685,-0.037690356373786926,0.3638336437194911,-0.612455457884904,0.225240958639325,0.664672835367618
1729874258343534000,3.0755341796875,0.2660169005393982,-0.43010270595550537,0.2765863239765167,0.9777880311012268,0.14333108067512512,-0.15292693674564362,-0.08304327726364136,0.07981348037719727,-0.0035977810621261597,0.3642096116757782,-0.6102723136091412,0.22606245346306433,0.6661942420075493
1729874258353564000,3.08556396484375,0.2319156527519226,-0.5771713256835938,0.2773652970790863,0.9774052500724792,0.14019086956977844,-0.15819433331489563,-0.05350089073181152,0.042716264724731445,0.05516690015792847,0.364619333320709,-0.6078158015090157,0.22685410645890874,0.6679445068981237
1729874258363595000,3.095594970703125,0.20865319669246674,-0.6635456681251526,0.2599269151687622,0.9767758846282959,0.13715095818042755,-0.1646166443824768,-0.029128730297088623,-0.04372137784957886,0.07126323878765106,0.36507782036249664,-0.6050083362782335,0.22728085921374871,0.6700944558382701
1729874258373625000,3.105625,0.08429469913244247,-0.6164562702178955,0.2077968716621399,0.9759995341300964,0.13460828363895416,-0.17118775844573975,-0.03535640239715576,-0.10148148238658905,0.035842254757881165,0.3655072910273806,-0.6022713789669448,0.22732203289451758,0.6723080649016003
1729874258383655200,3.1156552734375,0.06625577807426453,-0.5362450480461121,0.2805759906768799,0.9753255844116211,0.13218997418880463,-0.17682111263275146,-0.06863319873809814,-0.02041931450366974,0.04263521730899811,0.3655218656438155,-0.5999806951039512,0.22718408885684946,0.6743917562045563
1729874258393685000,3.12568505859375,0.22839675843715668,-0.6134771108627319,0.35633841156959534,0.9747285842895508,0.12872211635112762,-0.18257811665534973,-0.07215601205825806,0.06352336704730988,0.06999868154525757,0.36550586510158095,-0.5974091928997739,0.22762513269738788,0.6765312062534651
1729874258403717600,3.135717529296875,0.2572403848171234,-0.4880123734474182,0.3216051757335663,0.9741005301475525,0.12490566819906235,-0.18848538398742676,-0.08483362197875977,0.06769078224897385,0.007439732551574707,0.36576440069163235,-0.5946078789896311,0.22847052235744722,0.6785713871607086
1729874258413747200,3.145747314453125,0.2700193524360657,-0.3395199775695801,0.37168219685554504,0.9737789034843445,0.12105199694633484,-0.19261586666107178,-0.10811740159988403,0.05071619898080826,0.011356666684150696,0.36579904955052706,-0.5924131213733616,0.22964920512418616,0.6800727153552492
1729874258423777300,3.15577734375,0.09663079679012299,-0.569887101650238,0.3941486179828644,0.9734030961990356,0.11674148589372635,-0.19712425768375397,-0.04086214303970337,-0.059765130281448364,0.04359021782875061,0.36562647963066386,-0.5900557712489312,0.23080741019311013,0.6818207022223547
1729874258433808400,3.165808349609375,-0.210459366440773,-0.6585415601730347,0.2074759602546692,0.9725047945976257,0.11396480351686478,-0.20309241116046906,0.008833646774291992,-0.1253020465373993,0.11051726341247559,0.36506300834540595,-0.5877316909357908,0.2302721269291172,0.6843064286157049
1729874258443838500,3.17583837890625,-0.2496722936630249,-0.7266255617141724,0.2055286467075348,0.9712823033332825,0.11254586279392242,-0.20962810516357422,-0.05821174383163452,-0.08088385313749313,0.18069733679294586,0.36450667463572267,-0.5855357734322865,0.22876583207608595,0.6869853156773705
1729874258453868300,3.185868408203125,-0.18180349469184875,-0.6462613344192505,0.2527371644973755,0.9700506925582886,0.11075901985168457,-0.21618030965328217,-0.0574837327003479,-0.03972932696342468,0.052377134561538696,0.3638416575918663,-0.5832680775936437,0.22739436145944789,0.6897168065871633
1729874258463898400,3.1958984375,-0.007003721781075001,-0.4355781078338623,0.28987815976142883,0.9691550135612488,0.10833049565553665,-0.22136597335338593,-0.09569627046585083,0.03659748286008835,-0.023507103323936462,0.3632407313852951,-0.5812491580963773,0.22686213724159227,0.6919097331406568
1729874258473929500,3.205929443359375,0.1539723128080368,-0.3720817267894745,0.32826629281044006,0.9686230421066284,0.10513971745967865,-0.22519975900650024,-0.11500072479248047,0.08707529306411743,-0.05342577397823334,0.3628189067890068,-0.5794163792195923,0.22732527317792584,0.6935144373885068
1729874258483959600,3.21595947265625,0.3216925859451294,-0.4083300232887268,0.3136926591396332,0.9680792093276978,0.10141462832689285,-0.2292114496231079,-0.09417778253555298,0.07593832165002823,-0.04433295130729675,0.3628328689165501,-0.5772521206932837,0.22841685868263245,0.6949518956989549
1729874258493989400,3.2259892578125,0.3230341970920563,-0.4266718626022339,0.27887290716171265,0.9673917293548584,0.09774322062730789,-0.2336653470993042,-0.10322552919387817,0.009236201643943787,-0.01689934730529785,0.36324985091435624,-0.5748185977992791,0.22967566138717643,0.6963348177719462
1729874258504019500,3.23601953125,0.1317390501499176,-0.3205036222934723,0.28435370326042175,0.9667476415634155,0.0944984182715416,-0.23763179779052734,-0.11973237991333008,-0.03767465054988861,0.015601113438606262,0.36341046271928606,-0.5727198280820682,0.2305994343336966,0.6976737352718831
1729874258514050600,3.246050537109375,-0.01716727577149868,-0.18612295389175415,0.3330080509185791,0.966458261013031,0.09138515591621399,-0.24001482129096985,-0.11045551300048828,-0.03642299771308899,0.06936043500900269,0.3627505885242481,-0.5714277053510081,0.23122060509979753,0.6988700607107836
1729874258524080600,3.25608056640625,-0.1314278095960617,-0.2832156717777252,0.3404984474182129,0.966230571269989,0.08822473138570786,-0.2421048879623413,-0.052686989307403564,-0.009947128593921661,0.10971952974796295,0.36158451182822576,-0.5703829203879346,0.23154023844164065,0.7002206842084121
1729874258534110200,3.266110107421875,-0.16701935231685638,-0.4656730592250824,0.2555079162120819,0.9655805826187134,0.08565729856491089,-0.24559512734413147,-0.006291091442108154,0.028936251997947693,0.0969744324684143,0.3604947994163145,-0.5689987451374544,0.23117712060951134,0.7020263875513405
1729874258544140300,3.276140380859375,-0.15802106261253357,-0.5521818399429321,0.19382432103157043,0.9644789099693298,0.08399937301874161,-0.2504485249519348,-0.04666280746459961,0.014770813286304474,0.09015488624572754,0.3598772893691199,-0.5672275144487113,0.23027957569718432,0.7040685848945829
1729874258554171400,3.28617138671875,-0.1452457457780838,-0.39044296741485596,0.2773652970790863,0.9634250998497009,0.08210984617471695,-0.2550882399082184,-0.1121678352355957,0.0035835430026054382,0.06136256456375122,0.3591758750419986,-0.5654891572019013,0.22951666034638543,0.706071354761462
1729874258564201500,3.296201416015625,-0.09889769554138184,-0.18902036547660828,0.29780957102775574,0.9629656076431274,0.07960473001003265,-0.25760480761528015,-0.12272524833679199,0.01234477013349533,-0.01833522319793701,0.3580897940392613,-0.5644189553841031,0.22940977414324537,0.7075125894225015
1729874258574231300,3.306231201171875,-0.03972591459751129,-0.2889614403247833,0.3018493354320526,0.9626240730285645,0.07687550783157349,-0.25970181822776794,-0.13228660821914673,0.037946917116642,0.02750873565673828,0.35708025801103727,-0.5634053926145156,0.22961589407971414,0.7087627280303
1729874258584262400,3.316262451171875,-0.08972330391407013,-0.3359081745147705,0.25728797912597656,0.961991548538208,0.07422913610935211,-0.2627968490123749,-0.08674752712249756,0.034932270646095276,0.018595099449157715,0.35629927345497375,-0.5620051890573519,0.22967746207655879,0.7102458805660448
1729874258594292500,3.32629248046875,-0.18511228263378143,-0.28026527166366577,0.206092968583107,0.961347222328186,0.0724068135023117,-0.26564788818359375,-0.07551348209381104,-0.011081710457801819,0.02219375967979431,0.3554399562372696,-0.5609036197478144,0.22926662801831374,0.7116785983887391
1729874258604322600,3.336322509765625,-0.25762614607810974,-0.2869207561016083,0.17769302427768707,0.9607402682304382,0.0711444616317749,-0.26817306876182556,-0.07045090198516846,-0.06134829670190811,0.02047702670097351,0.35446520818042343,-0.560076915999232,0.2285329653814495,0.7130505202184617
1729874258614352400,3.346352294921875,-0.2933303415775299,-0.21601581573486328,0.19739162921905518,0.96016925573349,0.07015631347894669,-0.2704683542251587,-0.051462650299072266,-0.0353052020072937,-0.024957120418548584,0.3532937532934581,-0.5594507855560616,0.22755360469002825,0.7144352233311849
1729874258624383500,3.356383544921875,-0.16615909337997437,-0.25622954964637756,0.2044127881526947,0.9597018361091614,0.06878333538770676,-0.2724723219871521,-0.05297893285751343,0.015765659511089325,-0.039707332849502563,0.3521657296673273,-0.5588132279347461,0.22691765421260268,0.7156922269170813
1729874258634413600,3.36641357421875,-0.13117161393165588,-0.1879514753818512,0.1879667043685913,0.9591768383979797,0.067351333796978,-0.27466967701911926,-0.06583589315414429,0.030488014221191406,-0.09857562184333801,0.35132798849659386,-0.5580019324244174,0.22649282166130408,0.716870525323252
1729874258644443400,3.376443359375,0.004321770742535591,-0.03821604326367378,0.24942952394485474,0.9590301513671875,0.06543565541505814,-0.27564331889152527,-0.10963451862335205,0.06376054137945175,-0.0727454125881195,0.3504790896908688,-0.5574898151395528,0.2266791764648374,0.7176252320879899
1729874258654473200,3.38647314453125,-0.0427391491830349,-0.04899130016565323,0.27537378668785095,0.9591047763824463,0.06288973987102509,-0.2759762406349182,-0.11849820613861084,0.01129855215549469,0.028768539428710938,0.3495275310361865,-0.5570759619745574,0.22732852740414092,0.7182051415087072
1729874258664504600,3.396504638671875,-0.10373885929584503,-0.03620466589927673,0.2614137530326843,0.9591438174247742,0.06053072586655617,-0.2763679027557373,-0.07959669828414917,-0.05761626362800598,0.07901063561439514,0.348387413635791,-0.5567453725654603,0.2277073655197614,0.7188951363762655
1729874258674534400,3.406534423828125,-0.08281266689300537,-0.0875939279794693,0.25396302342414856,0.959141194820404,0.05832533910870552,-0.27685099840164185,-0.03680837154388428,-0.04541635140776634,0.08974763751029968,0.3472513584469846,-0.5564184022918081,0.22797601210366916,0.7196124506717863
1729874258684564500,3.416564453125,-0.01812261901795864,-0.22648149728775024,0.23282285034656525,0.9588446021080017,0.05608665943145752,-0.2783362567424774,-0.006879448890686035,0.029270999133586884,0.02337709069252014,0.34641910741862797,-0.5556478869407404,0.22822642265230558,0.720528820290395
1729874258694595300,3.42659521484375,-0.0056616212241351604,-0.14610235393047333,0.21845537424087524,0.9584173560142517,0.05398312956094742,-0.2802176773548126,-0.038037776947021484,0.07864630222320557,-0.06852203607559204,0.3458155996831152,-0.554701412977661,0.2284677361411158,0.7214709598965844
1729874258704625400,3.43662548828125,-0.008988974615931511,-0.017839986830949783,0.2994495630264282,0.9583434462547302,0.05149911344051361,-0.2809368669986725,-0.08798223733901978,0.06391836702823639,-0.09389534592628479,0.34495352131095663,-0.5541380839033389,0.22904704431682202,0.7221325510821266
1729874258714655500,3.446655517578125,-0.05457296967506409,0.028687356039881706,0.32567158341407776,0.9584959149360657,0.04851997643709183,-0.2809469699859619,-0.08052057027816772,0.01326289027929306,-0.09298494458198547,0.3437130886319002,-0.5538154376872648,0.22981509243183484,0.722727238088057
1729874258724685300,3.456685302734375,-0.06709195673465729,0.190908744931221,0.3332280218601227,0.9590082764625549,0.045582741498947144,-0.2796875238418579,-0.06939053535461426,0.0016432330012321472,-0.04082337021827698,0.34219737217532264,-0.5540194492577281,0.23069175718202958,0.7230107860220025
1729874258734716400,3.46671630859375,-0.028392033651471138,-0.09955429285764694,0.36476171016693115,0.9593469500541687,0.04231823980808258,-0.27903851866722107,-0.03715163469314575,0.020609039813280106,0.1563272774219513,0.3407237949517476,-0.5539233776678532,0.23162388880108511,0.7234821803842176
1729874258744746500,3.47674658203125,-0.03471411392092705,-0.26267528533935547,0.28454944491386414,0.9588999152183533,0.03922930732369423,-0.28101933002471924,0.03948253393173218,-0.005324255675077438,0.10641297698020935,0.33965993468512246,-0.5528463212524213,0.2320587929979065,0.7246658887531947
1729874258754776600,3.486776611328125,-0.03920493274927139,-0.18343336880207062,0.17998413741588593,0.9583430886268616,0.037145763635635376,-0.28319382667541504,-0.005294442176818848,-0.017248287796974182,-0.0005128979682922363,0.33902317483777006,-0.5518074123604138,0.23218886585780885,0.7257136037326638
1729874258764806400,3.496806396484375,-0.0926511213183403,-0.09027359634637833,0.22617347538471222,0.9580366611480713,0.03546107932925224,-0.28444361686706543,-0.09080350399017334,-0.00071677565574646,-0.045024216175079346,0.3382670649180971,-0.5512158245671709,0.23224835747880068,0.726496503420323
1729874258774837500,3.50683740234375,-0.15455396473407745,-0.02202168107032776,0.2672005295753479,0.9579471349716187,0.033346179872751236,-0.28500014543533325,-0.10078483819961548,-0.006444927304983139,-0.07439014315605164,0.33710176464388686,-0.5508858253932952,0.23243221516525214,0.7272291988844763
1729874258784867600,3.51686767578125,-0.20689280331134796,0.0870795026421547,0.30010494589805603,0.9581497311592102,0.031233957037329674,-0.28455850481987,-0.10361182689666748,0.007248733192682266,-0.05076873302459717,0.3355098094860374,-0.5510325586910816,0.2325593871801752,0.7278134510125557
1729874258794897400,3.5268974609375,-0.18242581188678741,0.07437963783740997,0.3735799789428711,0.9585235118865967,0.028517384082078934,-0.28358325362205505,-0.050228893756866455,0.08490122854709625,0.005262851715087891,0.3336039761455966,-0.5513146410983739,0.2329389112281321,0.728354328935431
1729874258804927200,3.53692724609375,-0.10480425506830215,-0.16022300720214844,0.32269442081451416,0.9585261344909668,0.025480967015028,-0.2838630974292755,0.04988133907318115,0.11677674204111099,0.04156872630119324,0.3319483865892092,-0.5510102224446575,0.23335849311664608,0.7292062454101571
1729874258814958300,3.546958251953125,-0.09453091025352478,-0.30788400769233704,0.24054096639156342,0.9578781127929688,0.023091664537787437,-0.286245197057724,0.07514184713363647,0.0887400209903717,0.07173705101013184,0.33095761701098475,-0.5499306834449272,0.23335305028514233,0.7304722025307063
1729874258824988400,3.556988525390625,-0.1027962937951088,-0.2955402731895447,0.2559390962123871,0.9570488929748535,0.02106022648513317,-0.28916069865226746,0.05965942144393921,0.05601195618510246,0.08862960338592529,0.3301416071277787,-0.5486962221735207,0.23313539539372286,0.7318379890551623
1729874258835018500,3.5670185546875,-0.07567872107028961,-0.3411678671836853,0.2556171119213104,0.9562033414840698,0.018761908635497093,-0.2921013832092285,0.026981472969055176,-0.00570036843419075,0.09074631333351135,0.32930093581010006,-0.5473918158217977,0.23304828958224966,0.7332200690084141
1729874258845048300,3.57704833984375,-0.25784504413604736,-0.33365216851234436,0.17236696183681488,0.955186128616333,0.017215671017766,-0.2955045998096466,-0.04622018337249756,-0.08519354462623596,0.04378029704093933,0.3285008741781002,-0.546093500998018,0.23244264117935556,0.7347376363538345
1729874258855079400,3.587079345703125,-0.2986592650413513,-0.14180336892604828,0.21193408966064453,0.9545056819915771,0.016300195828080177,-0.29774659872055054,-0.1234205961227417,-0.10091015696525574,-0.0025769174098968506,0.3273151486701647,-0.5454676809608807,0.23149882682134024,0.7360285137798568
1729874258865109500,3.597109619140625,-0.29251694679260254,0.08267048001289368,0.31492704153060913,0.954464316368103,0.014665237627923489,-0.2979642450809479,-0.11636018753051758,-0.03355559706687927,-0.0901583731174469,0.3255421318472105,-0.5455526464030536,0.23106317628902337,0.7368883076995776
1729874258875139600,3.6071396484375,-0.09710858017206192,0.1912381798028946,0.312762975692749,0.9549684524536133,0.012166967615485191,-0.2964577078819275,-0.06600677967071533,0.08985333889722824,-0.14026421308517456,0.32361251435268085,-0.5460772251766703,0.23145370149769767,0.7372270956128557
1729874258885170400,3.61717041015625,0.04067938029766083,0.09096777439117432,0.2504662871360779,0.9554453492164612,0.009557856246829033,-0.29501330852508545,-0.020844578742980957,0.1240023672580719,-0.0966646671295166,0.32234748815706477,-0.5463439461254477,0.23238253066674083,0.7372915255102931
1729874258895200500,3.627200439453125,0.09852170199155807,-0.13960012793540955,0.2098293900489807,0.9554072618484497,0.007106275297701359,-0.2952055335044861,0.04520297050476074,0.0726972371339798,-0.024511903524398804,0.32171543262940877,-0.5458792670005859,0.23326605830288374,0.737632590685088
1729874258905230600,3.637230712890625,0.03346680849790573,-0.26136040687561035,0.14191904664039612,0.9547756314277649,0.005225394386798143,-0.2972811758518219,0.05851465463638306,-0.03128739073872566,0.002618640661239624,0.32151360213882,-0.5447616585298266,0.2336539194628366,0.7384236754246742
1729874258915260400,3.647260498046875,0.01144985482096672,-0.01415901817381382,0.15217754244804382,0.9542945027351379,0.003847604850307107,-0.29884278774261475,-0.022837162017822266,-0.06123586744070053,-0.03537049889564514,0.32121285593073406,-0.5439756218866059,0.23381431299385091,0.7390829004164783
1729874258925291500,3.65729150390625,0.10629487782716751,0.142781600356102,0.28322556614875793,0.9545696377754211,0.0016534411115571856,-0.2979830205440521,-0.1002759337425232,-0.004064285196363926,-0.002569437026977539,0.3204886287462389,-0.5439660368341254,0.23475399412518339,0.7391065242995685
1729874258935321300,3.6673212890625,0.14012780785560608,0.01998627558350563,0.37960484623908997,0.9548332095146179,-0.001990691991522908,-0.2971351146697998,-0.059508681297302246,0.05144446715712547,0.023606032133102417,0.3194613927677898,-0.5436892545562989,0.23629310395314734,0.7392643696423679
1729874258945351400,3.677351318359375,0.20277175307273865,-0.1844230592250824,0.29962530732154846,0.9545727968215942,-0.005817962810397148,-0.29792076349258423,0.02781844139099121,0.017658818513154984,-0.04112955927848816,0.31873714893949096,-0.5426981741949977,0.23773580835990304,0.7398424802849691
1729874258955381500,3.687381591796875,0.22974324226379395,-0.4018859267234802,0.19007539749145508,0.953663170337677,-0.008787351660430431,-0.300747811794281,0.019145607948303223,-0.08877731114625931,-0.04330742359161377,0.3187959589498129,-0.5409546395975591,0.23873453560186692,0.740771871310097
1729874258965412400,3.697412353515625,0.2024463713169098,-0.37427374720573425,0.20039807260036469,0.9524007439613342,-0.011222418397665024,-0.30464187264442444,-0.03488987684249878,-0.1426471769809723,-0.09147635102272034,0.3191833472437924,-0.5388618292298595,0.23938880100868032,0.741918297590498
1729874258975442400,3.7074423828125,0.22985349595546722,-0.08796191960573196,0.28507113456726074,0.9516390562057495,-0.014191984198987484,-0.30689018964767456,-0.09211158752441406,-0.07491931319236755,-0.17569956183433533,0.3191373946395399,-0.5373433585000507,0.24045169956582413,0.7426953191215875
1729874258985472500,3.717472412109375,0.3859480023384094,0.06032554805278778,0.3056110441684723,0.9516094326972961,-0.01803821697831154,-0.30678030848503113,-0.11159789562225342,0.03106924146413803,-0.20246660709381104,0.3188130803303704,-0.5365113244891851,0.24241586428824213,0.7427976608396667
1729874258995502600,3.727502685546875,0.4740639925003052,0.008063729852437973,0.28353795409202576,0.9516516923904419,-0.022140316665172577,-0.30638012290000916,-0.08876723051071167,0.08839400857686996,-0.1591198444366455,0.31886548244463253,-0.535583237948524,0.2448683928889006,0.7426404179051436
1729874259005533400,3.737533447265625,0.4908900856971741,-0.04955296218395233,0.29807722568511963,0.9515380263328552,-0.02645529806613922,-0.306390643119812,-0.03160107135772705,0.0644497200846672,-0.048437267541885376,0.31909466185993307,-0.5343873871637354,0.24745664999386044,0.7425454578483707
1729874259015563500,3.7475634765625,0.3549211919307709,-0.16082750260829926,0.23060710728168488,0.9511415362358093,-0.03034856729209423,-0.307260125875473,0.0262753963470459,-0.048096850514411926,0.03980398178100586,0.3193648799508853,-0.5329785258044477,0.24960735326931408,0.7427221364669374
1729874259025593600,3.757593505859375,0.21427327394485474,-0.24480734765529633,0.15196289122104645,0.9504382610321045,-0.033043067902326584,-0.30915215611457825,0.02105814218521118,-0.14730051159858704,0.07056567072868347,0.31967618476186505,-0.5315091510924672,0.2508424825631107,0.743224788910404
1729874259035624400,3.76762451171875,0.1443096399307251,-0.24500761926174164,0.11605841666460037,0.9496247172355652,-0.03485912084579468,-0.3114444613456726,-0.012948751449584961,-0.16928817331790924,0.05112946033477783,0.31995790735345436,-0.5301391944874339,0.25145615281658223,0.7438743723338196
1729874259045654500,3.777654541015625,0.10800915211439133,-0.1363285481929779,0.10051700472831726,0.9489641785621643,-0.036264847964048386,-0.313291996717453,-0.05988037586212158,-0.12630227208137512,-0.00785982608795166,0.3201225665411952,-0.5290695386482599,0.25187184635015114,0.744424302349175
1729874259055684400,3.787684326171875,0.11715737730264664,-0.030749395489692688,0.1111677885055542,0.9486812949180603,-0.03760967031121254,-0.3139894902706146,-0.09859895706176758,-0.06666886061429977,-0.02147507667541504,0.320133111843366,-0.5284662997076958,0.2524452933022596,0.744653998186394
1729874259065714400,3.79771435546875,0.0682327076792717,0.0534437820315361,0.1325412541627884,0.9486896395683289,-0.03908487781882286,-0.313784122467041,-0.08224976062774658,-0.021492473781108856,0.0036491453647613525,0.31990693640321044,-0.528221288959018,0.25316043965438234,0.7446822789456873
1729874259075745300,3.807745361328125,-0.10847734659910202,-0.04424762725830078,0.09708472341299057,0.9486799240112305,-0.04020640254020691,-0.31367164850234985,-0.016062796115875244,-0.023453228175640106,0.0676845908164978,0.319392591397649,-0.5281358108948702,0.25344968901808096,0.7448652529315151
1729874259085775400,3.817775390625,-0.2958475351333618,-0.2498878687620163,0.014517410658299923,0.9482119083404541,-0.04007510095834732,-0.3151005506515503,0.039596378803253174,-0.1103307455778122,0.14661291241645813,0.3188289938862463,-0.5278655515062146,0.25260183946334047,0.7455859961408021
1729874259095805400,3.827805419921875,-0.30738407373428345,-0.4546780288219452,-0.040740519762039185,0.9470584392547607,-0.03900352865457535,-0.3186834752559662,0.04889804124832153,-0.18949680030345917,0.11793872714042664,0.3185059182387713,-0.5270089144662249,0.2508383204720421,0.7469242424951457
1729874259105835500,3.83783544921875,-0.376828670501709,-0.21349389851093292,-0.1275307983160019,0.94593346118927,-0.03699799254536629,-0.32224395871162415,-0.013102591037750244,-0.17396998405456543,-0.0863407552242279,0.31840118611825047,-0.526324104918942,0.2487186170347697,0.7481595775953076
1729874259115866400,3.847866455078125,-0.15726326406002045,0.11368235945701599,-0.013594651594758034,0.9458232522010803,-0.03529660031199455,-0.3227578103542328,-0.1447063684463501,0.016223140060901642,-0.14985275268554688,0.31800956161826927,-0.5267191429824462,0.24736215843395204,0.7484977680503893
1729874259125896400,3.857896484375,0.1394924372434616,0.2883008122444153,0.12189606577157974,0.9464848041534424,-0.035886045545339584,-0.3207472860813141,-0.1583225131034851,0.14361312985420227,-0.11367055773735046,0.3175092138076194,-0.5274384109079024,0.24786100645670733,0.7480385080061305
1729874259135926500,3.867926513671875,0.2634022831916809,0.3128184676170349,0.0939970538020134,0.9474111795425415,-0.037686899304389954,-0.3177919089794159,-0.12229222059249878,0.12672194838523865,-0.021197378635406494,0.3172660934494481,-0.5280839100125888,0.24946226897545465,0.7471533428000867
1729874259145956600,3.87795654296875,0.14386068284511566,0.2584604024887085,0.004771572537720203,0.9483456015586853,-0.03884131833910942,-0.3148520588874817,-0.06478554010391235,-0.014243986457586288,0.09164637327194214,0.31727422266444927,-0.5288044088454492,0.2508781972554875,0.7461655434488663
1729874259155987500,3.887987548828125,-0.08609841018915176,-0.036294784396886826,-0.07521647214889526,0.9487451910972595,-0.03862544149160385,-0.31367290019989014,0.025604724884033203,-0.16791749000549316,0.18655180931091309,0.31733318438998953,-0.5292528660039103,0.25110746270330586,0.7457453288664326
1729874259166017500,3.898017578125,-0.3406587839126587,-0.21790878474712372,-0.1547728031873703,0.9483108520507812,-0.03681366518139839,-0.3152003884315491,0.06627649068832397,-0.22226528823375702,0.1698756217956543,0.31738168933857847,-0.5291819307277756,0.24973243870530984,0.7462366100238527
1729874259176047400,3.90804736328125,-0.3428357243537903,-0.1117648258805275,-0.1615321785211563,0.9478206038475037,-0.03408914431929588,-0.3169763684272766,-0.015981674194335938,-0.12429706752300262,0.08133482933044434,0.3172642406948436,-0.5293141051077943,0.24766589540473563,0.7468812328499164
1729874259186078200,3.918078125,-0.2001507431268692,0.16903486847877502,-0.06419418007135391,0.9479086995124817,-0.03210095316171646,-0.31692054867744446,-0.12188947200775146,0.029217079281806946,-0.012593090534210205,0.3169546095298576,-0.5299541926376808,0.24634989921470687,0.7469940197359218
1729874259196108300,3.9281083984375,0.08789036422967911,0.32372552156448364,0.008514379151165485,0.9487783908843994,-0.03175288438796997,-0.31434255838394165,-0.1412222981452942,0.13095030188560486,-0.060230255126953125,0.31653047907183895,-0.5310889246996938,0.2465223591067804,0.7463106961243764
1729874259206138400,3.938138427734375,0.2054297775030136,0.21269915997982025,-0.041162896901369095,0.9496424198150635,-0.03211949020624161,-0.31168505549430847,-0.10229140520095825,0.07659889757633209,-0.01825582981109619,0.3166772867192423,-0.5318744223081014,0.24752184962167165,0.7453576092100264
1729874259216168400,3.94816845703125,0.24904942512512207,0.06307291984558105,-0.07906580716371536,0.9500769972801208,-0.0322815477848053,-0.310340940952301,-0.039585113525390625,-0.04495839402079582,-0.00428009033203125,0.31733803556679746,-0.5320808849423306,0.24843402532063352,0.7446253654911623
1729874259226199300,3.95819921875,0.08917480707168579,0.003600538708269596,-0.22108764946460724,0.9502097964286804,-0.03146539628505707,-0.310017853975296,0.01718205213546753,-0.19044314324855804,-0.062296658754348755,0.3183295039659612,-0.532075729661375,0.2487699540643614,0.7440934786425694
1729874259236229400,3.9682294921875,-0.02832026220858097,0.10045219212770462,-0.25688666105270386,0.9504076242446899,-0.02913794480264187,-0.3096388280391693,-0.028197050094604492,-0.1860109567642212,-0.06255361437797546,0.3192649100319044,-0.5325036334477772,0.24823470945643233,0.7435652241864151
1729874259246259500,3.978259521484375,0.03432900458574295,0.2195727378129959,-0.20354726910591125,0.9509981870651245,-0.026966461911797523,-0.3080180883407593,-0.04473304748535156,-0.048381417989730835,-0.07459607720375061,0.3198798292095509,-0.5334278494027744,0.2478824089304751,0.7427555697451586
1729874259256289500,3.98828955078125,0.16640648245811462,0.2615983188152313,-0.23950792849063873,0.9517793655395508,-0.02519194595515728,-0.3057471215724945,-0.03608429431915283,0.09349031001329422,-0.09829044342041016,0.3206493696656584,-0.5344202086299462,0.2480352445438185,0.7416586160504259
1729874259266320400,3.9983203125,0.32807767391204834,0.2729590833187103,-0.2641001045703888,0.9526987075805664,-0.02353702485561371,-0.30300372838974,-0.05160623788833618,0.1355976164340973,-0.06880730390548706,0.3219204694833671,-0.5353731097233514,0.24874439859731257,0.7401817931184915
1729874259276350500,4.0083505859375,0.3502642810344696,0.1085447445511818,-0.2993800640106201,0.9533456563949585,-0.02196642942726612,-0.3010806739330292,-0.02638953924179077,0.039971835911273956,0.014688372611999512,0.3236412209068369,-0.5358652886087489,0.24961582091569867,0.7387805409760204
1729874259286380500,4.018380615234375,0.18564443290233612,0.08425112068653107,-0.37087181210517883,0.9536662697792053,-0.019525784999132156,-0.3002323806285858,-0.0018841028213500977,-0.08562251180410385,0.03537023067474365,0.3255297779074616,-0.5361564516702434,0.24984009677887017,0.7376629512373328
1729874259296410400,4.028410400390625,0.13374094665050507,0.10895274579524994,-0.3293427526950836,0.954026997089386,-0.01659902185201645,-0.29926082491874695,-0.014055132865905762,-0.09010566771030426,0.09203112125396729,0.3271295685140764,-0.5367130621688176,0.24961706205874593,0.736625219445982
1729874259306441200,4.038441162109375,0.09885060787200928,0.16613081097602844,-0.285831481218338,0.9544700980186462,-0.014035644941031933,-0.29797640442848206,0.017179131507873535,-0.024263884872198105,0.046557217836380005,0.32840478003323703,-0.5373895834571139,0.24944785197694985,0.7356212080927695
1729874259316471300,4.04847119140625,0.17717351019382477,0.17786793410778046,-0.30209702253341675,0.9550498723983765,-0.011678527109324932,-0.2962147295475006,0.038220882415771484,0.03610789030790329,0.02831616997718811,0.32960047130476333,-0.5381996816639749,0.24946689767256378,0.7344867556459163
1729874259326501400,4.05850146484375,0.11205069720745087,0.023552674800157547,-0.3193329870700836,0.9554116725921631,-0.009108500555157661,-0.29513615369796753,0.04576307535171509,0.01124476920813322,0.07292231917381287,0.3310369370100687,-0.5387491290851488,0.24936178749329171,0.7334728932673953
1729874259336532500,4.068532470703125,0.03879166394472122,-0.09998156875371933,-0.35672271251678467,0.9552876949310303,-0.006170287262648344,-0.29561302065849304,0.0581551194190979,-0.06154818832874298,0.08133378624916077,0.33252799284631257,-0.5388466953829281,0.24867192231184254,0.7329607296029702
1729874259346562300,4.078562255859375,-0.10207704454660416,0.009449852630496025,-0.4153713881969452,0.9551318287849426,-0.002319701248779893,-0.2961719334125519,0.0018688440322875977,-0.12713584303855896,0.0011126399040222168,0.3339500238503961,-0.5391754061060188,0.24739425819326286,0.7325048354409432
1729874259356592400,4.08859228515625,-0.10658977180719376,0.2037435919046402,-0.36491140723228455,0.9554656744003296,0.0017898587975651026,-0.2950964570045471,-0.09166574478149414,-0.07190397381782532,-0.03580567240715027,0.3349423460645265,-0.5402676866941304,0.24609470869105984,0.7316841472124523
1729874259366622500,4.09862255859375,0.030909771099686623,0.28353989124298096,-0.2889260947704315,0.9561890363693237,0.005036868155002594,-0.29270660877227783,-0.1165894865989685,0.017881859093904495,-0.04211705923080444,0.3357167456471519,-0.5416529803116574,0.24547656606618237,0.7305118551621633
1729874259376653300,4.1086533203125,0.09724032878875732,0.3407760560512543,-0.27592799067497253,0.9570872187614441,0.007503822911530733,-0.2897031009197235,-0.09736120700836182,0.04562731087207794,-0.02731361985206604,0.3365398704223087,-0.5430252113952294,0.24550371852865677,0.7291039172227977
1729874259386683400,4.118683349609375,0.05600926652550697,0.2730090022087097,-0.3202943801879883,0.9579752683639526,0.010100617073476315,-0.28667300939559937,-0.05242723226547241,-0.016906004399061203,0.03916013240814209,0.3374804453865815,-0.5443955006602821,0.24555454406753,0.7276286745296089
1729874259396713500,4.12871337890625,-0.1253482699394226,0.09066742658615112,-0.3509255349636078,0.9584620594978333,0.013442203402519226,-0.2849033772945404,-0.0052607059478759766,-0.10493387281894684,0.10599395632743835,0.33839677555850767,-0.5455366179645997,0.24482260900278166,0.7265943756319423
1729874259406743300,4.138743408203125,-0.24356253445148468,-0.011445095762610435,-0.39001062512397766,0.9584758877754211,0.01749088615179062,-0.2846367061138153,0.023869633674621582,-0.12259338796138763,0.038802266120910645,0.33918117186549906,-0.5463934509804383,0.2431786337338943,0.7261366895260002
1729874259416774400,4.1487744140625,-0.29141107201576233,0.12204372137784958,-0.4454765319824219,0.9585203528404236,0.02234080247581005,-0.2841472923755646,-0.04924917221069336,-0.08043099194765091,-0.11213880777359009,0.3399113599618534,-0.5475397647026543,0.24109451105760168,0.7256265787617168
1729874259426804200,4.15880419921875,-0.18786098062992096,0.35654783248901367,-0.364134818315506,0.9590946435928345,0.027022769674658775,-0.28179293870925903,-0.18211716413497925,-0.0042413584887981415,-0.12320590019226074,0.3404488213671758,-0.5493274470878778,0.23946374422927172,0.7245626989470433
