time,seconds_elapsed,rotationRateX,rotationRateY,rotationRateZ,gravityX,gravityY,gravityZ,accelerationX,accelerationY,accelerationZ,quaternionW,quaternionX,quaternionY,quaternionZ
1728404748425221400,0.033221435546875,0.030375391244888306,-0.008349686861038208,0.06570309400558472,0.15923596918582916,-0.07494771480560303,-0.9843915700912476,-0.01175987720489502,-0.007434450089931488,0.008973479270935059,0.996090398414766,0.03762093931196333,0.07993048399796451,-6.294391166552862e-17
1728404748435251500,0.04325146484375,0.05481761693954468,-0.02551162801682949,0.08634951710700989,0.1588439792394638,-0.07544764131307602,-0.9844167232513428,-0.003540128469467163,-0.002890937030315399,0.0036885738372802734,0.9960966111425965,0.03784097755523199,0.07974777286271045,0.00038309865004973725
1728404748445281500,0.053281494140625,0.047958116978406906,0.01790679059922695,0.07331174612045288,0.1588364541530609,-0.07602237164974213,-0.9843736886978149,-0.003563106060028076,0.004748612642288208,-0.0037702322006225586,0.9960856326165436,0.03809948628268624,0.07975949885650958,0.0007627479422478137
1728404748455312400,0.0633125,0.04208717867732048,0.001907052006572485,0.07156071811914444,0.1590527594089508,-0.07644082605838776,-0.9843063950538635,-0.008234992623329163,0.003961615264415741,-0.00824737548828125,0.9960682947803021,0.03828268109833104,0.07988274799310864,0.0011047047954510373
1728404748465342500,0.073342529296875,0.03900936245918274,-0.05065309256315231,0.08492791652679443,0.15876877307891846,-0.07687070965766907,-0.984318733215332,-0.01593133807182312,0.000592060387134552,-0.0008649826049804688,0.9960709295210954,0.03846998206007589,0.07975395171601256,0.0014610342148360983
1728404748475373600,0.08337353515625,0.032241202890872955,-0.08980049937963486,0.10274393856525421,0.1579425185918808,-0.07736434042453766,-0.9844129681587219,0.012406513094902039,-0.00001294165849685669,0.007194340229034424,0.9960938315170951,0.038682507927501254,0.07935472487308479,0.0018998519706153291
1728404748485403600,0.093403564453125,0.015451903454959393,-0.10103381425142288,0.08666190505027771,0.15650756657123566,-0.07773924618959427,-0.9846125841140747,0.045121967792510986,0.01337771862745285,0.011315524578094482,0.9961429728183098,0.038833074469055553,0.0786491339407007,0.0023690930965301724
1728404748495433500,0.10343359375,0.016467101871967316,-0.09032710641622543,0.05950671434402466,0.1549428105354309,-0.07807131111621857,-0.9848337769508362,0.04654940962791443,0.012870542705059052,0.011994421482086182,0.9961975919781293,0.038971024396531266,0.0778740152086296,0.0027327989986502465
1728404748505464600,0.113464599609375,0.008225882425904274,-0.047290265560150146,0.013917393982410431,0.1540912240743637,-0.0783742368221283,-0.9849433302879333,0.009604990482330322,-0.0059457942843437195,0.00955575704574585,0.9962244874882045,0.03910871018310331,0.07745217959119653,0.0029187642390949946
1728404748515494700,0.12349462890625,0.00928608700633049,-0.03817027062177658,0.0022530141286551952,0.15371941030025482,-0.07846646010875702,-0.984994113445282,-0.028811052441596985,-0.013315118849277496,0.001732945442199707,0.9962371322460064,0.039152895980694005,0.07726580952326097,0.0029464528952842443
1728404748525525500,0.133525390625,0.012017558328807354,-0.03427742421627045,-0.011167452670633793,0.1533701866865158,-0.07843352109193802,-0.985051155090332,-0.03883780539035797,-0.009655430912971497,-0.004969596862792969,0.9962515397695102,0.039138007509242234,0.07708852366598286,0.0029246786534920365
1728404748535555600,0.1435556640625,0.018062401562929153,-0.022999202832579613,-0.025406576693058014,0.15305474400520325,-0.07844715565443039,-0.9850991368293762,-0.01293337345123291,-0.007322460412979126,-0.0011069178581237793,0.9962638727523851,0.039153077544862115,0.07692511225881918,0.0028180894138999405
1728404748545583900,0.153583984375,0.03560024872422218,-0.016921496018767357,-0.034492749720811844,0.15274597704410553,-0.07864800095558167,-0.985131025314331,0.0013829618692398071,-0.00626712292432785,-0.0010445117950439453,0.9962724179451655,0.03926717188744267,0.07676307200367165,0.002647084936815401
1728404748555615000,0.163614990234375,0.038796309381723404,-0.031007487326860428,-0.026068639010190964,0.15281830728054047,-0.07897287607192993,-0.9850938320159912,-0.00891275703907013,-0.004553690552711487,0.001893758773803711,0.9962635950482123,0.03944459647766721,0.07679327813091348,0.0024640656025266116
1728404748565645000,0.17364501953125,0.04274750500917435,-0.04768463224172592,-0.007034227252006531,0.15324895083904266,-0.07912123948335648,-0.9850150346755981,-0.006856217980384827,-0.0024979785084724426,0.0023795366287231445,0.9962440006791714,0.03952938904458784,0.07700595226292103,0.002333607655323147
1728404748575676000,0.183676025390625,0.05095110833644867,-0.06679441034793854,0.012209242209792137,0.15353015065193176,-0.07936400175094604,-0.9849516749382019,0.006519198417663574,-0.0027587637305259705,0.004711806774139404,0.9962282213533158,0.03965484608903713,0.07714689552072478,0.002290743408762181
1728404748585706000,0.1937060546875,0.056733496487140656,-0.0703757256269455,0.008831022307276726,0.15301081538200378,-0.07998718321323395,-0.9849820733070374,0.012440130114555359,-0.0023034289479255676,0.0036283135414123535,0.9962358095680398,0.03996641432977109,0.07688715586652808,0.002310130743249432
1728404748595736000,0.203736083984375,0.040070898830890656,-0.03351597115397453,-0.007100539747625589,0.1520422101020813,-0.08069494366645813,-0.9850743412971497,0.014156445860862732,-0.0009853169322013855,-0.0006281733512878418,0.9962589620485104,0.04032187752026686,0.07640003757378121,0.0023094089035212125
1728404748605767000,0.213766845703125,0.014130708761513233,-0.006212286651134491,-0.023502683266997337,0.1512807458639145,-0.08105595409870148,-0.9851619601249695,-0.0011953860521316528,0.0013898536562919617,-0.0028598904609680176,0.9962811516443131,0.04050973529733831,0.07601306044084534,0.0022218665007387346
1728404748615797000,0.223796875,-0.0041763922199606895,-0.006231195293366909,-0.027450019493699074,0.15108785033226013,-0.08113493770360947,-0.9851850271224976,-0.02353973686695099,-0.005824856460094452,-0.001143038272857666,0.9962871994294473,0.0405593015535201,0.07591058628114299,0.0020913403965603715
1728404748625828000,0.233828125,-0.020537789911031723,0.012387709692120552,-0.03055553324520588,0.15116287767887115,-0.08101853728294373,-0.9851831197738647,-0.024240359663963318,-0.01502024382352829,0.005156874656677246,0.9962870497715521,0.04051189886270166,0.07594224795286772,0.0019460702317696688
1728404748635858200,0.243858154296875,-0.029811982065439224,0.010047856718301773,-0.01895187236368656,0.15121400356292725,-0.08074630051851273,-0.9851976037025452,-0.005034893751144409,-0.00816662609577179,0.003706514835357666,0.9962909188916949,0.040384194314518895,0.07596251088281994,0.0018264992077801276
1728404748645888000,0.253887939453125,-0.022894620895385742,-0.0377395898103714,0.022674134001135826,0.15100671350955963,-0.08050104230642319,-0.9852495193481445,0.0027407407760620117,-0.0003399774432182312,0.0016679763793945312,0.9963039259147177,0.040258531612035034,0.07585845278029354,0.0018559439758717854
1728404748655919000,0.263919189453125,-0.0171539094299078,-0.04895336180925369,0.026404954493045807,0.1507146656513214,-0.08036806434392929,-0.9853050708770752,0.004894375801086426,-0.0033263564109802246,0.0014641284942626953,0.9963176514440948,0.04018196239752021,0.0757157693234654,0.0019815475022084044
1728404748665949200,0.27394921875,-0.0003480983432382345,-0.021258028224110603,0.024451259523630142,0.15063250064849854,-0.08035555481910706,-0.985318660736084,0.026766091585159302,-0.0014162436127662659,0.004895687103271484,0.9963207296162386,0.04016719396684223,0.07567874768174387,0.002092675539193902
1728404748675980000,0.28397998046875,0.009214247576892376,0.016710925847291946,0.020311376079916954,0.15086869895458221,-0.08047094941139221,-0.9852731227874756,0.016642197966575623,0.0043906643986701965,0.0048348307609558105,0.9963091739564015,0.04021732401085839,0.07580250492617602,0.002197619518322877
1728404748686010000,0.294010009765625,0.0020996793173253536,0.02065916731953621,0.020267168059945107,0.1510300189256668,-0.08054666221141815,-0.9852421879768372,-0.014891192317008972,0.0010331571102142334,0.0000432133674621582,0.9963011483607442,0.040247775316143194,0.07588821718616055,0.00229848310905671
1728404748696040200,0.304040283203125,0.004069353453814983,0.023411013185977936,0.023045910522341728,0.15081657469272614,-0.08073030412197113,-0.9852598309516907,-0.0208270400762558,-0.003513433039188385,0.004516422748565674,0.9963052880218295,0.04033034576430972,0.07578611368079752,0.002425426822670132
1728404748706071000,0.314071044921875,0.005290346685796976,0.015310848131775856,0.03274301439523697,0.150569885969162,-0.0810970738530159,-0.9852674603462219,-0.00712209939956665,-0.0010867267847061157,0.011558353900909424,0.9963067565094916,0.04050185866871923,0.07566946092632044,0.0025936737522164583
1728404748716100900,0.324100830078125,0.006865606177598238,0.0069892690517008305,0.02860366180539131,0.15061375498771667,-0.0813308134675026,-0.9852414727210999,0.008260682225227356,0.0045028552412986755,0.009960711002349854,0.9962998048931649,0.04060654714933557,0.07569914957250617,0.00276242964324649
1728404748726132200,0.33413232421875,0.005990092176944017,0.013192836195230484,0.003466883208602667,0.15075424313545227,-0.08143207430839539,-0.9852116703987122,0.006243348121643066,0.00802207738161087,0.005170106887817383,0.9962921145299711,0.04065155421667669,0.07577353953414924,0.002840234217817909
1728404748736162000,0.344162109375,0.0009449995122849941,0.013300161808729172,0.011573545634746552,0.15100623667240143,-0.08148997277021408,-0.9851682782173157,-0.0022026151418685913,0.0030598416924476624,0.0006711483001708984,0.9962811165276111,0.0406786964367121,0.07590199375076227,0.0028664739978555122
1728404748746192000,0.35419189453125,-0.0014593021478503942,-0.012908432632684708,0.036385152488946915,0.151446133852005,-0.08154026418924332,-0.9850965738296509,-0.011065363883972168,0.0038578063249588013,-0.003917098045349121,0.9962628847945596,0.04069652431017854,0.07612822053419321,0.0029646706166236805
1728404748756223000,0.364222900390625,-0.011209933087229729,-0.009810376912355423,0.04928497225046158,0.15157756209373474,-0.08144529163837433,-0.9850842356681824,-0.005398452281951904,0.0008789226412773132,-0.0038074254989624023,0.996259144929723,0.04063295269891967,0.07620271907949239,0.0031717479981346634
1728404748766253000,0.374253173828125,-0.007132634520530701,-0.004652685951441526,0.05884998291730881,0.15117092430591583,-0.08139799535274506,-0.9851506352424622,0.01508873701095581,-0.004020661115646362,-0.0009638667106628418,0.9962748074639383,0.04058780175632361,0.07600872400681259,0.003452129479790721
1728404748776284000,0.384283935546875,0.0014027967117726803,0.011474618688225746,0.06734839081764221,0.15082219243049622,-0.08151144534349442,-0.9851946830749512,0.007640242576599121,-0.0006723552942276001,0.006129741668701172,0.9962846835975726,0.04062023261429365,0.07584627663570838,0.00377612986251138
1728404748786314000,0.39431396484375,0.00120598915964365,0.013021808117628098,0.06893031299114227,0.15081486105918884,-0.08166340738534927,-0.9851832389831543,-0.008984506130218506,-0.0034500733017921448,0.003295421600341797,0.9962804636567869,0.04066966547320068,0.07585755804754216,0.004130239914907539
1728404748796344000,0.404343994140625,0.01077605877071619,-0.00021410221233963966,0.07544946670532227,0.15099754929542542,-0.08173833787441254,-0.9851490259170532,-0.012524113059043884,-0.0029936805367469788,-0.0023845434188842773,0.9962703548574454,0.040680336637680684,0.07596446492428642,0.004483066297990185
1728404748806375000,0.414375,0.013796881772577763,0.007124238181859255,0.08016751706600189,0.15103720128536224,-0.081855408847332,-0.9851332306861877,-0.004018858075141907,-0.0024951398372650146,0.00008684396743774414,0.9962646002603031,0.04070970789085189,0.07600071774504792,0.004869200084407615
1728404748816405000,0.424405029296875,0.012574557214975357,0.02220257744193077,0.06457044929265976,0.15109051764011383,-0.08203883469104767,-0.985109806060791,0.007402434945106506,0.00009918212890625,0.0014519095420837402,0.9962568064813154,0.04077433548680452,0.07604315726019244,0.005230051764681987
1728404748826436000,0.43443603515625,0.01139424555003643,0.01970794051885605,0.05134013295173645,0.15106616914272308,-0.08216153830289841,-0.9851033091545105,0.00600770115852356,0.0010916367173194885,-0.00033980607986450195,0.9962537464270191,0.04081433426426427,0.07604303225224959,0.005514457312220805
1728404748836466200,0.444466064453125,0.009895950555801392,0.005211023613810539,0.03202395886182785,0.15106788277626038,-0.08230668306350708,-0.9850909113883972,-0.007620111107826233,-0.0035239681601524353,0.004515349864959717,0.9962493605439067,0.040870744556685316,0.07605343783910402,0.005731348228896688
1728404748846496000,0.45449609375,0.009675241075456142,0.010617612861096859,-0.005626213736832142,0.15134191513061523,-0.08246193081140518,-0.9850358963012695,0.0007423460483551025,-0.0060237497091293335,0.005650460720062256,0.9962351320268015,0.04094365430437222,0.07619503843672817,0.005793777039680572
1728404748856527000,0.464527099609375,0.011271805502474308,0.04121813178062439,-0.039803359657526016,0.15173457562923431,-0.08253543078899384,-0.9849693179130554,-0.006348952651023865,-0.005431443452835083,0.00663679838180542,0.9962191178592774,0.04098928246216413,0.07638866900672454,0.005673721441631043
1728404748866557200,0.47455712890625,0.004723226185888052,0.0494547039270401,-0.047926533967256546,0.15208955109119415,-0.08256623148918152,-0.9849119782447815,-0.023351237177848816,-0.007903091609477997,0.004061758518218994,0.9962059227200176,0.041020554356998716,0.07655932007128542,0.005462387241117672
1728404748876588000,0.484588134765625,0.008478283882141113,0.031783830374479294,-0.04170965030789375,0.15228749811649323,-0.08262116461992264,-0.9848767518997192,-0.015095815062522888,-0.0037282854318618774,0.0013409852981567383,0.9961982682589366,0.04106484080274225,0.07665044746405805,0.005242744455541919
1728404748886618000,0.4946181640625,0.011341514065861702,0.017685269936919212,-0.03541606664657593,0.15248462557792664,-0.08268748968839645,-0.9848406910896301,0.013607203960418701,0.0027925148606300354,0.001335442066192627,0.9961901907967956,0.04111258804902932,0.07674243146992527,0.005053119854204582
1728404748896648000,0.50464794921875,0.014000946655869484,0.01754252426326275,-0.0436585508286953,0.15279293060302734,-0.08272847533226013,-0.9847894906997681,0.0232933908700943,0.006785526871681213,-0.0019048452377319336,0.9961782691788278,0.04114759566904088,0.07689041247737513,0.0048627284829389035
1728404748906679000,0.514678955078125,0.018008338287472725,0.02593286707997322,-0.06852954626083374,0.1531042903661728,-0.08276399970054626,-0.9847381114959717,0.012758657336235046,0.006760008633136749,-0.0002014636993408203,0.9961667598284655,0.04118602288576938,0.07703662647467989,0.004593300781570364
1728404748916708900,0.524708984375,0.016090596094727516,0.049663227051496506,-0.09648581594228745,0.1534189134836197,-0.08285246789455414,-0.9846817255020142,-0.003272533416748047,0.00469699501991272,-0.00018155574798583984,0.9961543738694548,0.04126254515189742,0.07717861121521308,0.0041769422577822846
1728404748926740000,0.534739990234375,0.045807212591171265,0.03381726145744324,-0.06612657755613327,0.15390519797801971,-0.08312197029590607,-0.9845831394195557,-0.01643887162208557,0.0040051937103271484,-0.003453969955444336,0.9961312868732433,0.041430382161603045,0.07740775345031975,0.0037578125100639066
1728404748936770000,0.54477001953125,0.0327228344976902,0.057861343026161194,-0.06093847006559372,0.15427111089229584,-0.08351206034421921,-0.984492838382721,-0.0201617032289505,0.0021827518939971924,-0.0029644370079040527,0.9961097379150354,0.04164977122734878,0.07758139595168967,0.0034581438100902175
1728404748946801000,0.55480078125,0.010538971051573753,0.07630906254053116,-0.0426526740193367,0.15462236106395721,-0.0837538093328476,-0.984417200088501,-0.014760389924049377,-0.0014207139611244202,0.0021326541900634766,0.9960915775440732,0.04179102780448115,0.07774901164173727,0.003205362107884602
1728404748956831000,0.5648310546875,-0.0009195462334901094,0.05470443144440651,-0.0320168063044548,0.15504495799541473,-0.0837944746017456,-0.9843472838401794,-0.014755740761756897,-0.00580509752035141,0.011431574821472168,0.9960745256557394,0.041823314320367934,0.07795623255177417,0.0030542483745180605
1728404748966861000,0.574861083984375,-0.005483072251081467,0.03527992218732834,-0.035088229924440384,0.15567505359649658,-0.08365131914615631,-0.9842600226402283,0.003306180238723755,-0.0036136582493782043,0.012046217918395996,0.9960530724702465,0.04176375494203982,0.0782674329747111,0.0028970387871013717
1728404748976892000,0.584891845703125,0.012581681832671165,0.022792892530560493,-0.046108394861221313,0.1562577337026596,-0.08347020298242569,-0.9841830134391785,0.00730113685131073,0.005391016602516174,0.007834136486053467,0.9960343615139468,0.04168937623367381,0.0785523892057095,0.0026867392425414696
1728404748986922000,0.594921875,0.025405868887901306,0.043381523340940475,-0.06292945146560669,0.15675152838230133,-0.0834738090634346,-0.9841042160987854,0.0034656524658203125,0.0036246106028556824,0.0013161301612854004,0.9960153488366743,0.04171305340560483,0.07879034062848077,0.0024122420006427794
1728404748996953000,0.604953125,0.02500772476196289,0.08256913721561432,-0.08385896682739258,0.1573418527841568,-0.08351382613182068,-0.9840065836906433,-0.0022821277379989624,-0.0006688758730888367,-0.0062583088874816895,0.9959915561790827,0.0417627963977181,0.07907319276498691,0.002042668621135107
1728404749006983200,0.614983154296875,0.021316584199666977,0.10875333845615387,-0.12518802285194397,0.15806007385253906,-0.08353512734174728,-0.9838896989822388,-0.007745847105979919,0.0019311681389808655,-0.0038727521896362305,0.9959630924507037,0.04181381230118326,0.07941515338689306,0.0015431537621645433
1728404749017013000,0.625012939453125,0.007747245021164417,0.13836796581745148,-0.18996302783489227,0.15903513133525848,-0.0833926722407341,-0.9837446212768555,-0.006905108690261841,0.002704232931137085,-0.00038623809814453125,0.9959276770575113,0.04180430845772549,0.07987543711963185,0.0007795646938980299
1728404749027044000,0.635044189453125,-0.017075812444090843,0.1506909430027008,-0.24572722613811493,0.16037553548812866,-0.08304800093173981,-0.9835561513900757,-0.012746840715408325,-0.0016840174794197083,0.0016225576400756836,0.9958805662488607,0.04171791808811297,0.08050798535458671,-0.00027403660323259627
1728404749037074200,0.64507421875,-0.037608515471220016,0.12160389125347137,-0.27564889192581177,0.16166821122169495,-0.08247259259223938,-0.9833929538726807,-0.008149653673171997,-0.0007640570402145386,-0.00005125999450683594,0.9958384789679637,0.04153409533443756,0.0811076528127107,-0.00154060415518668
1728404749047105000,0.65510498046875,-0.05272648483514786,0.09373471140861511,-0.27440598607063293,0.16291888058185577,-0.08167121559381485,-0.9832534193992615,0.006651937961578369,-0.00037525594234466553,-0.0006638169288635254,0.9958003911963332,0.04124404136547178,0.08168370718404422,-0.0028797237564343573
1728404749057135000,0.665135009765625,-0.05699872598052025,0.09836328029632568,-0.27902019023895264,0.1641303151845932,-0.08062143623828888,-0.9831385612487793,0.014290615916252136,-0.003301866352558136,-0.0009007453918457031,0.9957668732014747,0.04082951242984536,0.08224154134666739,-0.004206595807228744
1728404749067165200,0.675165283203125,-0.0726967304944992,0.08974289894104004,-0.27068501710891724,0.16525515913963318,-0.07949316501617432,-0.9830420017242432,0.008862793445587158,-0.007466636598110199,-0.00031065940856933594,0.9957362775192573,0.0403757034331997,0.0827574868499692,-0.005521782729369537
1728404749077196000,0.685196044921875,-0.04635307565331459,0.08396309614181519,-0.2580331563949585,0.16610653698444366,-0.07852287590503693,-0.982976496219635,-0.0031427592039108276,-0.010176427662372589,0.00398784875869751,0.9957118396694308,0.03999847885645883,0.0831376978617121,-0.00680220547738598
1728404749087226000,0.69522607421875,-0.04583229124546051,0.09225697070360184,-0.2389550805091858,0.16695675253868103,-0.07770411670207977,-0.9828975200653076,-0.002711251378059387,-0.010644227266311646,0.004214048385620117,0.9956831823335429,0.039690617199652986,0.08352185301279971,-0.007988586541645049
1728404749097257200,0.70525732421875,-0.019088562577962875,0.09489323943853378,-0.24483799934387207,0.1678619235754013,-0.07702207565307617,-0.9827970266342163,-0.005386427044868469,-0.009495221078395844,-0.0008302927017211914,0.995647980214204,0.03945135727888495,0.08393497894251076,-0.009157394717013826
1728404749107287000,0.715287109375,-0.0007953096646815538,0.11046996712684631,-0.2468992918729782,0.16879329085350037,-0.07660585641860962,-0.9826700091362,-0.01080387830734253,-0.011025331914424896,-0.0011556744575500488,0.9956043894637365,0.03934900029208397,0.08436020570094262,-0.010349764507956903
1728404749117316900,0.72531689453125,0.017299536615610123,0.08009128272533417,-0.23345990478992462,0.16970951855182648,-0.07638527452945709,-0.9825294017791748,-0.00526563823223114,0.00207500159740448,-0.01257258653640747,0.9955561323523295,0.03934500279756392,0.08477783582755465,-0.011530411117822359
1728404749127348000,0.735347900390625,0.033691227436065674,0.022289074957370758,-0.19069646298885345,0.1704198122024536,-0.07635454833507538,-0.9824088215827942,0.02043701708316803,0.01550254225730896,-0.01472252607345581,0.995512957413715,0.03942530423753965,0.08509547301790012,-0.012587361213795514
1728404749137378000,0.7453779296875,0.05952522158622742,-0.1351460963487625,-0.13736799359321594,0.16998496651649475,-0.07667924463748932,-0.9824588298797607,0.051557302474975586,0.021549269556999207,-0.020989656448364258,0.9955142996853271,0.03965807323374207,0.08483989827606557,-0.013443650392838173
1728404749147409000,0.755408935546875,0.05482254549860954,-0.2306690514087677,-0.10920959711074829,0.1682790368795395,-0.07714323699474335,-0.9827162027359009,0.09005217254161835,0.03528841584920883,-0.017772138118743896,0.9955695939462992,0.03993413380425499,0.08394744644784743,-0.014123005013130865
1728404749157439000,0.76543896484375,0.0018911543302237988,-0.2509937584400177,-0.09142953902482986,0.16594141721725464,-0.07731983065605164,-0.9830997586250305,0.1036355197429657,0.02215934544801712,-0.004433870315551758,0.9956577751396541,0.0400487392022731,0.08274194564220602,-0.014683272047154302
1728404749167469000,0.775468994140625,-0.002359118079766631,-0.2742389738559723,-0.15343084931373596,0.16342225670814514,-0.0771307572722435,-0.9835364818572998,0.070723757147789,0.008420459926128387,-0.004897356033325195,0.9957576314128042,0.03998375294466645,0.0814435862650827,-0.015332693574644238
1728404749177500000,0.7855,0.014052610844373703,-0.23998861014842987,-0.1729757934808731,0.16097955405712128,-0.07691942900419235,-0.9839558005332947,0.06924495100975037,0.030532754957675934,-0.019904673099517822,0.9958486177770735,0.039927085997955816,0.08017440151775242,-0.01623483477261919
1728404749187530000,0.795530029296875,-0.012624338269233704,-0.17021076381206512,-0.15041962265968323,0.15910986065864563,-0.07674046605825424,-0.9842738509178162,0.03598891198635101,0.032078035175800323,-0.05219465494155884,0.9959145555790739,0.03988461818587518,0.07919789254517362,-0.017064077302829668
1728404749197561000,0.80556103515625,-0.12643319368362427,-0.30144202709198,-0.25457823276519775,0.1570729911327362,-0.07590687274932861,-0.9846655130386353,0.04869167506694794,0.031870037317276,-0.037780165672302246,0.9959954819296224,0.03952238507766329,0.07813584704824353,-0.018054223322222597
1728404749207591200,0.815591064453125,-0.2009395956993103,-0.2467154562473297,-0.2031605988740921,0.15447154641151428,-0.0737004354596138,-0.9852445125579834,0.07605813443660736,0.021820589900016785,-0.008880853652954102,0.9961177484071706,0.038480366442657614,0.07679189566871125,-0.019282721075792715
1728404749217621000,0.82562109375,-0.2398020327091217,-0.3985302746295929,-0.17048999667167664,0.1518610715866089,-0.07120331376791,-0.9858338236808777,0.08819007873535156,-0.010400645434856415,0.017907798290252686,0.996252235324255,0.03724781237139992,0.07546982356893879,-0.01996240585291966
1728404749227652000,0.835652099609375,-0.4352470338344574,-0.6598840951919556,-0.41122376918792725,0.1463462859392166,-0.06732036173343658,-0.9869400858879089,0.17906254529953003,-0.03344864398241043,-0.026060402393341064,0.9965017855652579,0.03533310370196822,0.07267411887354638,-0.021318717350306094
1728404749237682200,0.84568212890625,-0.6363540291786194,-0.9122753143310547,-0.767044723033905,0.13922324776649475,-0.061321210116147995,-0.988360583782196,0.2203500121831894,-0.12732315063476562,0.009295642375946045,0.9967883137291225,0.03244696971114719,0.06904283412948939,-0.024363929276857862
1728404749247713000,0.855713134765625,-1.1278364658355713,-0.9557155966758728,-0.37199699878692627,0.1299593150615692,-0.05167385935783386,-0.9901719093322754,0.14512604475021362,-0.25424957275390625,-0.02345418930053711,0.9971689653326022,0.027667691596903538,0.06440922254112592,-0.02720780728446529
1728404749257743000,0.8657431640625,-1.2941697835922241,-0.9137939810752869,0.11478355526924133,0.12080226093530655,-0.03944109007716179,-0.9918927550315857,0.204499751329422,-0.30278298258781433,0.017359673976898193,0.9975930762142459,0.021419145760175638,0.059957050379195374,-0.027470445033673973
1728404749267773200,0.875773193359375,-1.3960838317871094,-0.7477071285247803,0.1813013255596161,0.1124090924859047,-0.026317797601222992,-0.9933134317398071,0.22836534678936005,-0.20495963096618652,0.013744950294494629,0.9979802196939846,0.014660349139952676,0.05593172890665368,-0.026314930509360273
1728404749277804000,0.885803955078125,-1.5990720987319946,-0.46521949768066406,0.17422610521316528,0.10621118545532227,-0.01126241683959961,-0.9942798018455505,0.09599819034337997,-0.1453232318162918,-0.04139524698257446,0.9982536974932968,0.006973788364173605,0.05302320998346997,-0.0250909293363286
1728404749287833900,0.895833740234375,-1.393877387046814,-0.5981540679931641,0.09084386378526688,0.1012306660413742,0.0035799932666122913,-0.9948565363883972,0.012370914220809937,-0.12104210257530212,-0.004807770252227783,0.9984246500995726,-0.0005733055756553898,0.05070898378000111,-0.02401141120401309
1728404749297865200,0.905865234375,-1.1574393510818481,-0.6065099835395813,0.14846880733966827,0.09534395486116409,0.016308661550283432,-0.9953107833862305,0.08068133145570755,-0.09217531234025955,-0.04869556427001953,0.9985593566579748,-0.007056792134799701,0.04790416589176433,-0.023123359971326238
1728404749307895000,0.91589501953125,-0.7247776985168457,-0.6688210368156433,0.25696468353271484,0.08873321115970612,0.025638634338974953,-0.9957253932952881,0.18404805660247803,-0.03186417371034622,-0.10475373268127441,0.9986921035141562,-0.011859057069858845,0.044684014174162054,-0.021837133607857936
1728404749317924900,0.9259248046875,-0.4274834394454956,-0.2964831590652466,0.34622639417648315,0.08419501036405563,0.030835812911391258,-0.9959720373153687,0.2836332321166992,0.03969036042690277,-0.07206684350967407,0.9987904079247403,-0.014582542386593138,0.0424419257481052,-0.02009811152717065
1728404749327956000,0.9359560546875,-0.3288106620311737,-0.6491478681564331,0.4179234802722931,0.07964034378528595,0.03443007171154022,-0.9962288737297058,0.3197736144065857,0.050942905247211456,-0.1296866536140442,0.9988914187420378,-0.01650316314460571,0.040164712867942806,-0.018179339917514616
1728404749337986000,0.945986083984375,-0.3021175265312195,-0.9931704998016357,0.7495282888412476,0.07188314944505692,0.03692305460572243,-0.9967293739318848,0.41406339406967163,-0.03651101887226105,-0.04739898443222046,0.9990682309644948,-0.017931469344327183,0.036245840874736916,-0.01508492999689631
1728404749348017000,0.956016845703125,-0.41566145420074463,-1.25095796585083,0.8507811427116394,0.06053347513079643,0.0401577427983284,-0.9973580241203308,0.4018077254295349,-0.08150900900363922,0.0065132975578308105,0.9992804447364558,-0.019762056078544313,0.030503153563311507,-0.010852509387574226
1728404749358047000,0.966046875,-0.2603650987148285,-0.8897883296012878,0.9485993385314941,0.05016428977251053,0.04289497435092926,-0.9978194236755371,0.291769802570343,-0.09755189716815948,0.05771017074584961,0.9994358188147469,-0.021303950135328632,0.025227739703649523,-0.006166067579482628
1728404749368077000,0.9760771484375,-0.22710581123828888,-0.5366108417510986,0.9218052625656128,0.04373759403824806,0.044806186109781265,-0.9980378150939941,0.18580025434494019,-0.1687990427017212,-0.004006862640380859,0.9995085567900057,-0.022384275960755415,0.02191002749612176,-0.0013609271927966416
1728404749378108000,0.98610791015625,-0.2784973680973053,-0.6128872632980347,0.9265890717506409,0.038576461374759674,0.04694125056266785,-0.998152494430542,0.11959603428840637,-0.18381252884864807,-0.012604951858520508,0.999532593932107,-0.023545614117346292,0.01921882421564339,0.0033292455548515525
1728404749388138000,0.996137939453125,-0.37633877992630005,-0.7295690774917603,0.9777529239654541,0.03225935623049736,0.04983536899089813,-0.998236358165741,0.13039922714233398,-0.23297129571437836,0.05812710523605347,0.9995253312217861,-0.025060257046090856,0.01593168780475214,0.008202341044588021
1728404749398169000,1.006169189453125,-0.5139884948730469,-0.7499563694000244,1.0968817472457886,0.02536824159324169,0.05401434749364853,-0.9982178807258606,0.2098764032125473,-0.27999696135520935,0.0807526707649231,0.9994631762513635,-0.027188262923559872,0.01232341191178466,0.013510399453399692
1728404749408199200,1.01619921875,-0.5922852158546448,-0.7436462640762329,1.233278512954712,0.0185846034437418,0.059307362884283066,-0.998066782951355,0.2537846565246582,-0.2711755931377411,0.07071387767791748,0.9993266810416649,-0.029843619365649696,0.008716669006380911,0.019484970381455156
1728404749418230000,1.02622998046875,-0.6701619029045105,-0.7718209028244019,1.3256012201309204,0.011826117523014545,0.06541988253593445,-0.9977877736091614,0.28346186876296997,-0.24081960320472717,0.07000762224197388,0.9991075738102475,-0.032871084670306666,0.005061579550511315,0.02604101008061146
1728404749428260000,1.036260009765625,-0.6763450503349304,-0.794231653213501,1.4454330205917358,0.004922996275126934,0.07210690528154373,-0.997384786605835,0.28316283226013184,-0.19977712631225586,0.08764052391052246,0.9987966092130414,-0.03613887457409971,0.00126560759367214,0.03313367119922982
1728404749438290200,1.046290283203125,-0.6722264885902405,-0.7700504660606384,1.5381309986114502,-0.001788415713235736,0.07880528271198273,-0.9968883991241455,0.25583189725875854,-0.17797207832336426,0.11413699388504028,0.9983905088424234,-0.039364017576383324,-0.0025024034564011107,0.040752141181849166
1728404749448321000,1.056321044921875,-0.6493002772331238,-0.6848664283752441,1.6369678974151611,-0.0077653732150793076,0.08553598821163177,-0.9963048100471497,0.225035160779953,-0.1841076910495758,0.11025750637054443,0.997881353052367,-0.04256639489488992,-0.005974285170053162,0.04883996407739215
1728404749458351000,1.06635107421875,-0.5743642449378967,-0.5892754793167114,1.7119678258895874,-0.012640447355806828,0.09180796891450882,-0.995696485042572,0.1835235208272934,-0.17512087523937225,0.13709968328475952,0.9972764580646879,-0.04551448197136302,-0.008954473601167611,0.05734135240903509
1728404749468382200,1.07638232421875,-0.5073515772819519,-0.519056499004364,1.7676236629486084,-0.016498779878020287,0.09745479375123978,-0.9951031804084778,0.15698634088039398,-0.1577727198600769,0.14711129665374756,0.996582022315592,-0.04813298151817938,-0.011472669453107464,0.06615143962186518
1728404749478412000,1.086412109375,-0.4287246763706207,-0.45025235414505005,1.8154513835906982,-0.019503865391016006,0.10246093571186066,-0.9945458173751831,0.14082638919353485,-0.1300792694091797,0.1745995283126831,0.9958007893753024,-0.050419579921359946,-0.013600149932887636,0.07519116365482266
1728404749488441900,1.09644189453125,-0.38729214668273926,-0.35453659296035767,1.895429253578186,-0.021583039313554764,0.10687696188688278,-0.9940379858016968,0.1301949918270111,-0.10014774650335312,0.19797170162200928,0.9949254542605187,-0.05241150072711122,-0.015298637537540172,0.08451360082041727
1728404749498473000,1.106472900390625,-0.38197940587997437,-0.2592385709285736,1.975589394569397,-0.022515663877129555,0.11111690104007721,-0.9935522675514221,0.12371184676885605,-0.08958666026592255,0.20299440622329712,0.9939300535615194,-0.054335531404400436,-0.016477941486730107,0.09423095403576924
1728404749508503000,1.1165029296875,-0.43582239747047424,-0.1620032638311386,2.0011205673217773,-0.02233665995299816,0.11557828634977341,-0.9930471777915955,0.10828931629657745,-0.09748127311468124,0.24535131454467773,0.992809662841406,-0.05640621941635015,-0.017167985595432807,0.10417666034754601
1728404749518534000,1.126533935546875,-0.5791430473327637,-0.08715832233428955,2.0108699798583984,-0.021185779944062233,0.12102349102497101,-0.9924235343933105,0.07186011224985123,-0.11502669751644135,0.2804790139198303,0.9915570939192909,-0.05901538945874995,-0.017476099861517207,0.11413397486225617
1728404749528564000,1.13656396484375,-0.7269872426986694,-0.05350528657436371,2.016838550567627,-0.019330326467752457,0.12794260680675507,-0.9915931820869446,0.02996559999883175,-0.12032836675643921,0.3325813412666321,0.990147766760014,-0.06240375173010478,-0.017583572141605948,0.12411387134021926
1728404749538594800,1.1465947265625,-0.7933872938156128,-0.04489928111433983,1.9611520767211914,-0.017179783433675766,0.13591134548187256,-0.9905720353126526,0.021406371146440506,-0.12303285300731659,0.32234394550323486,0.9886052519118859,-0.06634335840593801,-0.01767880856586765,0.13396173375722795
1728404749548626000,1.1566259765625,-0.8153016567230225,0.011162389069795609,1.8591461181640625,-0.014700566418468952,0.14425824582576752,-0.989430844783783,0.013388215564191341,-0.11007846891880035,0.30824804306030273,0.9869985406525545,-0.07051027034323495,-0.017687977079216266,0.1433510956851649
1728404749558655700,1.16665576171875,-0.7454714179039001,0.11211323738098145,1.8418939113616943,-0.011382091790437698,0.1522899866104126,-0.9882703423500061,-0.004105677828192711,-0.04363203048706055,0.2891431450843811,0.9853538096020859,-0.0746001789105881,-0.017310580049960656,0.15235888499625225
1728404749568686800,1.176686767578125,-0.636871337890625,0.2566399574279785,1.9664334058761597,-0.006607145071029663,0.15934330224990845,-0.9872011542320251,-0.0017395070753991604,0.061955034732818604,0.23578208684921265,0.9836094245502587,-0.07833321812673236,-0.016227875640755344,0.16159579927318693
1728404749578716700,1.186716552734375,-0.44773924350738525,0.3918646275997162,2.174509048461914,-0.000007575850759167224,0.16479651629924774,-0.986327588558197,0.01763138733804226,0.14483492076396942,0.2181849479675293,0.9816874000663915,-0.08144545394994515,-0.014242347456473353,0.17162093698392075
1728404749588746800,1.196746826171875,-0.3383590877056122,0.5374274253845215,2.2870895862579346,0.00832592137157917,0.168478861451149,-0.9856700897216797,0.028234053403139114,0.15850183367729187,0.22060972452163696,0.9795681918023151,-0.08387870711902566,-0.011371488271440657,0.18243138678577397
1728404749598777900,1.20677783203125,-0.44489777088165283,0.7011306285858154,2.2444565296173096,0.018371345475316048,0.17192672193050385,-0.9849384427070618,0.006469879299402237,0.1159914880990982,0.20379525423049927,0.9772951861420133,-0.08643806462286927,-0.0076972739735105405,0.19329657098657696
1728404749608807700,1.2168076171875,-0.6197862029075623,0.7993436455726624,2.1845133304595947,0.02969476394355297,0.1766747534275055,-0.9838212728500366,-0.051362328231334686,0.07031938433647156,0.21319139003753662,0.9748789995954286,-0.08987066783261673,-0.0035547587297676962,0.20376883954248387
1728404749618838800,1.2268388671875,-0.7585403919219971,0.8025476932525635,2.1758110523223877,0.04143795371055603,0.18276846408843994,-0.9822823405265808,-0.081721231341362,0.03901815414428711,0.2410714030265808,0.9722920113428912,-0.09411948007903005,0.0005953127723859958,0.21398502797749852
1728404749628868900,1.236868896484375,-0.7206758856773376,0.8178851008415222,2.2614126205444336,0.05356698855757713,0.18896934390068054,-0.9805208444595337,-0.0654994323849678,0.012431532144546509,0.26743191480636597,0.9694879575705381,-0.09857189817075425,0.004811113223626499,0.22439638917107313
1728404749638899000,1.24689892578125,-0.6777441501617432,0.8390734791755676,2.3095479011535645,0.06611393392086029,0.19450925290584564,-0.978670060634613,-0.03790050745010376,-0.0013176053762435913,0.2972431182861328,0.9664631314942682,-0.10286256717005461,0.009179140750075263,0.23512601718281975
1728404749648929800,1.2569296875,-0.6219321489334106,0.915838897228241,2.2365119457244873,0.07917596399784088,0.19913780689239502,-0.9767677783966064,-0.04939088225364685,-0.0032606124877929688,0.3298714756965637,0.9633208852325619,-0.10688745712270319,0.013826691994950296,0.24575794467592524
1728404749658960000,1.2669599609375,-0.6618074178695679,1.0891857147216797,2.122792959213257,0.09329518675804138,0.20360085368156433,-0.97459876537323,-0.10527339577674866,0.020306751132011414,0.3064621686935425,0.9601509687497153,-0.11108487629333894,0.01899419273736639,0.25575308184887763
1728404749668991000,1.276990966796875,-0.6170225143432617,1.2799173593521118,2.116291046142578,0.1092444583773613,0.20771212875843048,-0.9720706343650818,-0.17450636625289917,0.07544533908367157,0.27422523498535156,0.9568936420176785,-0.1154837716809755,0.025063512737687192,0.2653109727764967
1728404749679020800,1.287020751953125,-0.6045922040939331,1.4596469402313232,2.166703939437866,0.12704779207706451,0.2110893577337265,-0.9691749811172485,-0.1909211426973343,0.10568322241306305,0.2593514323234558,0.9534407108404241,-0.11993819976770831,0.032052096430779956,0.2748425590423704
1728404749689051000,1.29705078125,-0.6374592781066895,1.5952332019805908,2.192643404006958,0.14657536149024963,0.21409307420253754,-0.9657534956932068,-0.18414254486560822,0.09738472104072571,0.2455233931541443,0.9497249776788929,-0.12464414232761012,0.03983826300691732,0.28442801187800454
1728404749699082000,1.30708203125,-0.6464111804962158,1.6693857908248901,2.182643175125122,0.16709303855895996,0.2168881744146347,-0.9617897272109985,-0.19071367383003235,0.08505287766456604,0.25246965885162354,0.9457771096801979,-0.12959754887858616,0.0480585160577121,0.29393975194713295
1728404749709111800,1.31711181640625,-0.6102870106697083,1.726004958152771,2.1353187561035156,0.18816272914409637,0.21906177699565887,-0.9573957920074463,-0.19473929703235626,0.07192347943782806,0.26751548051834106,0.9416791501122133,-0.13453556167767877,0.05658864132160272,0.3032136440516637
1728404749719143000,1.327142822265625,-0.6041894555091858,1.8127721548080444,2.0547406673431396,0.20971514284610748,0.2206854671239853,-0.952532172203064,-0.18525533378124237,0.06927743554115295,0.24925458431243896,0.9374874118870137,-0.13947746894993415,0.06542140017371416,0.31206354971917527
1728404749729173000,1.337173095703125,-0.6209961175918579,1.9007291793823242,1.9806016683578491,0.23190665245056152,0.22202983498573303,-0.947059690952301,-0.1760595291852951,0.08744904398918152,0.2289048433303833,0.9332024526616025,-0.14457911629985792,0.0746125600020987,0.3204107647416691
1728404749739202800,1.347202880859375,-0.6775878071784973,1.9432334899902344,1.9230613708496094,0.25450822710990906,0.22339631617069244,-0.9409142732620239,-0.16141441464424133,0.1096573919057846,0.2273980975151062,0.9287847289845078,-0.14995807988248636,0.08399668101121922,0.3283536478280286
1728404749749233700,1.357233642578125,-0.7407005429267883,1.9382869005203247,1.8935117721557617,0.2770639657974243,0.22496464848518372,-0.9341447949409485,-0.1365000307559967,0.11963999271392822,0.229936420917511,0.9241976845583063,-0.15563455248897637,0.0933032128406923,0.3360524353130923
1728404749759263700,1.367263671875,-0.8483977317810059,1.944752812385559,1.84648597240448,0.2994266450405121,0.2269364893436432,-0.9267381429672241,-0.11392557621002197,0.12322233617305756,0.21709764003753662,0.9194227447618935,-0.16168283260494415,0.10241877041882366,0.343556451062934
1728404749769294800,1.377294921875,-0.9361556768417358,1.9391030073165894,1.761317491531372,0.3215290606021881,0.22959719598293304,-0.9186425805091858,-0.10721936821937561,0.1186237782239914,0.19635260105133057,0.914496011851235,-0.16821202821960268,0.11128077508206749,0.3507401221645948
1728404749779324700,1.38732470703125,-1.0253371000289917,1.9368553161621094,1.6333448886871338,0.3433045744895935,0.23292677104473114,-0.9098830223083496,-0.1118287742137909,0.1259600967168808,0.16595607995986938,0.9095063233258766,-0.1751666586953308,0.119896345210584,0.3574070624598374
1728404749789354800,1.397354736328125,-1.0631495714187622,1.9657074213027954,1.5696882009506226,0.36471793055534363,0.23678188025951385,-0.9005082845687866,-0.10727167129516602,0.1687358319759369,0.0955004096031189,0.9044711812395836,-0.18245873215671413,0.12827575467256883,0.3635739667991398
1728404749799385900,1.4073857421875,-1.0356379747390747,1.9972351789474487,1.600904941558838,0.386324018239975,0.24028755724430084,-0.8905143141746521,-0.08708387613296509,0.2323383390903473,0.0285300612449646,0.8992613265853655,-0.1898199460589654,0.13678902377080418,0.36957614114379533
1728404749809416000,1.417416015625,-0.9996070265769958,1.9939730167388916,1.647510051727295,0.4079892039299011,0.24281251430511475,-0.8801062107086182,-0.03529331088066101,0.2824256718158722,-0.04308098554611206,0.893826766812648,-0.19695750677677512,0.14544634852148078,0.3756686784454646
1728404749819446800,1.42744677734375,-0.993474543094635,1.9548671245574951,1.6535992622375488,0.42937764525413513,0.24460212886333466,-0.8693702816963196,0.0007676482200622559,0.2954676151275635,-0.07533180713653564,0.8882005614460481,-0.2039188512877201,0.1540518116906859,0.3818181417860512
1728404749829476900,1.437476806640625,-0.998558759689331,1.8900383710861206,1.5967937707901,0.45006421208381653,0.24604257941246033,-0.858431875705719,0.0026335716247558594,0.2818048596382141,-0.07375800609588623,0.8824944079158283,-0.21076045452637834,0.1623702052363007,0.3878398523704168
1728404749839507000,1.4475068359375,-1.0343568325042725,1.8471218347549438,1.490235447883606,0.46985581517219543,0.24756456911563873,-0.8473177552223206,-0.021491557359695435,0.2401064783334732,-0.03132903575897217,0.8768200835417697,-0.21759102469201508,0.17028000316495429,0.3935041811053017
1728404749849537800,1.457537841796875,-1.0461124181747437,1.803293228149414,1.370316743850708,0.4888467490673065,0.24950134754180908,-0.8359294533729553,-0.05050748586654663,0.19201186299324036,-0.010017812252044678,0.8712263534357078,-0.22454870521080278,0.17780090768640675,0.3986597952362587
1728404749859567900,1.46756787109375,-1.0015285015106201,1.7623010873794556,1.2512412071228027,0.5069755911827087,0.25148794054985046,-0.8244572281837463,-0.06630170345306396,0.15578454732894897,-0.005483567714691162,0.8657948461429139,-0.23140351293134354,0.18499678317173632,0.40327190341329644
1728404749869599000,1.477598876953125,-0.9867875576019287,1.755885362625122,1.1166701316833496,0.5243946313858032,0.2535085380077362,-0.812861442565918,-0.05369144678115845,0.15162771940231323,-0.024403512477874756,0.860558947433712,-0.23814803196169626,0.19197602515977985,0.4072703539893422
1728404749879628800,1.48762890625,-0.9980316758155823,1.7906545400619507,1.0137578248977661,0.5414649248123169,0.2558300793170929,-0.8008537292480469,-0.038535237312316895,0.19158825278282166,-0.048480868339538574,0.8554451936545946,-0.24499813425528497,0.19886939206103962,0.41065864373233235
1728404749889659000,1.497658935546875,-1.0270330905914307,1.8621562719345093,0.9739499688148499,0.5585430860519409,0.25846022367477417,-0.7881802320480347,-0.028315365314483643,0.23554322123527527,-0.07397186756134033,0.8502823608210451,-0.25210437872522273,0.20579911998035338,0.4136547827463932
1728404749899690000,1.50768994140625,-1.0372151136398315,1.90157949924469,0.9413885474205017,0.575885534286499,0.2610807716846466,-0.774721086025238,-0.009189367294311523,0.26234161853790283,-0.08700370788574219,0.8449785403881108,-0.2594179897197683,0.2129360593181016,0.4163796726964474
1728404749909720000,1.517719970703125,-1.0034428834915161,1.816227674484253,0.9439806342124939,0.5927770137786865,0.26341715455055237,-0.7610695958137512,0.009563744068145752,0.29459691047668457,-0.105995774269104,0.8396160697038508,-0.26663117315993,0.2199386980341158,0.41902240884507175
1728404749919751000,1.5277509765625,-1.0229116678237915,1.6161625385284424,0.8910678625106812,0.608203649520874,0.26551252603530884,-0.7480584383010864,0.0326196551322937,0.3035488724708557,-0.1127660870552063,0.8343947905061277,-0.2734519509998095,0.22626272054410707,0.42168067576722534
1728404749929780700,1.53778076171875,-1.090400218963623,1.479962944984436,0.8626255393028259,0.622006356716156,0.2679648995399475,-0.7357329726219177,0.04931938648223877,0.29120883345603943,-0.117218017578125,0.8293005202209067,-0.28011888333210444,0.23166123841503206,0.4244140261298768
1728404749939810800,1.547810791015625,-1.174473524093628,1.4878003597259521,0.8330383896827698,0.6350986957550049,0.27094799280166626,-0.7233511805534363,0.029497921466827393,0.2501855790615082,-0.15351033210754395,0.8241458947030292,-0.2869900477562298,0.2365610326083482,0.42715264414945525
1728404749949841700,1.557841552734375,-1.1523274183273315,1.5594233274459839,0.8262108564376831,0.6483210325241089,0.27402937412261963,-0.7103434801101685,-0.007436573505401611,0.2012515664100647,-0.19186294078826904,0.8188318586596961,-0.29409342716273945,0.2415312132535525,0.4297514210065093
1728404749959871700,1.567871826171875,-1.009584665298462,1.610000491142273,0.7864940166473389,0.6617560386657715,0.27644088864326477,-0.6968926787376404,-0.040112972259521484,0.18910491466522217,-0.18952077627182007,0.8135180723768324,-0.3010069418286842,0.2468774584757545,0.43201248020270167
1728404749969902800,1.57790283203125,-0.6887416243553162,1.6386762857437134,0.7687789797782898,0.6751194596290588,0.27716949582099915,-0.6836599111557007,-0.05146217346191406,0.2244938313961029,-0.19022607803344727,0.808501309010049,-0.30703221569480904,0.2527869880742866,0.43376915638448743
1728404749979932700,1.5879326171875,-0.37236154079437256,1.7093485593795776,0.8244541883468628,0.68865966796875,0.27534809708595276,-0.670769214630127,-0.049056947231292725,0.2720000743865967,-0.19432777166366577,0.8038163613235872,-0.31178875583321924,0.2596211979153637,0.4350448020338003
1728404749989963800,1.5979638671875,-0.16854529082775116,1.7831636667251587,0.9188582301139832,0.7027140259742737,0.270990788936615,-0.6578428149223328,-0.04124540090560913,0.27478572726249695,-0.17940688133239746,0.799182457037668,-0.31550725269047986,0.26745799673703324,0.4361524738120853
1728404749999993900,1.607993896484375,-0.13417986035346985,1.7717968225479126,0.9049006104469299,0.7168827056884766,0.2653602063655853,-0.6447195410728455,-0.04789155721664429,0.2165430188179016,-0.13407373428344727,0.7944955292092795,-0.3187429398620497,0.2757592653120489,0.4371919695222455
1728404750010024000,1.61802392578125,-0.1839524805545807,1.7038906812667847,0.8084778785705566,0.7302564978599548,0.26013636589050293,-0.6317077875137329,-0.08038461208343506,0.12404957413673401,-0.045980751514434814,0.7899279280834491,-0.3219701463147832,0.28369233239044767,0.43802743917996567
1728404750020054800,1.6280546875,-0.2648344933986664,1.6086602210998535,0.7381491661071777,0.7426465153694153,0.255852609872818,-0.6188827157020569,-0.11154294013977051,0.04180076718330383,0.05960237979888916,0.7854820702504056,-0.3253898933428023,0.2909983669592877,0.4387022054053574
1728404750030084900,1.6380849609375,-0.3074573278427124,1.486915946006775,0.6868556141853333,0.7539655566215515,0.25227418541908264,-0.6065425872802734,-0.09382444620132446,-0.028854846954345703,0.10370457172393799,0.7811587431037881,-0.32887399427836567,0.29760812682784865,0.4393888726588112
1728404750040115700,1.64811572265625,-0.3344152867794037,1.3204784393310547,0.6330954432487488,0.76412034034729,0.2491828203201294,-0.5950027704238892,-0.03952604532241821,-0.07453054189682007,0.09501808881759644,0.7770492367799934,-0.33223991169646183,0.30350495614838796,0.4401093217504305
1728404750050145800,1.658145751953125,-0.3411690890789032,1.0381112098693848,0.6018629670143127,0.7726402282714844,0.24647530913352966,-0.5850446224212646,0.0222054123878479,-0.06700125336647034,0.07552319765090942,0.7733156045325511,-0.33523275965730814,0.3083775109255515,0.441027855525342
1728404750060176000,1.66817578125,-0.40014469623565674,0.8294669985771179,0.6268708109855652,0.7795238494873047,0.24381153285503387,-0.5769737362861633,0.08648878335952759,-0.026861920952796936,0.058556437492370605,0.7699087346039962,-0.3377244240472411,0.312178373863257,0.4424112311594878
1728404750070207000,1.67820703125,-0.5570798516273499,0.7077008485794067,0.6174019575119019,0.7854378819465637,0.2416410595178604,-0.5698218941688538,0.13263767957687378,-0.015215769410133362,-0.00805884599685669,0.7665099786809408,-0.34027085723345646,0.31512664888895536,0.4442673295475392
1728404750080236800,1.68823681640625,-0.7195494771003723,0.5994683504104614,0.5445136427879333,0.7905451655387878,0.24064719676971436,-0.5631406307220459,0.12276971340179443,-0.020859450101852417,-0.037658870220184326,0.7630822367301915,-0.3432420045901919,0.3171980842980446,0.4464033193122067
1728404750090268000,1.698267822265625,-0.8087466955184937,0.5191221833229065,0.4903033971786499,0.794879674911499,0.2408679872751236,-0.5569102764129639,0.09493666887283325,-0.019035562872886658,-0.07669556140899658,0.7597228064928504,-0.3465880359558184,0.3184675810207717,0.448638573440747
1728404750100298000,1.708298095703125,-0.7974913120269775,0.4747518301010132,0.5270459651947021,0.798839807510376,0.24135448038578033,-0.551002025604248,0.09315866231918335,0.011315986514091492,-0.12860918045043945,0.7563854246824537,-0.3499783228041159,0.3193965796697501,0.4509793469883637
1728404750110327800,1.718327880859375,-0.7144473195075989,0.4343586564064026,0.5764726400375366,0.802679717540741,0.24105900526046753,-0.545523464679718,0.11535006761550903,0.06263680756092072,-0.16741281747817993,0.7530614759466842,-0.35298438007020616,0.3203752312766557,0.45349771492613217
1728404750120359000,1.72835888671875,-0.5776596069335938,0.3877142071723938,0.5394871830940247,0.8062928915023804,0.24003304541110992,-0.5406256914138794,0.13633418083190918,0.1070435494184494,-0.17475205659866333,0.7499507814692462,-0.3554652822956894,0.3214523266633501,0.4559461357475217
1728404750130388700,1.738388671875,-0.4839293956756592,0.4035376310348511,0.43049466609954834,0.8095784783363342,0.2389436662197113,-0.5361798405647278,0.12506818771362305,0.11979061365127563,-0.19079458713531494,0.7472640246217815,-0.35755735642346015,0.322587710528294,0.4579155105284035
1728404750140419800,1.748419921875,-0.43692395091056824,0.4690718948841095,0.33659425377845764,0.8128084540367126,0.23830057680606842,-0.5315595269203186,0.08829939365386963,0.1011008471250534,-0.21715867519378662,0.7448588222367614,-0.3596535876729684,0.32383567550020903,0.45930968520163806
1728404750150449700,1.75844970703125,-0.4555943012237549,0.5644465684890747,0.25640276074409485,0.8162679076194763,0.23820644617080688,-0.5262742638587952,0.05694693326950073,0.07476674020290375,-0.19770938158035278,0.7425314154339813,-0.3620073247521952,0.3252899614889055,0.4602004565072277
1728404750160479700,1.768479736328125,-0.5606688261032104,0.5918835401535034,0.16080404818058014,0.8198351860046387,0.23915113508701324,-0.5202664732933044,0.04600965976715088,0.032501235604286194,-0.18804645538330078,0.7401706853676818,-0.36489844969388957,0.3266739692213405,0.4607393951176742
1728404750170510800,1.7785107421875,-0.7147942185401917,0.6218534708023071,0.08748189359903336,0.8232758045196533,0.24141643941402435,-0.5137462615966797,0.04139411449432373,-0.015128448605537415,-0.14726436138153076,0.7377218906706143,-0.36844628811003777,0.3276800463281583,0.4611286918473132
1728404750180541000,1.788541015625,-0.9348999261856079,0.5561079978942871,-0.04733557626605034,0.8263645768165588,0.24544183909893036,-0.5068333148956299,0.05455595254898071,-0.07475687563419342,-0.09669744968414307,0.7351689214919283,-0.37281735461341975,0.3280100139236158,0.461457902154378
1728404750190571800,1.79857177734375,-1.0713099241256714,0.383897602558136,-0.20804136991500854,0.8284432291984558,0.2516443431377411,-0.5003568530082703,0.06563031673431396,-0.11208727955818176,-0.046365439891815186,0.7327741982409914,-0.3778692749722917,0.32716413442475994,0.4617580815704413
1728404750200601900,1.808601806640625,-0.9332510232925415,0.21395012736320496,-0.25197634100914,0.8292868733406067,0.25869548320770264,-0.49533846974372864,0.07511693239212036,-0.06713646650314331,0.0162888765335083,0.7309091741888173,-0.3826630459330229,0.3254224228240791,0.46199702527691955
1728404750210632000,1.8186318359375,-0.6219647526741028,0.10568995773792267,-0.24900265038013458,0.8293944597244263,0.2646692991256714,-0.4919911026954651,0.11396503448486328,0.03815677762031555,-0.03361302614212036,0.729734430891593,-0.38629839442431935,0.32369429677578715,0.4620427140551194
1728404750220662800,1.828662841796875,-0.2982480823993683,0.14327190816402435,-0.11785128712654114,0.8294651508331299,0.26852336525917053,-0.48977842926979065,0.1475704312324524,0.14991852641105652,-0.1182231605052948,0.7290955501093318,-0.38856167192230995,0.32269274921989305,0.4618538733609632
1728404750230692900,1.83869287109375,-0.1265968382358551,0.15579983592033386,-0.10839786380529404,0.8299478888511658,0.27025964856147766,-0.4880024492740631,0.134590744972229,0.20648610591888428,-0.17047524452209473,0.7287009197142581,-0.38976547010856416,0.3226168789811935,0.46151532076503893
1728404750240724000,1.848723876953125,-0.2182130515575409,0.23176836967468262,-0.21982824802398682,0.8304440975189209,0.27241694927215576,-0.4859546720981598,0.10163915157318115,0.10711508989334106,-0.20528364181518555,0.7284486046090228,-0.391070748870296,0.3226241468422763,0.4608039189211857
1728404750250753800,1.85875390625,-0.47592630982398987,0.28218504786491394,-0.28781554102897644,0.8309764266014099,0.2761929929256439,-0.48290354013442993,0.00018519163131713867,-0.04511374235153198,-0.15938454866409302,0.7279725549157681,-0.39330053003463467,0.3222777110981222,0.45989990788316343
1728404750260783900,1.868783935546875,-0.8683332204818726,0.3450998365879059,-0.2865697145462036,0.8316968679428101,0.28182658553123474,-0.47838714718818665,-0.04359561204910278,-0.1691402792930603,-0.0799013078212738,0.7268087815418084,-0.3969324358441915,0.3213270510827735,0.4592849656407151
1728404750270815000,1.87881494140625,-1.4197494983673096,0.3859441578388214,-0.2765980362892151,0.8326041102409363,0.2895643711090088,-0.472147136926651,-0.037331223487854004,-0.24317753314971924,0.027612954378128052,0.724614506477998,-0.40232647122505255,0.31946806024107566,0.45935548130002585
1728404750280844800,1.8888447265625,-2.1520891189575195,0.48312634229660034,-0.259864866733551,0.8338727951049805,0.30013030767440796,-0.46322593092918396,-0.030650019645690918,-0.29605603218078613,0.14102143049240112,0.7209094659266541,-0.41020484238259025,0.31641590730143043,0.460328946669234
1728404750290876000,1.8988759765625,-2.9305479526519775,0.4395231008529663,-0.2656708359718323,0.8352208137512207,0.31399598717689514,-0.4514565169811249,-0.03627049922943115,-0.3418278694152832,0.21221405267715454,0.7154693622941718,-0.4208716986011594,0.31167091504565686,0.46241983624962135
1728404750300906000,1.908906005859375,-4.020677089691162,0.1956033855676651,-0.5170229077339172,0.8356194496154785,0.3320634067058563,-0.4375778138637543,-0.032762885093688965,-0.4009872078895569,0.2234971523284912,0.7084464518240158,-0.43434971865507366,0.30422263081713413,0.4657175112372711
1728404750310935800,1.918935791015625,-4.303069591522217,0.22672130167484283,-0.448340505361557,0.8349097371101379,0.35409677028656006,-0.421356737613678,-0.01763361692428589,-0.41160696744918823,0.15101689100265503,0.6999790847284117,-0.45034226093510177,0.2941317342480157,0.4697955670190996
1728404750320966700,1.928966552734375,-4.6499738693237305,0.10304570943117142,-0.3353457748889923,0.8340547680854797,0.37600237131118774,-0.40370193123817444,-0.013101160526275635,-0.31154900789260864,0.0973970890045166,0.6904221323771984,-0.46689052542761056,0.28312943625547093,0.4745192615442434
1728404750330996700,1.938996826171875,-4.897740840911865,0.053505320101976395,-0.17186392843723297,0.8333616852760315,0.3972077965736389,-0.3843623101711273,0.08520221710205078,-0.262228399515152,-0.08060333132743835,0.6794841616962504,-0.48396401859016197,0.271288918167053,0.4800859325377256
1728404750341027800,1.94902783203125,-5.094379901885986,-0.058237988501787186,-0.05241608992218971,0.8329519033432007,0.41679245233535767,-0.3639717996120453,0.09646111726760864,-0.15751489996910095,-0.04983118176460266,0.6674501389962797,-0.5009340784027241,0.25899643370499503,0.4863090047092203
1728404750351057700,1.9590576171875,-5.348255157470703,-0.12012207508087158,-0.05005466565489769,0.8323652148246765,0.4357976019382477,-0.34241628646850586,0.08908271789550781,-0.14641442894935608,-0.0597899854183197,0.6543159787071692,-0.5181183010135816,0.24565277626749912,0.4930304047308882
1728404750361088800,1.9690888671875,-5.500427722930908,-0.0997060164809227,-0.0704512819647789,0.8317097425460815,0.45434242486953735,-0.31911155581474304,0.04289364814758301,-0.14017906785011292,0.004170358180999756,0.640259901983998,-0.5355410642976836,0.23160307402512675,0.49962312081570415
1728404750371118800,1.979118896484375,-5.440247058868408,-0.03630638122558594,-0.04591025412082672,0.8312011957168579,0.471721351146698,-0.2942512631416321,0.0025086402893066406,-0.11881592869758606,0.019867897033691406,0.6255308849803966,-0.5528295383831331,0.21737955242054793,0.5058032229715373
1728404750381149000,1.98914892578125,-5.201169967651367,-0.030757151544094086,-0.015378177165985107,0.8309752941131592,0.4870409071445465,-0.26883333921432495,0.0001099705696105957,-0.07685402035713196,0.017261892557144165,0.6106485330712329,-0.569316340101556,0.2036227705411123,0.5113953080869055
1728404750391179800,1.9991796875,-4.685989856719971,-0.11390860378742218,0.06283193826675415,0.8308901190757751,0.49965032935142517,-0.24489015340805054,0.014645159244537354,0.0005176365375518799,0.006532803177833557,0.5962819692560514,-0.5841352779441052,0.1906329009721953,0.516616812994446
1728404750401209900,2.0092099609375,-4.044531345367432,-0.1033366471529007,0.07512881606817245,0.8310106992721558,0.5092777609825134,-0.22373561561107635,0.038557231426239014,0.08067291975021362,0.011180892586708069,0.5833033878095889,-0.5966702518065674,0.179211615423355,0.5211766555438848
1728404750411240000,2.019239990234375,-3.6104252338409424,-0.11802814155817032,0.11640115827322006,0.8312386870384216,0.5167186260223389,-0.20504748821258545,0.06913679838180542,0.12733978033065796,-0.10200488567352295,0.571636338457863,-0.6073443356840235,0.16914229292590174,0.525124608680548
1728404750421270800,2.029270751953125,-3.2103121280670166,-0.07268942147493362,0.09658617526292801,0.8316652774810791,0.5224600434303284,-0.1880657970905304,0.06507861614227295,0.17024332284927368,-0.08642435073852539,0.5609344945284829,-0.6166816723963621,0.16022114435621593,0.5285694223840683
1728404750431300900,2.03930078125,-2.921964406967163,-0.1271887719631195,0.06210675835609436,0.8318606019020081,0.5273975133895874,-0.17280080914497375,0.0911131501197815,0.16104865074157715,-0.06259632110595703,0.5513132211243231,-0.6248846508456899,0.15204858485937714,0.5314643423912229
1728404750441332000,2.04933203125,-2.7092816829681396,-0.20565588772296906,0.15281829237937927,0.8321541547775269,0.5312035083770752,-0.1591927707195282,0.07960426807403564,0.11906510591506958,-0.010393187403678894,0.542282531658284,-0.6320958393194783,0.14442460725736161,0.5343464197819969
1728404750451361800,2.05936181640625,-2.4912168979644775,-0.33222824335098267,0.24161580204963684,0.8327848315238953,0.5335618257522583,-0.14758478105068207,0.08358174562454224,0.07866662740707397,0.09601034224033356,0.5336481055834205,-0.638243102345003,0.13730749936135025,0.53759850248429
1728404750461393000,2.069392822265625,-2.1831719875335693,-0.30817776918411255,0.31361278891563416,0.8337990045547485,0.5346016883850098,-0.13776999711990356,0.07858514785766602,0.07419365644454956,0.15800338983535767,0.525588941039053,-0.6433947796383621,0.13098914886151228,0.5409634289880446
1728404750471423000,2.079423095703125,-1.691345453262329,-0.17034994065761566,0.3881080448627472,0.8353393077850342,0.5342861413955688,-0.12940919399261475,0.0771058201789856,0.12614482641220093,0.06056179106235504,0.5184870422563009,-0.6475941077677019,0.12616369375614053,0.5439447371104807
1728404750481453000,2.089453125,-1.133974552154541,-0.018400615081191063,0.44767311215400696,0.8374952673912048,0.5325153470039368,-0.12259459495544434,0.07787960767745972,0.18536502122879028,-0.04403114318847656,0.51282725517548,-0.6507300213244452,0.12350361548779952,0.5461736624804361
1728404750491484000,2.09948388671875,-0.8691980242729187,-0.11765056103467941,0.4581899344921112,0.8398330807685852,0.5299127697944641,-0.1177847757935524,0.08191996812820435,0.19927436113357544,-0.09068053960800171,0.5083959529337816,-0.652833502446043,0.12213120301740324,0.5481114578628057
1728404750501513700,2.109513671875,-0.7182396650314331,-0.1343882530927658,0.4972606301307678,0.8422133922576904,0.5267975330352783,-0.11472325026988983,0.08636045455932617,0.1905030608177185,0.005607888102531433,0.5045714107417102,-0.654180627967237,0.12118614539036573,0.5502450185826485
1728404750511544800,2.119544921875,-0.6706666946411133,-0.13166990876197815,0.5197699666023254,0.8447504043579102,0.5232444405555725,-0.11230488121509552,0.1129828691482544,0.15477997064590454,0.06103557348251343,0.5009894461782045,-0.6552091907640749,0.12061706759063738,0.5524148873372641
1728404750521574700,2.12957470703125,-0.6249298453330994,-0.048088736832141876,0.45583009719848633,0.8472538590431213,0.5197736620903015,-0.1095287948846817,0.10349082946777344,0.06739991903305054,0.1289992332458496,0.4974770729421135,-0.6563444038670954,0.12019828362515794,0.5543294793917701
1728404750531604700,2.139604736328125,-0.43990960717201233,-0.1410418003797531,0.2964015603065491,0.8491369485855103,0.5171198844909668,-0.10748902708292007,0.0791316032409668,-0.028823256492614746,0.14301174879074097,0.4947327685256885,-0.6571984575153306,0.11977343371151937,0.5558634843185759
1728404750541636400,2.14963623046875,-0.3308696746826172,-0.31628602743148804,0.11589542031288147,0.8499519228935242,0.5157848000526428,-0.10746284574270248,0.054116249084472656,-0.078513503074646,0.12218783795833588,0.49302427462532356,-0.6573853280915649,0.11879860801925787,0.557367741163214
1728404750551666400,2.15966650390625,-0.2161187380552292,-0.3706750273704529,-0.046241018921136856,0.8497586846351624,0.5157634019851685,-0.1090807095170021,0.0348849892616272,-0.012711524963378906,0.128429114818573,0.4922357575557113,-0.6570416903467498,0.11728539356738436,0.5587884132152157
1728404750561697500,2.169697509765625,-0.11123626679182053,-0.20906297862529755,-0.00521102687343955,0.8492303490638733,0.5162831544876099,-0.11072354763746262,0.029187679290771484,0.10864067077636719,0.041113197803497314,0.4919845871570115,-0.6566481715257452,0.11598019384797145,0.5597437604495819
1728404750571727600,2.1797275390625,-0.008770212531089783,-0.08490811288356781,0.11507490277290344,0.8493767380714417,0.5158513784408569,-0.11160915344953537,0.00513070821762085,0.19699352979660034,-0.05378060042858124,0.49170832852551094,-0.6563669016241013,0.11566293484723533,0.5603816099113905
1728404750581757400,2.18975732421875,-0.13584107160568237,-0.04648881405591965,0.047992538660764694,0.8498173356056213,0.5150577425956726,-0.11192156374454498,0.0002804398536682129,0.17717260122299194,-0.05665731430053711,0.49132367065067273,-0.6562395275292605,0.11571042148366278,0.5608583137098087
1728404750591788500,2.19978857421875,-0.7910853028297424,-0.04565807059407234,-0.13515038788318634,0.8495512008666992,0.5159163475036621,-0.10996877402067184,-0.02406597137451172,0.09138351678848267,-0.04280196875333786,0.4900416002933169,-0.6572360681661208,0.1142644468266847,0.5611093129141734
1728404750601818600,2.209818603515625,-1.5795016288757324,-0.160949245095253,-0.24549873173236847,0.8484026789665222,0.5189025402069092,-0.10465768724679947,-0.04720938205718994,0.07966935634613037,-0.010469608008861542,0.4866779235944757,-0.6599880510062271,0.10994057752373917,0.561670305694931
1728404750611849500,2.219849365234375,-2.0449655055999756,-0.08922728151082993,-0.1504340022802353,0.8471844792366028,0.5225242376327515,-0.09616199880838394,-0.009873569011688232,0.08592009544372559,0.07428115606307983,0.4812683555053006,-0.6641877557515422,0.10379608272941795,0.5625494567069638
1728404750621879600,2.229879638671875,-2.373044490814209,-0.119466133415699,-0.042746152728796005,0.8466240167617798,0.5253095626831055,-0.08531083911657333,0.05105060338973999,0.04697144031524658,-0.024063944816589355,0.47415046626780694,-0.6692801580699567,0.0969981977046873,0.5637703080763556
1728404750631909600,2.23990966796875,-2.478285789489746,-0.28562748432159424,-0.0955587700009346,0.8461552858352661,0.527769148349762,-0.07403656095266342,0.08289146423339844,-0.04180711507797241,-0.013655424118041992,0.4661693561031106,-0.6745266168418974,0.08941791068758972,0.5654243204592357
1728404750641940500,2.2499404296875,-2.105661392211914,-0.5006644129753113,-0.21247605979442596,0.8450524210929871,0.5307155847549438,-0.06502062827348709,0.10697406530380249,-0.1100611686706543,-0.016522109508514404,0.4588457782014332,-0.6788790376885075,0.08131997606326286,0.5674249288894516
1728404750651970600,2.259970458984375,-1.244902491569519,-0.2855508625507355,-0.25912079215049744,0.8435233235359192,0.5337746739387512,-0.05961015447974205,0.11901646852493286,-0.10956496000289917,-0.13800615072250366,0.4539491429953726,-0.6816206084774847,0.07475472528245769,0.5689775546614337
1728404750662001700,2.270001708984375,-0.23250816762447357,0.03954092785716057,-0.18074770271778107,0.8422703146934509,0.5360777974128723,-0.05658244714140892,0.10267603397369385,-0.033559978008270264,-0.3160979747772217,0.45212646359538616,-0.6830602632597564,0.07167603070671248,0.569098453882629
1728404750672031700,2.28003173828125,0.3021549582481384,0.13854777812957764,-0.09443864226341248,0.8415692448616028,0.5372247099876404,-0.056135404855012894,0.010832607746124268,0.10916823148727417,-0.2611556053161621,0.45269899061749214,-0.6832343485566758,0.07157599767307847,0.5684466089469736
1728404750682061300,2.290061279296875,0.8359813690185547,0.18563300371170044,-0.013731544837355614,0.841389536857605,0.5373332500457764,-0.05776549130678177,-0.02277064323425293,0.19548547267913818,-0.15500283241271973,0.45468234423237963,-0.6824494558194975,0.07334844980794647,0.567579783915993
1728404750692092700,2.3000927734375,1.1674128770828247,0.2973378598690033,-0.05731843784451485,0.8413674235343933,0.5369613170623779,-0.06143137067556381,0.00398486852645874,0.10937058925628662,-0.1742250919342041,0.4582610344267532,-0.6807290630852667,0.07676104264524865,0.5663150661934332
1728404750702122500,2.31012255859375,0.8120883107185364,0.41764456033706665,-0.09241863340139389,0.8411387205123901,0.537039041519165,-0.06383669376373291,0.025224924087524414,-0.03893101215362549,-0.260748028755188,0.4618325350953979,-0.6794478371248638,0.08020156796978631,0.5644725687737037
1728404750712153300,2.3201533203125,0.1672566831111908,0.3002551794052124,-0.004595836624503136,0.8411031365394592,0.537150502204895,-0.06336729228496552,0.0521618127822876,-0.023814141750335693,-0.1899588704109192,0.4635441372637141,-0.6793658458076193,0.08233104634821307,0.5628594831653466
1728404750722183400,2.330183349609375,-0.5970430970191956,0.1756085902452469,0.11310602724552155,0.8415471911430359,0.5368083119392395,-0.06029722839593887,0.11878019571304321,-0.00014126300811767578,-0.11417151242494583,0.46252495184631864,-0.6804860378672274,0.08240229045508818,0.5623340634323837
1728404750732213500,2.340213623046875,-1.0166031122207642,0.2718258500099182,0.15590542554855347,0.8424267172813416,0.5361019968986511,-0.05396578460931778,0.157451331615448,-0.04516559839248657,-0.14050722122192383,0.4592039098299426,-0.6829696329751047,0.08105300055083615,0.5622409612628332
1728404750742244600,2.35024462890625,-1.2759002447128296,0.24272148311138153,0.10941328853368759,0.8433198928833008,0.5354821681976318,-0.04550697281956673,0.10824894905090332,-0.07043987512588501,-0.1616002917289734,0.4547585619207222,-0.6863070937401025,0.07892456875305609,0.5620928540390269
1728404750752274400,2.3602744140625,-1.3419828414916992,0.12289653718471527,-0.018312182277441025,0.843621551990509,0.535671055316925,-0.036871615797281265,0.023764371871948242,-0.03162741661071777,-0.08805185556411743,0.44999630871718366,-0.6898024682866613,0.07574131055974268,0.5620847628551733
1728404750762305500,2.370305419921875,-1.212124228477478,0.06880640238523483,-0.05169011279940605,0.8434305191040039,0.536442756652832,-0.02923228032886982,-0.025788187980651855,0.03864586353302002,0.0037351250648498535,0.44561014955446643,-0.6929485452730859,0.07215381929726636,0.5621814011345058
1728404750772335600,2.380335693359375,-0.7358887195587158,0.21957844495773315,0.007661628071218729,0.8433108329772949,0.5369448065757751,-0.022743307054042816,-0.028125286102294922,0.11457502841949463,-0.02617609314620495,0.44215186418602437,-0.6955546206774942,0.06951342347343242,0.5620262208727939
1728404750782365400,2.390365478515625,0.013185221701860428,0.42416301369667053,0.09994149208068848,0.8436678051948547,0.5365625023841858,-0.01804068498313427,-0.021615803241729736,0.18646001815795898,-0.05857342481613159,0.44063338772939276,-0.6972524636521634,0.06941656522316104,0.5611262446586612
1728404750792396500,2.400396484375,0.5683643221855164,0.5250326991081238,0.18335436284542084,0.8445157408714294,0.5353026986122131,-0.01563243940472603,-0.029971063137054443,0.22781991958618164,-0.09775537252426147,0.4411208887688482,-0.6978723627913609,0.07181884033743101,0.5596683729002848
1728404750802426600,2.410426513671875,1.0537084341049194,0.5628080368041992,0.24398548901081085,0.8457580208778381,0.5333460569381714,-0.015355536714196205,-0.041696012020111084,0.23307251930236816,-0.060022592544555664,0.44318143884121547,-0.697518363886398,0.0760944394219764,0.5579141609249892
1728404750812457500,2.42045751953125,1.1529279947280884,0.5606955885887146,0.20591320097446442,0.8470935821533203,0.5311819911003113,-0.016677947714924812,-0.04133802652359009,0.11136561632156372,-0.006850834935903549,0.4462794657932215,-0.6964528959185835,0.08132889939774748,0.5560338391703978
1728404750822487600,2.430487548828125,0.7544419765472412,0.577472448348999,0.09456376731395721,0.8479899168014526,0.529738187789917,-0.017053501680493355,-0.04321080446243286,-0.11504995822906494,0.09752863645553589,0.4490557070921867,-0.6957721071961368,0.08587446695783729,0.5539637855183339
1728404750832517600,2.440517578125,-0.006508721970021725,0.4863753616809845,0.010126383975148201,0.8483303189277649,0.5292690396308899,-0.014505507424473763,-0.05118054151535034,-0.27043408155441284,0.3056129217147827,0.45001636955119206,-0.6963826778232919,0.08830862071796068,0.5520309921253234
1728404750842548700,2.450548828125,-0.41847631335258484,0.24504822492599487,-0.053152453154325485,0.8482785820960999,0.5294568538665771,-0.009962731972336769,-0.0420803427696228,-0.3566051721572876,0.5009908080101013,0.44903718718455105,-0.6979976497260609,0.08841897417553402,0.5507695871098767
1728404750852578600,2.46057861328125,-0.5561094284057617,-0.0010530520230531693,-0.202719047665596,0.8476320505142212,0.5305449366569519,-0.006484863348305225,-0.014822602272033691,-0.45177900791168213,0.573928952217102,0.4476216996088618,-0.699435888258821,0.08687350880300082,0.5503428791477397
1728404750862609700,2.470609619140625,-0.7640343904495239,-0.012228741310536861,-0.3584012985229492,0.8461200594902039,0.532983660697937,-0.003092297585681081,-0.016011357307434082,-0.47455769777297974,0.48429375886917114,0.44609975874310925,-0.7009937901279265,0.08403307301108928,0.5500375191546075
1728404750872639700,2.4806396484375,-0.8415713906288147,0.0014840890653431416,-0.5298606753349304,0.8436659574508667,0.5368676781654358,0.0010992937022820115,-0.04401373863220215,-0.30378955602645874,0.40290796756744385,0.44451415270854994,-0.7029411569270477,0.08014597159135119,0.5494157627066178
1728404750882669600,2.490669677734375,-0.709895133972168,-0.03187147155404091,-0.46054232120513916,0.840903103351593,0.5411592125892639,0.005392082035541534,-0.05556362867355347,-0.07196658849716187,0.32410645484924316,0.44310151982442575,-0.7049110558318843,0.07613438333505308,0.5486029615705781
1728404750892700400,2.500700439453125,-0.2688960134983063,-0.17113231122493744,-0.23805226385593414,0.8389890789985657,0.5440999269485474,0.0072678630240261555,-0.0058286190032958984,0.10787767171859741,0.15941941738128662,0.44234090165717926,-0.7058773095402402,0.07328816672907629,0.5483618564208678
1728404750902730500,2.51073046875,0.14999499917030334,-0.2619982957839966,-0.07493951171636581,0.8381940722465515,0.5453428030014038,0.005665248259902,0.11018544435501099,0.24367398023605347,-0.12349331378936768,0.44263984539829465,-0.7054304338402607,0.07211467978854455,0.548851025864478
1728404750912761300,2.52076123046875,0.3611465096473694,-0.2721859812736511,0.07642684131860733,0.8382074236869812,0.5453486442565918,0.0018861618591472507,0.16635507345199585,0.33192503452301025,-0.40470266342163086,0.44368940874335816,-0.7040761461624673,0.07224860792739966,0.5497242927884245
1728404750922791400,2.53079150390625,0.5071654915809631,-0.17812897264957428,0.22957246005535126,0.8390611410140991,0.5440322756767273,-0.0024072048254311085,0.13277137279510498,0.37619495391845703,-0.4894748330116272,0.44487834034586454,-0.7024205862372521,0.07349637860398041,0.5507151045080284
1728404750932822500,2.540822509765625,0.5595858097076416,-0.08798959851264954,0.27978503704071045,0.8404943943023682,0.5417813062667847,-0.006531338673084974,0.06625926494598389,0.3244144916534424,-0.44612038135528564,0.4461341779722294,-0.7007222235938497,0.07564850315189743,0.551570648355127
1728404750942852600,2.5508525390625,0.38888442516326904,0.1105746254324913,0.197541281580925,0.8418134450912476,0.5396918058395386,-0.009136810898780823,-0.028718173503875732,0.16697341203689575,-0.377627432346344,0.4471585212453752,-0.6995511136906126,0.07784493469722463,0.5519220778685033
1728404750952882400,2.56088232421875,0.18500804901123047,0.3150014877319336,0.11590687185525894,0.8426684141159058,0.5383603572845459,-0.008872820064425468,-0.10463106632232666,-0.026153147220611572,-0.2486952543258667,0.4476643987293623,-0.6994390738186567,0.07967792605474927,0.551392170138819
1728404750962913500,2.57091357421875,-0.06827748566865921,0.45298704504966736,0.11726269125938416,0.8432872295379639,0.537431001663208,-0.005904850084334612,-0.10555523633956909,-0.18809622526168823,-0.10554510354995728,0.4474204278415675,-0.7003350540770712,0.08110725614786954,0.5502431383356273
1728404750972943600,2.580943603515625,-0.299608439207077,0.3868883550167084,0.1995181441307068,0.8441304564476013,0.5361366868019104,-0.001234521740116179,-0.03381234407424927,-0.23144906759262085,0.05476260185241699,0.446164045105705,-0.7018842519989784,0.0821050299332776,0.5491402626697617
1728404750982974500,2.590974365234375,-0.35545599460601807,0.18987832963466644,0.3252132534980774,0.8455391526222229,0.5339045524597168,0.00311919953674078,0.06945419311523438,-0.13311707973480225,0.17830801010131836,0.4440821237980511,-0.703361737118697,0.0827155762225561,0.5488457233403181
1728404750993004500,2.601004638671875,0.10405001044273376,0.03275391459465027,0.4121316373348236,0.8475252389907837,0.5307334661483765,0.004824166651815176,0.14557784795761108,-0.013597726821899414,0.20451140403747559,0.44246352589198057,-0.7038355126686363,0.08383110698910205,0.5493761150813352
1728404751003034600,2.61103466796875,0.6082796454429626,0.03510308638215065,0.4254287779331207,0.8497615456581116,0.5271588563919067,0.003046340774744749,0.16291862726211548,-0.027540206909179688,0.14693260192871094,0.4426277173556661,-0.7028895197091246,0.08642623151934094,0.5500524716049315
1728404751013065500,2.6210654296875,0.6946959495544434,0.08136624097824097,0.4636422097682953,0.8520890474319458,0.5233972668647766,0.00003322258999105543,0.13120275735855103,-0.13211596012115479,0.11257696151733398,0.44375255240619144,-0.7013700638170184,0.08998135849660698,0.5505154848657737
1728404751023095600,2.631095458984375,0.4975394606590271,0.019366523250937462,0.49359452724456787,0.8546044230461121,0.5192726850509644,-0.0026978410314768553,0.10592108964920044,-0.17904740571975708,0.2293216586112976,0.4445422494363026,-0.6999382112399447,0.09347502296826074,0.5511180919244804
1728404751033125600,2.641125732421875,0.11047442257404327,-0.04404504597187042,0.452562153339386,0.8570801019668579,0.515164315700531,-0.004451450426131487,0.11775821447372437,-0.22233277559280396,0.2964743971824646,0.4443359875466111,-0.6989704457185061,0.09599266069126744,0.552079238696838
1728404751043156700,2.65115673828125,-0.27173659205436707,-0.07626663148403168,0.4159756302833557,0.8592989444732666,0.5114545822143555,-0.00448627071455121,0.133331298828125,-0.25240594148635864,0.2450108528137207,0.4428139758040378,-0.6988081133133021,0.09707772856034497,0.5533165450146447
1728404751053186600,2.6611865234375,-0.17627106606960297,0.008395950309932232,0.4364713132381439,0.8614731431007385,0.5077908039093018,-0.003597232047468424,0.12145239114761353,-0.2117854356765747,0.21320748329162598,0.44078027372717044,-0.6990282668198838,0.0977796816491623,0.5545372434609557
1728404751063217700,2.6712177734375,0.050075262784957886,0.1984281986951828,0.43352240324020386,0.8636929988861084,0.5040124654769897,-0.0024713436141610146,0.11625701189041138,-0.19174128770828247,0.10058563947677612,0.4393301898339124,-0.6992047782440161,0.099383128819899,0.5551799813953489
1728404751073247500,2.68124755859375,0.11520878970623016,0.32009851932525635,0.3991881310939789,0.8658040165901184,0.5003834366798401,-0.000573128869291395,0.1173200011253357,-0.19186580181121826,-0.013296842575073242,0.43834878984922826,-0.6995498893487391,0.10170244770676731,0.5551010373610713
1728404751083277600,2.691277587890625,0.06526520103216171,0.21930691599845886,0.3943774104118347,0.867779016494751,0.49694859981536865,0.0013938567135483027,0.1326635479927063,-0.1616976261138916,0.016688108444213867,0.43742831695632367,-0.6999210714794765,0.10395875167049268,0.5549411718139965
1728404751093308400,2.701308349609375,0.05438671633601189,0.11247362196445465,0.4062817394733429,0.8697690963745117,0.49345293641090393,0.0024676101747900248,0.17336755990982056,-0.17503246665000916,0.04039454460144043,0.43643946956278956,-0.7000165881493137,0.10588003323891307,0.5552358748338975
1728404751103338500,2.71133837890625,-0.03463423252105713,0.1867891252040863,0.4335740804672241,0.8718332648277283,0.4897896647453308,0.0036158987786620855,0.210243821144104,-0.23898088932037354,-0.004485368728637695,0.4352341577534888,-0.7001517848761538,0.10768206677209781,0.5556648066124289
1728404751113369300,2.721369384765625,-0.0016447915695607662,0.3309685289859772,0.4850905239582062,0.8740624189376831,0.48577672243118286,0.006011240184307098,0.19411391019821167,-0.2444436252117157,-0.022765159606933594,0.4337271693530863,-0.7006800402742084,0.10978661728965701,0.5557654511761462
1728404751123399400,2.7313994140625,0.021879175677895546,0.38897934556007385,0.5272054672241211,0.8765128254890442,0.4812906086444855,0.009213127195835114,0.16988921165466309,-0.1779763102531433,-0.011043907143175602,0.4321096983519019,-0.7014097762880003,0.1123872294831734,0.555585061873264
1728404751133430500,2.741430419921875,0.14501063525676727,0.36363735795021057,0.5155861377716064,0.8790050148963928,0.47665804624557495,0.012143613770604134,0.14519542455673218,-0.08078396320343018,0.016573665663599968,0.4307158533725876,-0.701982920654859,0.11529000863513203,0.5553486690656435
1728404751143460600,2.751460693359375,0.14697392284870148,0.3899134397506714,0.46943458914756775,0.8813146352767944,0.47230076789855957,0.014722897671163082,0.11525219678878784,-0.027110248804092407,0.046190500259399414,0.4296434403249829,-0.702407878533198,0.11825658979426659,0.5550181917599808
1728404751153490400,2.761490478515625,0.21306723356246948,0.4153718054294586,0.4385509788990021,0.8833897113800049,0.46831372380256653,0.017465300858020782,0.08392596244812012,-0.019155949354171753,0.04759848117828369,0.4287489181320748,-0.702881861348967,0.12120123507786218,0.554474323074335
1728404751163521500,2.771521484375,0.19523099064826965,0.4493177831172943,0.4220907986164093,0.8853434920310974,0.4644979238510132,0.020214173942804337,0.04640388488769531,-0.057820647954940796,0.12746059894561768,0.4280400123725996,-0.7033283060608068,0.12424323117363738,0.5537821839834077
1728404751173551600,2.781551513671875,0.020786281675100327,0.5154510736465454,0.3949345350265503,0.8871141672134399,0.4609248638153076,0.02402370050549507,0.05790853500366211,-0.14470160007476807,0.08031618595123291,0.4270044171562968,-0.7041848546004538,0.12702574703272132,0.5528612446764436
1728404751183582500,2.79158251953125,-0.3505811393260956,0.4557986855506897,0.42227107286453247,0.8888640999794006,0.45724040269851685,0.029187146574258804,0.08136594295501709,-0.18157505989074707,0.05150162801146507,0.4249866172005942,-0.7056411595265839,0.12908960971151745,0.5520804712246571
1728404751193612500,2.801612548828125,-0.36904290318489075,0.3641296625137329,0.42156800627708435,0.8906741142272949,0.4533223807811737,0.034620556980371475,0.11219453811645508,-0.11419573426246643,0.09868049621582031,0.42214324373968654,-0.7073303454160116,0.1303612699964924,0.5518014540319818
1728404751203642600,2.811642578125,-0.24578621983528137,0.2791210412979126,0.40874356031417847,0.8924378752708435,0.4495011568069458,0.038772862404584885,0.13896459341049194,-0.06763467192649841,0.0403747484087944,0.41976493712175794,-0.7085459548097373,0.1317158348229337,0.5517345197580339
1728404751213673500,2.821673583984375,-0.38669082522392273,0.24378284811973572,0.4064364433288574,0.894174337387085,0.4456910490989685,0.042567674070596695,0.11990958452224731,-0.06222233176231384,-0.08448326587677002,0.4172975143585688,-0.7096779712818165,0.13281947787823375,0.5518868514652392
1728404751223703600,2.83170361328125,-0.13689188659191132,0.21041743457317352,0.42714759707450867,0.8959354162216187,0.4418141543865204,0.04582969844341278,0.0873563289642334,-0.0038868188858032227,-0.0038830041885375977,0.41497934729069047,-0.7106075319107639,0.13398427122342832,0.5521571123152386
1728404751233734700,2.841734619140625,0.1154426783323288,0.28583472967147827,0.4887811243534088,0.8978220820426941,0.43774300813674927,0.04792642220854759,0.05853790044784546,-0.014998167753219604,-0.002790689468383789,0.4135771865408356,-0.7109443236746467,0.1360932779829535,0.5522597826080635
1728404751243764700,2.8517646484375,0.10897546261548996,0.36755356192588806,0.5619962215423584,0.8999651670455933,0.43303945660591125,0.050397392362356186,0.04498124122619629,-0.036966949701309204,-0.11736798286437988,0.4123374174928895,-0.7112452016443971,0.13902862692928625,0.5520682318085417
1728404751253794300,2.861794189453125,-0.018258988857269287,0.3678429126739502,0.5868352651596069,0.9022692441940308,0.4278358519077301,0.0535430982708931,0.03814518451690674,0.05678337812423706,-0.0854489803314209,0.4106246788821023,-0.7117708842951925,0.14196393137993546,0.5519202128096131
1728404751263825700,2.87182568359375,0.14553526043891907,0.3841225504875183,0.5921663641929626,0.9045961499214172,0.4224715828895569,0.056778259575366974,0.02077317237854004,0.1823716163635254,0.007827755063772202,0.408854458704407,-0.7123005264266393,0.14497272235788872,0.5517689705862134
1728404751273855500,2.88185546875,0.5194663405418396,0.4819449782371521,0.5523830056190491,0.9067807197570801,0.417424738407135,0.05920841172337532,0.015384316444396973,0.24056485295295715,-0.05406594276428223,0.4081314049881545,-0.7123619666636098,0.14881073474443737,0.5512029618469029
1728404751283886300,2.89188623046875,0.7378849983215332,0.5556524991989136,0.5185248851776123,0.9086829423904419,0.4129523038864136,0.06136765331029892,0.01958554983139038,0.1965295970439911,-0.22158467769622803,0.4085789434164437,-0.7120994032148131,0.1536172725965133,0.5498904704002573
1728404751293916400,2.90191650390625,0.6060914993286133,0.4094645380973816,0.5273050665855408,0.9105249643325806,0.4086298942565918,0.06297696381807327,0.02622741460800171,0.10382139682769775,-0.24893558025360107,0.40923006657790206,-0.7116198810772212,0.15838442796228425,0.5486732943208424
1728404751303946500,2.911946533203125,0.4090133309364319,0.29200661182403564,0.5470465421676636,0.912505567073822,0.4040142595767975,0.06408213824033737,0.04309147596359253,0.019997090101242065,-0.04064440727233887,0.4092485977403703,-0.7111063558161609,0.16238478678016224,0.5481557340265666
1728404751313977600,2.9219775390625,0.28260910511016846,0.22805172204971313,0.5594907402992249,0.9145703315734863,0.3991612493991852,0.06505180150270462,0.06476938724517822,-0.05286294221878052,0.08597993850708008,0.4087667869636639,-0.7106435557585615,0.16586632885903183,0.5480729682957611
1728404751324007400,2.93200732421875,0.13612139225006104,0.17401725053787231,0.6094111204147339,0.9167547225952148,0.39393624663352966,0.06614449620246887,0.06920713186264038,-0.05607607960700989,0.10989640653133392,0.4076755051063529,-0.7103182603631958,0.16887930006281549,0.5483871392461812
1728404751334038500,2.94203857421875,0.28128695487976074,0.0323941744863987,0.6732354164123535,0.919205904006958,0.38814646005630493,0.06635548174381256,0.08724862337112427,0.07013607025146484,0.09013890475034714,0.4065108258026501,-0.7096621671517156,0.17192250576148574,0.5491550978564328
1728404751344068600,2.952068603515625,0.5464651584625244,0.04145824536681175,0.6923710107803345,0.9218621253967285,0.382028728723526,0.06499723345041275,0.09634172916412354,0.21272844076156616,-0.011560678482055664,0.4060375587562594,-0.7082921410572783,0.1755587106093991,0.5501227591843656
1728404751354098400,2.962098388671875,0.7174562811851501,0.16573406755924225,0.6314261555671692,0.9243381023406982,0.3762582838535309,0.06347467005252838,0.07070285081863403,0.2881399691104889,-0.18173003196716309,0.4063817353984651,-0.7066634395372351,0.17990030254805395,0.5505603088724488
1728404751364129500,2.972129638671875,0.7281283736228943,0.28849780559539795,0.539232611656189,0.926395833492279,0.37126460671424866,0.06287620961666107,0.006755352020263672,0.2672242522239685,-0.24547791481018066,0.40713686036799746,-0.705271845645914,0.18447148053045395,0.5502740439713181
1728404751374159600,2.98215966796875,0.6650916934013367,0.3004768490791321,0.46637943387031555,0.9280661940574646,0.36702829599380493,0.06311813741922379,-0.043376624584198,0.16738039255142212,-0.1386946439743042,0.40792829021996224,-0.7042140779364181,0.18878983625761636,0.549577742423222
1728404751384190500,2.9921904296875,0.6108497977256775,0.24405193328857422,0.4784161150455475,0.9296147227287292,0.36304783821105957,0.06334754079580307,-0.03500717878341675,0.08961948752403259,-0.026695616543293,0.408611116793937,-0.7032189930071394,0.19276103912516485,0.5489656251127644
1728404751394220500,3.002220458984375,0.580638587474823,0.12384025752544403,0.511507511138916,0.9313127398490906,0.35875996947288513,0.06283443421125412,0.015769898891448975,0.10934925079345703,0.02206575870513916,0.40916604453944233,-0.7019929180801002,0.19652775947722362,0.5487859772321613
1728404751404250600,3.012250732421875,0.8804892301559448,-0.13311296701431274,0.4889289438724518,0.933102011680603,0.3544899821281433,0.06048222631216049,0.06570804119110107,0.16263052821159363,0.012973912060260773,0.41026031351461845,-0.7000865055072815,0.20029977007431754,0.5490406568166926
1728404751414281700,3.02228173828125,0.6734486818313599,-0.06709028780460358,0.540589451789856,0.9349786639213562,0.3501584231853485,0.05660701543092728,0.058017611503601074,0.12239113450050354,-0.04381990432739258,0.4117667167609584,-0.6976092090108752,0.2040708213976334,0.5496770519139365
1728404751424311600,3.0323115234375,0.5946319103240967,-0.14283564686775208,0.5181456804275513,0.9369298815727234,0.3454030454158783,0.053473085165023804,0.03279674053192139,0.13707998394966125,-0.08411240577697754,0.41253033278563134,-0.695486027707243,0.20745054254369544,0.5505291236447573
1728404751434342700,3.0423427734375,0.6240512728691101,-0.11386588215827942,0.4423079192638397,0.9386531114578247,0.34119662642478943,0.050154462456703186,0.006094872951507568,0.18102028965950012,-0.00979471206665039,0.41346251566122083,-0.6933604312569075,0.2105434502270893,0.5513362566255483
1728404751444372700,3.052372802734375,0.6684621572494507,-0.1100357249379158,0.4305894672870636,0.9401806592941284,0.33743253350257874,0.0469059944152832,-0.051706910133361816,0.1351170539855957,-0.0642092153429985,0.4146319141909994,-0.6912483087996539,0.2136089252698414,0.5519308100822183
1728404751454402600,3.062402587890625,0.6936527490615845,-0.11612707376480103,0.47637027502059937,0.9417656064033508,0.33343976736068726,0.04354440048336983,-0.06494957208633423,0.1363479495048523,-0.06376206874847412,0.4158624246413621,-0.6890188823451859,0.2168529008783206,0.5525274294716822
1728404751464433400,3.072433349609375,0.6211977005004883,-0.18262353539466858,0.4649423658847809,0.9434183239936829,0.32918646931648254,0.03997913375496864,-0.04302769899368286,0.19124513864517212,-0.023667220026254654,0.41697351835957236,-0.6867117269282357,0.2200376601929358,0.553302446998425
1728404751474463500,3.08246337890625,0.6639934182167053,-0.2746301591396332,0.38719138503074646,0.9449265003204346,0.32532408833503723,0.03575674444437027,-0.02215111255645752,0.24135693907737732,-0.013936400413513184,0.4181708715269232,-0.6842869275739367,0.22277740669487622,0.5543058412214777
1728404751484494300,3.092494384765625,0.8309882283210754,-0.2997802793979645,0.3502935469150543,0.946211576461792,0.32210874557495117,0.030497776344418526,-0.02798318862915039,0.22163832187652588,-0.03769969567656517,0.420070801877809,-0.6814662262157207,0.22550536786532765,0.5552403811183114
1728404751494524400,3.1025244140625,0.8046628832817078,-0.2802571654319763,0.35137665271759033,0.9474284648895264,0.3189816474914551,0.025108197703957558,-0.048761963844299316,0.13460123538970947,-0.0972057580947876,0.42224925694939835,-0.6785092090317064,0.22842800258793794,0.5560141051599616
1728404751504554500,3.112554443359375,0.7273247241973877,-0.30688583850860596,0.33513909578323364,0.9485973715782166,0.3158566653728485,0.01994658075273037,-0.05945241451263428,0.08169591426849365,-0.05871891975402832,0.42420115388505103,-0.6756892660442914,0.23112184175105607,0.5568484482457036
1728404751514585600,3.122585693359375,0.6966243982315063,-0.367462694644928,0.29524096846580505,0.9496544599533081,0.3129678964614868,0.014404887333512306,-0.06920713186264038,0.06908169388771057,0.005691167898476124,0.42612771440741426,-0.6728348588087617,0.2334431329217576,0.557864458755304
1728404751524615400,3.132615478515625,0.6509906053543091,-0.3564886152744293,0.2654191553592682,0.9505767226219177,0.3103639483451843,0.008852877654135227,-0.08023059368133545,0.06036365032196045,0.008908628486096859,0.42804471966606067,-0.6700434837302661,0.23551681228678426,0.5588840664085601
1728404751534646500,3.142646484375,0.6670272350311279,-0.36340078711509705,0.23841547966003418,0.9513862133026123,0.3079822361469269,0.003389352699741721,-0.08314573764801025,0.08998236060142517,-0.003862142562866211,0.4299427920812721,-0.6673291749028198,0.23741619298093802,0.5598701946981645
1728404751544676900,3.1526767578125,0.750335693359375,-0.3346112072467804,0.2024843841791153,0.9520679116249084,0.30587950348854065,-0.0021661168430000544,-0.0670275092124939,0.1231825053691864,-0.04153478145599365,0.4321094919172329,-0.6645413559555564,0.23937779292724237,0.5606822503054039
1728404751554706700,3.162706787109375,0.834399402141571,-0.3074488341808319,0.1909065544605255,0.9526593685150146,0.3039446473121643,-0.007614887319505215,-0.06340759992599487,0.13746169209480286,-0.07998555898666382,0.434574042855066,-0.6616864563431833,0.24158557472948378,0.5612066873584478
1728404751564737500,3.172737548828125,0.8436978459358215,-0.29616767168045044,0.16038352251052856,0.9531712532043457,0.3021475374698639,-0.013101142831146717,-0.06736797094345093,0.16539710760116577,-0.07629984617233276,0.4372435331303763,-0.6587604850696004,0.2438935253397131,0.561577015476654
1728404751574767600,3.182767578125,0.8651091456413269,-0.28259941935539246,0.11031077802181244,0.9535344243049622,0.3007236421108246,-0.018378369510173798,-0.07262915372848511,0.17640352249145508,-0.0633169412612915,0.44000504005784796,-0.6559312507126318,0.2460995936962431,0.5617694481987944
1728404751584798500,3.192798583984375,0.7739827036857605,-0.35110390186309814,0.07447900623083115,0.9537397623062134,0.2996812164783478,-0.02391629107296467,-0.08031129837036133,0.11116179823875427,-0.023599326610565186,0.4428946203090744,-0.6530745327213533,0.24806351901536147,0.5619632663229697
1728404751594828500,3.20282861328125,0.5306222438812256,-0.41531112790107727,0.11840970814228058,0.9539147019386292,0.29862046241760254,-0.02954602614045143,-0.0708732008934021,-0.005575299263000488,0.045079708099365234,0.44524438360587587,-0.6504238720289979,0.2493507047511586,0.562610571709356
1728404751604858600,3.212858642578125,0.3982037305831909,-0.512074887752533,0.11789998412132263,0.9541407227516174,0.2972649335861206,-0.035346176475286484,-0.03084653615951538,-0.003929883241653442,0.09502357244491577,0.4469588784708144,-0.6479334317591152,0.2500183586966912,0.5638271047704706
1728404751614889700,3.2228896484375,0.407500296831131,-0.5946944355964661,0.0654415711760521,0.9541948437690735,0.2962454855442047,-0.041844699531793594,0.003248453140258789,0.04811495542526245,0.09616625308990479,0.4486822020784162,-0.6453575003519635,0.2501826260801374,0.5653377248493849
1728404751624919600,3.23291943359375,0.44513291120529175,-0.6306611895561218,0.05030815675854683,0.9540815353393555,0.29551106691360474,-0.049008700996637344,-0.011652886867523193,0.06079700589179993,0.051862362772226334,0.45068195328256644,-0.6425709211143779,0.2501964449049386,0.5669128893271713
1728404751634950700,3.24295068359375,0.46153631806373596,-0.5629714131355286,0.0655723288655281,0.95393306016922,0.29472848773002625,-0.05609791725873947,-0.014510393142700195,0.05697143077850342,-0.03827744349837303,0.45272728841146104,-0.6397647278808816,0.25030408233676865,0.5684074588006155
1728404751644980700,3.252980712890625,0.5235115885734558,-0.4665153920650482,0.07968335598707199,0.9538548588752747,0.29370272159576416,-0.06244974583387375,-0.03411597013473511,0.08791971206665039,-0.08391231298446655,0.454719020018801,-0.6370911603293228,0.2507787496546356,0.5696100950192892
1728404751655010800,3.2630107421875,0.5965163707733154,-0.3877442479133606,0.06922539323568344,0.9537980556488037,0.2926107347011566,-0.06817789375782013,-0.05775618553161621,0.10367533564567566,-0.10090451687574387,0.4568412674996481,-0.6344890634363634,0.25166382517226504,0.5704253037730179
1728404751665041700,3.273041748046875,0.6008450984954834,-0.33529624342918396,0.08711304515600204,0.9537575244903564,0.29148176312446594,-0.07338325679302216,-0.07512587308883667,0.06890040636062622,-0.06274013966321945,0.4589897828684777,-0.6319878065847198,0.25278406429794015,0.5709816760285579
1728404751675071700,3.28307177734375,0.6186766624450684,-0.3701181709766388,0.09446150064468384,0.9537702202796936,0.2901093065738678,-0.07847978174686432,-0.0660443902015686,0.046102941036224365,0.0038950517773628235,0.46110266141000805,-0.6294599469221308,0.25404780263970816,0.57151054998365
1728404751685102600,3.2931025390625,0.538389265537262,-0.4164814054965973,0.03240372613072395,0.9536409974098206,0.2890031933784485,-0.08394060283899307,-0.031155645847320557,0.027540475130081177,0.05798567086458206,0.46325778255524347,-0.626892675627297,0.2550201383054548,0.5721560406761333
1728404751695132700,3.303132568359375,0.4385533630847931,-0.4446665942668915,-0.012425530701875687,0.9532855749130249,0.2885145843029022,-0.08947667479515076,-0.011146843433380127,-0.011445432901382446,0.05322206765413284,0.4653131171463615,-0.6245138272461023,0.2554293259035755,0.5729067211821023
1728404751705162800,3.313162841796875,0.36280694603919983,-0.450825959444046,-0.03264531493186951,0.9527968168258667,0.28839021921157837,-0.09491828083992004,-0.002342045307159424,-0.023924797773361206,0.056283243000507355,0.46720249458963914,-0.6223268506049872,0.25544109045177227,0.5737430467561968
1728404751715193900,3.32319384765625,0.3566238284111023,-0.4621028006076813,-0.05323927477002144,0.9522295594215393,0.2884436845779419,-0.10029594600200653,0.011439323425292969,-0.007712364196777344,0.023330874741077423,0.46901085017912997,-0.6202366959300459,0.2552615697707896,0.5746102104344631
1728404751725223700,3.3332236328125,0.41764163970947266,-0.40505629777908325,-0.05926680564880371,0.9516000747680664,0.2886175811290741,-0.1056283712387085,0.002257406711578369,0.02731570601463318,-0.009300582110881805,0.47095349530982095,-0.6181278968019185,0.25515429974908777,0.5753408658828033
1728404751735254800,3.3432548828125,0.44192758202552795,-0.29677775502204895,-0.0659545361995697,0.9510546326637268,0.28870710730552673,-0.11019766330718994,-0.026280343532562256,0.03880766034126282,-0.03744614124298096,0.47289959571286483,-0.6161784896994964,0.25539232266368067,0.5757299348595828
1728404751745284600,3.35328466796875,0.43592479825019836,-0.23432102799415588,-0.09969226270914078,0.9505259990692139,0.2889782786369324,-0.11398282647132874,-0.03635662794113159,0.03817024827003479,-0.04695139825344086,0.47482804417855695,-0.6144750841788441,0.2557908495889622,0.5757862692280411
1728404751755314700,3.363314697265625,0.4389650225639343,-0.23373731970787048,-0.14628373086452484,0.949897289276123,0.28965452313423157,-0.11745460331439972,-0.03679603338241577,0.029742538928985596,-0.015784911811351776,0.47683064573031214,-0.6129230556978699,0.2561211173815041,0.5756387144086784
1728404751765345500,3.373345458984375,0.4736364483833313,-0.26702526211738586,-0.17516598105430603,0.9491291642189026,0.29064643383026123,-0.12115532904863358,-0.022233963012695312,0.006549090147018433,0.012421436607837677,0.4789991064524532,-0.6113260487683866,0.25632556627053654,0.5754455669629394
1728404751775375600,3.383375732421875,0.5061534643173218,-0.31453970074653625,-0.22875596582889557,0.9481900334358215,0.2919323444366455,-0.1253449022769928,-0.008095920085906982,-0.008286595344543457,0.03615748882293701,0.4814746076320747,-0.6095522893055025,0.2564635608270373,0.5751997373138964
1728404751785406500,3.393406494140625,0.41823822259902954,-0.278618723154068,-0.23709192872047424,0.9471007585525513,0.2936042249202728,-0.12960319221019745,-0.01820659637451172,-0.052454203367233276,0.04525279998779297,0.4839775908705973,-0.6078534609155526,0.25634464225855613,0.5749499360684187
1728404751795436500,3.4034365234375,0.37396949529647827,-0.2306084930896759,-0.17786403000354767,0.9461572170257568,0.29505541920661926,-0.13315023481845856,-0.05302971601486206,-0.0753592848777771,0.06506575644016266,0.4860915817639104,-0.6064409488207992,0.25623086474518636,0.5747087670424587
1728404751805466600,3.413466552734375,0.2784395217895508,-0.21478211879730225,-0.15504872798919678,0.9453670382499695,0.29618409276008606,-0.13622231781482697,-0.058037757873535156,-0.07331407070159912,0.09186524152755737,0.4878480419935103,-0.6052158346103571,0.256130107918915,0.5745568988891244
1728404751815497700,3.423497802734375,0.23494909703731537,-0.2573927342891693,-0.17671087384223938,0.9445672035217285,0.2973773181438446,-0.13913968205451965,-0.047472357749938965,-0.04630911350250244,0.08013416826725006,0.48938088956762954,-0.604145296894078,0.2558097253466034,0.5745227160932981
1728404751825527600,3.433527587890625,0.22673112154006958,-0.3382825255393982,-0.2115628719329834,0.943557620048523,0.2989068031311035,-0.14266766607761383,-0.03181427717208862,-0.005846381187438965,0.07029545307159424,0.49103305887386656,-0.6029632266817198,0.25514998475546596,0.5746481788722582
1728404751835558700,3.44355859375,0.13598643243312836,-0.36756494641304016,-0.17363758385181427,0.9424530267715454,0.3004959523677826,-0.14657703042030334,-0.028146207332611084,-0.019734084606170654,0.08465707302093506,0.4925956500122203,-0.6017424645353179,0.25419970207354897,0.5750114954509159
1728404751845588700,3.453588623046875,0.11953849345445633,-0.37454378604888916,-0.13659700751304626,0.9414447546005249,0.3017372786998749,-0.15045471489429474,-0.02523064613342285,-0.027292579412460327,0.07438987493515015,0.4938798004502143,-0.6005566183792818,0.25318844454587797,0.5755955559830915
1728404751855618800,3.463618896484375,0.13615208864212036,-0.3461799919605255,-0.125275120139122,0.9404889345169067,0.30279871821403503,-0.15425270795822144,-0.028669357299804688,-0.018618881702423096,0.04030030965805054,0.49509192253667006,-0.5993713604446708,0.2522451490968879,0.5762035948793887
1728404751865649700,3.473649658203125,0.2170053869485855,-0.23453548550605774,-0.07196475565433502,0.9397178292274475,0.3034907281398773,-0.1575562059879303,-0.05763763189315796,0.0066442787647247314,-0.008672833442687988,0.49628666599296045,-0.5982153501115557,0.2517147068674631,0.5766088617630848
1728404751875679700,3.4836796875,0.2668379843235016,-0.18876968324184418,-0.05305231735110283,0.9392134547233582,0.3036527633666992,-0.16022883355617523,-0.07605421543121338,0.033078283071517944,-0.012729331851005554,0.49744784333673747,-0.597087901132774,0.25173720859339394,0.576766979637314
1728404751885710600,3.493710693359375,0.24297741055488586,-0.24651874601840973,-0.06376434862613678,0.9386914968490601,0.30377182364463806,-0.16303765773773193,-0.05865597724914551,0.009979546070098877,0.021604180335998535,0.49866554611853636,-0.595889917562856,0.25178637138610105,0.5769329999012399
1728404751895740700,3.50374072265625,0.17636221647262573,-0.30122822523117065,-0.08185040950775146,0.9380107522010803,0.3041132688522339,-0.16628612577915192,-0.030860424041748047,-0.044957906007766724,0.06191624701023102,0.4998497084384984,-0.5946561080164445,0.2514777344691679,0.5773157077150598
1728404751905770800,3.513770751953125,0.15251761674880981,-0.3231404423713684,-0.11274121701717377,0.9371888637542725,0.30473706126213074,-0.16974246501922607,-0.0036255717277526855,-0.08749759197235107,0.08845914900302887,0.5010145015728948,-0.5934534489508795,0.2508819859793733,0.5778025479815998
1728404751915801900,3.5238017578125,0.0832357406616211,-0.29974398016929626,-0.1488712579011917,0.9362434148788452,0.30576369166374207,-0.17308121919631958,-0.001657724380493164,-0.1099780797958374,0.06933696568012238,0.5021413573613177,-0.5924029479400204,0.25003627092763,0.5782687975327763
1728404751925831700,3.533831787109375,0.06915800273418427,-0.25238391757011414,-0.1530020833015442,0.9352862238883972,0.30706924200057983,-0.1759219616651535,-0.021940767765045166,-0.09892398118972778,0.04536795616149902,0.5031523204268348,-0.5916004040219587,0.24909432134732085,0.5786181352079954
1728404751935862800,3.54386279296875,0.07244487851858139,-0.206766739487648,-0.14495427906513214,0.9344316124916077,0.3083159327507019,-0.17826750874519348,-0.035749733448028564,-0.07957127690315247,0.0400993674993515,0.5040757214110279,-0.5909433204282495,0.24829868911565753,0.5788278918857315
1728404751945892600,3.553892578125,0.07614001631736755,-0.19071374833583832,-0.17046256363391876,0.9336035251617432,0.30963334441185,-0.18031054735183716,-0.022974133491516113,-0.055559128522872925,0.01978832483291626,0.5049779742879207,-0.5903895983980457,0.2475577723558623,0.578923715192617
1728404751955922700,3.563922607421875,0.09805337339639664,-0.1954777091741562,-0.2010290026664734,0.932664155960083,0.3112509250640869,-0.18237504363059998,-0.007966160774230957,-0.03360188007354736,0.02731543779373169,0.506015158338162,-0.5898515439469486,0.24675419101119583,0.5789095793205347
1728404751965953500,3.57395361328125,0.15094561874866486,-0.2370118349790573,-0.21336981654167175,0.9316235780715942,0.31295859813690186,-0.184755340218544,0.013170182704925537,-0.05210950970649719,0.030443444848060608,0.5072462219448479,-0.5891737136110758,0.24596069506272478,0.5788601148450823
1728404751975983600,3.583983642578125,0.16026994585990906,-0.25704219937324524,-0.2172790765762329,0.9304797649383545,0.3146762251853943,-0.1875808984041214,0.03392159938812256,-0.06919270753860474,0.03946405649185181,0.5086536290505124,-0.588309407667962,0.24515625619295142,0.5788455281973767
1728404751986014700,3.5940146484375,0.1475869119167328,-0.23698541522026062,-0.19589389860630035,0.9293545484542847,0.31631097197532654,-0.19038870930671692,0.029599428176879883,-0.05788800120353699,0.04802441596984863,0.5100082028802229,-0.5874492640525271,0.2443542731521634,0.5788663128491139
1728404751996044500,3.60404443359375,0.12899258732795715,-0.22169552743434906,-0.20800913870334625,0.9282808899879456,0.31791311502456665,-0.1929406374692917,0.015597403049468994,-0.0365409255027771,0.04403030872344971,0.511275537700014,-0.5866819958333037,0.24358554664596224,0.5788504080961756
1728404752006074600,3.61407470703125,0.11556226015090942,-0.2529282867908478,-0.18039323389530182,0.9271843433380127,0.3195183575153351,-0.19554387032985687,-0.00009071826934814453,-0.051314473152160645,0.03932458162307739,0.5125056950956908,-0.5859171442080829,0.24275330754304802,0.5788868481719164
1728404752016105700,3.624105712890625,0.08373841643333435,-0.3098641037940979,-0.16913551092147827,0.9260892868041992,0.3209083676338196,-0.19843558967113495,-0.002779841423034668,-0.07150334119796753,0.03800487518310547,0.5136239710171397,-0.585067395683468,0.2418229714735947,0.5791445179106811
1728404752026135800,3.6341357421875,0.04761636257171631,-0.4277294874191284,-0.16338388621807098,0.9248093366622925,0.32232415676116943,-0.20207688212394714,0.02146458625793457,-0.07969403266906738,0.008214175701141357,0.5147513493570506,-0.5840247047103125,0.24057577414328163,0.5797151655328541
1728404752036165600,3.64416552734375,-0.009500650689005852,-0.5049100518226624,-0.10875925421714783,0.9233922362327576,0.32357797026634216,-0.20650488138198853,0.018899142742156982,-0.10301205515861511,-0.004356086254119873,0.5157850191569502,-0.5827701967045154,0.23901141693338412,0.5807050988796351
1728404752046196700,3.65419677734375,-0.15809890627861023,-0.5352980494499207,-0.01458402257412672,0.9220894575119019,0.32433441281318665,-0.21108919382095337,0.009993910789489746,-0.15046033263206482,-0.0010230839252471924,0.5163556360965972,-0.5815296362171013,0.23723129756015848,0.5821698382880793
1728404752056226800,3.664226806640625,-0.2043180614709854,-0.543601393699646,0.06379999965429306,0.9210290908813477,0.32447391748428345,-0.215458944439888,0.00917738676071167,-0.1933855414390564,0.009145081043243408,0.5163636103548817,-0.5804067652957283,0.23536888917546145,0.5840362755644558
1728404752066257700,3.674257568359375,-0.23376411199569702,-0.5331681966781616,0.08462671935558319,0.9201052784919739,0.32423165440559387,-0.21972845494747162,0.02955615520477295,-0.23264828324317932,-0.04925328493118286,0.5161336966715604,-0.5792983954189849,0.23355757812447064,0.586063574759027
1728404752076287700,3.684287841796875,-0.1709250956773758,-0.5105316042900085,0.08155529201030731,0.9192138910293579,0.3239307105541229,-0.2238638997077942,0.05557870864868164,-0.2184465527534485,-0.12725591659545898,0.5158939418838575,-0.5782047595466748,0.23183465869533654,0.5880353861390858
1728404752086318800,3.69431884765625,-0.0511784553527832,-0.4925350248813629,0.06797130405902863,0.9183346033096313,0.32347941398620605,-0.22808526456356049,0.0673832893371582,-0.1428762674331665,-0.133090078830719,0.5159202862153341,-0.5769363686803877,0.230438272584466,0.5898042481622926
1728404752096348700,3.7043486328125,0.017799148336052895,-0.47965773940086365,0.055385738611221313,0.9173949956893921,0.32293975353240967,-0.23258651793003082,0.06691902875900269,-0.10728716850280762,-0.11178885400295258,0.5162808372173828,-0.5754320981757165,0.22931342075447278,0.5913944908145247
1728404752106378500,3.71437841796875,-0.09355320781469345,-0.4619527757167816,0.05229327827692032,0.9164761304855347,0.32249945402145386,-0.23678216338157654,0.04563641548156738,-0.1015520989894867,-0.012256309390068054,0.5165677835242223,-0.5740588120480964,0.2281784350540084,0.5929156027509164
1728404752116409900,3.724409912109375,-0.1608155369758606,-0.46479499340057373,0.051306042820215225,0.9155436158180237,0.32232096791267395,-0.24060145020484924,0.04319661855697632,-0.09333223104476929,0.07515063881874084,0.5165636891424226,-0.57295997074518,0.22675128899651234,0.5945272789362223
1728404752126439700,3.734439697265625,-0.2735431492328644,-0.5043586492538452,0.0266110859811306,0.9145129323005676,0.3224357068538666,-0.244339257478714,0.0604933500289917,-0.08024808764457703,0.1073460578918457,0.5163424373996099,-0.5720311375519384,0.22496833004645042,0.596288791468813
1728404752136470500,3.744470458984375,-0.3205953538417816,-0.5437809824943542,-0.052251506596803665,0.9131705164909363,0.3232840597629547,-0.2482084482908249,0.08800464868545532,-0.07950949668884277,0.04221495985984802,0.5161283424374976,-0.5712325201090257,0.22268629017898603,0.5980936668878117
1728404752146500600,3.75450048828125,-0.3783465325832367,-0.5198519229888916,-0.05529256910085678,0.9116402864456177,0.32471784949302673,-0.2519340515136719,0.0813562273979187,-0.0774185061454773,0.01931402087211609,0.5158738735496907,-0.5706185760845077,0.2200622859438765,0.5998678709267401
1728404752156530700,3.76453076171875,-0.2897203266620636,-0.5087871551513672,-0.04921896383166313,0.9101885557174683,0.326034277677536,-0.25545772910118103,0.06471085548400879,-0.03776511549949646,0.010874807834625244,0.5156145859107124,-0.5700215863514678,0.21759256870171853,0.6015568433637135
1728404752166561500,3.7745615234375,-0.2597869038581848,-0.548781156539917,-0.04475124552845955,0.9086521863937378,0.3271908760070801,-0.25941765308380127,0.05001187324523926,-0.01133379340171814,-0.0002104043960571289,0.5155541867602473,-0.5691762563808219,0.21524302855906002,0.603251906224601
1728404752176591600,3.784591552734375,-0.14250989258289337,-0.5196287631988525,-0.023853154852986336,0.9071462750434875,0.3280199468135834,-0.2636075019836426,0.020939171314239502,-0.015504568815231323,0.012737929821014404,0.5156538552460495,-0.5681179269666018,0.2131625607849035,0.604900883203566
1728404752186622700,3.794622802734375,-0.11954519897699356,-0.49084532260894775,-0.00718070100992918,0.9057412147521973,0.3284968137741089,-0.2678113281726837,0.014043450355529785,-0.057378530502319336,0.0035598278045654297,0.5158842020409173,-0.5669169462638074,0.21142257535514383,0.6064398987989256
1728404752196652500,3.804652587890625,-0.12777189910411835,-0.40605658292770386,0.033790167421102524,0.9045693278312683,0.32871076464653015,-0.2714847922325134,-0.001706540584564209,-0.05891996622085571,-0.005431503057479858,0.5159831403705955,-0.5658487347789714,0.20993524431071578,0.6078684896447064
1728404752206682600,3.8146826171875,-0.11605558544397354,-0.3562650680541992,0.048360854387283325,0.9036999344825745,0.32863548398017883,-0.27445459365844727,-0.016447067260742188,0.00319749116897583,-0.01646926999092102,0.5158763040019784,-0.5649868983774291,0.20871634229101427,0.6091790005636493
1728404752216713700,3.824713623046875,-0.11912787705659866,-0.43655383586883545,0.045778654515743256,0.902786374092102,0.3284960091114044,-0.27761033177375793,-0.012969970703125,0.02881920337677002,-0.0031816959381103516,0.5158012831153227,-0.564039067360693,0.20749641106729386,0.6105362224410292
1728404752226743800,3.834743896484375,-0.183984637260437,-0.5359919667243958,0.0496080107986927,0.9015578031539917,0.32849034667015076,-0.28158077597618103,0.0015031695365905762,-0.011397361755371094,0.022013753652572632,0.5157547220958153,-0.5628619708601417,0.2059029211672949,0.6121989246052947
1728404752236773600,3.844773681640625,-0.2048577517271042,-0.5229257941246033,0.049015458673238754,0.9002147912979126,0.3285669982433319,-0.28575754165649414,0.010551989078521729,-0.04351744055747986,0.028891265392303467,0.5155776220739026,-0.5616761863475153,0.20406148729547777,0.6140510475743883
1728404752246804700,3.8548046875,-0.16257847845554352,-0.46218517422676086,0.04645003750920296,0.8989577293395996,0.3286730647087097,-0.2895674407482147,-0.011872589588165283,-0.05096295475959778,0.014222800731658936,0.5154062359531354,-0.5605968915633688,0.20235465982968168,0.6157436889537721
1728404752256834800,3.864834716796875,-0.0738043412566185,-0.39326047897338867,0.0709010511636734,0.8978900909423828,0.3285106420516968,-0.2930433750152588,-0.06228816509246826,-0.04961037635803223,0.022001683712005615,0.5153326903668725,-0.5595195949751247,0.2010376540777976,0.6172147916175016
1728404752266865700,3.87486572265625,-0.04411248862743378,-0.3210485875606537,0.08838869631290436,0.8971142768859863,0.3279143273830414,-0.296071857213974,-0.08758950233459473,-0.034350305795669556,0.025838881731033325,0.5152825182418216,-0.5584700789364753,0.2001880274273037,0.6184820969822978
1728404752276895700,3.884895751953125,-0.009745328687131405,-0.3214096426963806,0.05702092498540878,0.8964168429374695,0.3273301422595978,-0.2988179326057434,-0.07454782724380493,-0.02195584774017334,-0.0028023719787597656,0.5152855857428896,-0.5574898755716146,0.1994895397164988,0.6195885349733841
1728404752286926800,3.8949267578125,-0.00553540326654911,-0.31217485666275024,0.07093753665685654,0.8956437706947327,0.32680100202560425,-0.3017009198665619,-0.05430459976196289,-0.029574930667877197,-0.02592030167579651,0.5154096122825867,-0.5564377010815921,0.19881304088741047,0.6206476312105162
1728404752296956700,3.904956787109375,0.01659000664949417,-0.2889425754547119,0.11155740171670914,0.8950508832931519,0.3259444534778595,-0.30437543988227844,-0.045227766036987305,-0.030442625284194946,-0.013586997985839844,0.5154328237912166,-0.5554073659090918,0.198330373724465,0.6217048605895396
1728404752306986500,3.914986572265625,0.03156735748052597,-0.34738990664482117,0.12391899526119232,0.8944721221923828,0.3247888684272766,-0.30729758739471436,-0.029680252075195312,-0.024160116910934448,0.04417523741722107,0.5154484733153024,-0.5542333564321152,0.19793078030514613,0.6228657109263454
1728404752317017600,3.925017578125,0.019501838833093643,-0.3804563581943512,0.14729303121566772,0.8937796950340271,0.32347986102104187,-0.31067511439323425,-0.027782201766967773,-0.04245859384536743,0.08249539136886597,0.5154804386188568,-0.5528745116179575,0.19746447020362123,0.6241936665274127
1728404752327047700,3.935047607421875,-0.05662249028682709,-0.34999698400497437,0.15648998320102692,0.8931147456169128,0.3221707046031952,-0.3139301836490631,-0.037630677223205566,-0.04609334468841553,0.09574499726295471,0.5152987562611101,-0.5516178695844214,0.19685690003481532,0.6256455470789507
1728404752337078500,3.94507861328125,-0.042295679450035095,-0.3217649757862091,0.155099555850029,0.8925722241401672,0.32091912627220154,-0.31674274802207947,-0.05158388614654541,-0.03593060374259949,0.09643656015396118,0.514998017842551,-0.5505473654341729,0.1962809807806286,0.627015593678947
1728404752347108600,3.955108642578125,0.018900031223893166,-0.2826812267303467,0.14672523736953735,0.8920980095863342,0.3196018636226654,-0.319399356842041,-0.05985301733016968,-0.03403353691101074,0.05111953616142273,0.514776143189104,-0.5494841355758986,0.19587626913626283,0.6282557396732205
1728404752357138700,3.965138671875,0.05477707087993622,-0.2302381992340088,0.1615832895040512,0.891738772392273,0.31808286905288696,-0.32190895080566406,-0.0612943172454834,-0.024854600429534912,-0.003225088119506836,0.5146647757340473,-0.5483864849320159,0.1957492791680241,0.6293447137593897
1728404752367169500,3.97516943359375,0.15175767242908478,-0.16868269443511963,0.2125665694475174,0.8917239308357239,0.31610479950904846,-0.3238924741744995,-0.06561297178268433,0.0059320926666259766,-0.06511491537094116,0.5145158414686289,-0.5473655716013941,0.19607318464329332,0.6302537550932581
1728404752377199600,3.98519970703125,0.2625695466995239,-0.0704907700419426,0.23757977783679962,0.8920595049858093,0.31344905495643616,-0.3255453407764435,-0.06896978616714478,0.0711335837841034,-0.1413886547088623,0.5144823734669831,-0.5462631900220779,0.19703770860935108,0.6309363834055318
1728404752387230700,3.995230712890625,0.3452513813972473,-0.07638674229383469,0.2898824214935303,0.8926389813423157,0.31006497144699097,-0.32719355821609497,-0.09016388654708862,0.12598556280136108,-0.1244664192199707,0.5145830731341522,-0.5449558145304128,0.1985607848540831,0.6315071311150626
1728404752397260500,4.005260498046875,0.3346936106681824,-0.039736319333314896,0.33818310499191284,0.8934259414672852,0.3061259984970093,-0.3287508189678192,-0.1093071699142456,0.11815997958183289,-0.040191203355789185,0.5145712626453437,-0.5435837904494563,0.2003528325570947,0.6321328044265605
1728404752407290600,4.01529052734375,0.3294977843761444,-0.030157994478940964,0.3623371720314026,0.8943929076194763,0.3018752336502075,-0.33004996180534363,-0.09738039970397949,0.06099417805671692,0.04060620069503784,0.5143967059461434,-0.5422690162474852,0.20228527276011724,0.632788450348003
1728404752417321700,4.02532177734375,0.36910757422447205,-0.051881931722164154,0.3538440763950348,0.895340621471405,0.2974883019924164,-0.3314603865146637,-0.07838493585586548,0.01656818389892578,0.0753876268863678,0.5142344215744706,-0.5408770883520709,0.20425911000174637,0.6334770796861968
1728404752427351800,4.035351806640625,0.3747105896472931,-0.0501846969127655,0.33552899956703186,0.8961971402168274,0.2931143641471863,-0.33303871750831604,-0.06981152296066284,0.008551985025405884,0.07113710045814514,0.5142226213515235,-0.539378807805297,0.20627929491535255,0.6341092213356224
1728404752437382700,4.045382568359375,0.2899846136569977,-0.04191691428422928,0.31378135085105896,0.8969881534576416,0.28908267617225647,-0.33443039655685425,-0.07583630084991455,0.010951012372970581,0.053592562675476074,0.5141426425371066,-0.5380334228666841,0.20809814764732068,0.6347225581684559
1728404752447412700,4.055412841796875,0.23000434041023254,-0.015498623251914978,0.31656569242477417,0.8977969288825989,0.28539058566093445,-0.33542996644973755,-0.09031689167022705,0.014871984720230103,0.048717498779296875,0.5138516691405239,-0.5369543236657712,0.20967849826467133,0.635351643713746
