time,seconds_elapsed,rotationRateX,rotationRateY,rotationRateZ,gravityX,gravityY,gravityZ,accelerationX,accelerationY,accelerationZ,quaternionW,quaternionX,quaternionY,quaternionZ
1728405067878680300,0.039680419921875,-0.13375549018383026,-0.13071522116661072,-0.07369475066661835,0.06253684312105179,-0.24770908057689667,-0.9668140411376953,-0.0136171355843544,0.023160651326179504,-0.0005016326904296875,0.9916689264115293,0.1248950482922723,0.03153110919849528,-1.1129384269655966e-17
1728405067888711200,0.049711181640625,-0.09483152627944946,-0.1582898646593094,-0.03406877443194389,0.06217768043279648,-0.24655315279960632,-0.9671326279640198,-0.005353920161724091,0.03373873233795166,-0.0013427138328552246,0.9917491076308289,0.12431499894773816,0.031296572282975915,-0.0004061651391252946
1728405067898741200,0.0597412109375,-0.06792434304952621,-0.1808789074420929,0.021897289901971817,0.06152670830488205,-0.24568450450897217,-0.9673952460289001,0.005764570087194443,0.032458096742630005,-0.0015225410461425781,0.9918151885000995,0.12387395807343606,0.030945310861916982,-0.0005757801116494956
1728405067908771300,0.069771240234375,-0.05173845216631889,-0.1887861043214798,0.03935351222753525,0.06051386892795563,-0.24524572491645813,-0.9675704836845398,0.00773872435092926,0.03252287209033966,-0.001759350299835205,0.9918593103018913,0.12364681729568847,0.030434066821003837,-0.0005711524648252244
1728405067918802200,0.07980224609375,-0.06302173435688019,-0.17633740603923798,0.031446587294340134,0.05914889648556709,-0.24493373930454254,-0.9677339196205139,-0.0006771907210350037,0.02885393798351288,-0.011361539363861084,0.9919006339023543,0.12348286425312434,0.0297495713717237,-0.0005331025529036348
1728405067928832300,0.089832275390625,-0.06968948990106583,-0.1677473932504654,0.027583405375480652,0.05760439857840538,-0.24460369348526,-0.9679105281829834,-0.017916269600391388,0.01279209554195404,-0.011947870254516602,0.9919451678280383,0.12330939740666821,0.028974676966432446,-0.0004939546906590814
1728405067938863400,0.09986328125,-0.06305695325136185,-0.15862397849559784,0.020334545522928238,0.055941447615623474,-0.24418571591377258,-0.9681136012077332,-0.026446186006069183,0.00488203763961792,-0.008586227893829346,0.9919963644261431,0.12309104417024572,0.028139019404735476,-0.00046241996646323474
1728405067948893200,0.10989306640625,-0.039749499410390854,-0.1463630497455597,0.022596368566155434,0.054185815155506134,-0.24369557201862335,-0.9683369398117065,-0.025209348648786545,-0.0005977153778076172,-0.011445164680480957,0.9920526797089156,0.12283552785285194,0.027257588211422174,-0.0004228803704724061
1728405067958924300,0.11992431640625,-0.04883194714784622,-0.1231357604265213,0.02155454084277153,0.052741169929504395,-0.24283306300640106,-0.9686332941055298,-0.017951112240552902,0.0011795461177825928,-0.01592475175857544,0.9921273367839415,0.12239028109534675,0.026532359213739434,-0.0003848845927990008
1728405067968954400,0.129954345703125,-0.05623207241296768,-0.11939854919910431,-0.0038165957666933537,0.05169621482491493,-0.2415914386510849,-0.9690000414848328,-0.009658228605985641,0.006239801645278931,-0.008035480976104736,0.9922197660830941,0.12175409578830484,0.025998409863133558,-0.00042685560538544633
1728405067978984400,0.139984375,-0.04098886996507645,-0.12934891879558563,-0.012222863733768463,0.05093434080481529,-0.24041737616062164,-0.9693323373794556,-0.00003099814057350159,0.0012052655220031738,-0.003186523914337158,0.992303398767099,0.12115577297833781,0.025595068102438185,-0.000570320018705533
1728405067989015300,0.150015380859375,-0.017009232193231583,-0.13798847794532776,0.008803591132164001,0.05009220167994499,-0.23946556448936462,-0.9696117639541626,0.0158868245780468,0.002527013421058655,-0.014381706714630127,0.9923737449798106,0.12067038673744356,0.025154748986399834,-0.000689388421035011
1728405067999045400,0.16004541015625,-0.0018106399802491069,-0.13312113285064697,0.010270459577441216,0.048942930996418,-0.23882251977920532,-0.9698290824890137,0.01810421049594879,0.006522625684738159,-0.017628192901611328,0.9924284145272709,0.120340373390324,0.02456959568526441,-0.0007304326227436284
1728405068009076500,0.170076416015625,-0.02029244415462017,-0.1123519316315651,-0.006361512467265129,0.04752323403954506,-0.23852820694446564,-0.9699720740318298,-0.0021130628883838654,-0.000592350959777832,-0.01714944839477539,0.9924643914711361,0.12018849543544868,0.023847074416530403,-0.0007841412283782608
1728405068019106300,0.180106201171875,-0.0182025283575058,-0.09632641077041626,-0.0041257888078689575,0.04611741006374359,-0.23827852308750153,-0.9701012969017029,-0.029363233596086502,-0.016268685460090637,-0.01276308298110962,0.9924968478476913,0.12006022306857929,0.02312772906837607,-0.0008704557173910517
1728405068029137400,0.190137451171875,0.02697773277759552,-0.12640760838985443,0.025530371814966202,0.044619716703891754,-0.23841993510723114,-0.9701365828514099,-0.03139033168554306,-0.01806512475013733,-0.0065326690673828125,0.992505699211316,0.12012956298087249,0.02237386543758363,-0.0008629781103577722
1728405068039167200,0.200167236328125,0.020357314497232437,-0.10838627815246582,0.032222896814346313,0.04314614459872246,-0.23868712782859802,-0.9701375365257263,-0.011987674981355667,-0.01654672622680664,-0.009339332580566406,0.9925059999773344,0.12026156977955187,0.021642095049969497,-0.0007746661915100377
1728405068049197300,0.210197265625,0.028292998671531677,-0.10658437758684158,0.0401412732899189,0.04202014207839966,-0.23881740868091583,-0.9701549410820007,0.007815085351467133,-0.01356305181980133,-0.0037067532539367676,0.9925105242914815,0.12032396178393209,0.021087567687158196,-0.0006685147240385183
1728405068059228200,0.220228271484375,0.02532956749200821,-0.12056532502174377,0.06250756233930588,0.04099747911095619,-0.23909758031368256,-0.970129668712616,0.00033859163522720337,-0.012703031301498413,0.002127408981323242,0.992504196460308,0.12046206957786101,0.020592732471085465,-0.000501124758912986
1728405068069258200,0.23025830078125,0.0024165292270481586,-0.1429681032896042,0.06585169583559036,0.04007244110107422,-0.23913908004760742,-0.9701581001281738,0.0059175752103328705,-0.02003154158592224,-0.002330303192138672,0.9925115415382132,0.12047758077979809,0.020152145840516677,-0.000290370536454505
1728405068079289000,0.2402890625,-0.053645409643650055,-0.13960997760295868,0.029330968856811523,0.039167921990156174,-0.2386789172887802,-0.9703083038330078,0.009034615010023117,-0.01890479028224945,0.002397596836090088,0.9925494093827208,0.12023856439277071,0.019710948502903627,-0.00016526742464463275
1728405068089315000,0.250315185546875,-0.10059773921966553,-0.12519322335720062,0.006677857134491205,0.03793672099709511,-0.2378968745470047,-0.9705492854118347,-0.004886157810688019,-0.022509709000587463,0.006849944591522217,0.9926100328569667,0.11983695425954967,0.01909108624918353,-0.0001531767593109516
1728405068099345200,0.26034521484375,-0.12499788403511047,-0.09419988095760345,-0.002875168342143297,0.03642359375953674,-0.2370995283126831,-0.9708023071289062,-0.016297228634357452,-0.020362094044685364,0.004798948764801025,0.9926738436056569,0.11942794073262943,0.018325013943352866,-0.00017613377480288112
1728405068109376300,0.270376220703125,-0.14842957258224487,-0.09693063050508499,-0.029878290370106697,0.03508865460753441,-0.23611198365688324,-0.9710921049118042,-0.005349248647689819,-0.0013301223516464233,-0.0036240220069885254,0.9927467679200548,0.1189232464518351,0.017640761636945168,-0.0002650234847318606
1728405068119406300,0.28040625,-0.14686429500579834,-0.1190674677491188,-0.03625815734267235,0.03404851257801056,-0.2350020855665207,-0.9713983535766602,0.018685877323150635,0.006349056959152222,-0.0005712509155273438,0.9928237649130549,0.11835871333800627,0.017089405435291926,-0.0004857209058031599
1728405068129437200,0.290437255859375,-0.14392922818660736,-0.11243007332086563,-0.012239641509950161,0.033286385238170624,-0.2339041829109192,-0.9716897010803223,0.04628821462392807,0.01230071485042572,0.005228579044342041,0.992897047953921,0.11780023244790451,0.01668111174550621,-0.0006839264713344958
1728405068139466200,0.30046630859375,-0.12206108868122101,-0.09890615940093994,-0.002116433810442686,0.03246883302927017,-0.23296989500522614,-0.9719417691230774,0.04686162993311882,0.012709200382232666,0.005267024040222168,0.9929603830396319,0.11732349616294259,0.016257676192060245,-0.0007772295205658379
1728405068149496300,0.310496337890625,-0.10830133408308029,-0.09351379424333572,-0.015298815444111824,0.03182161599397659,-0.23235353827476501,-0.9721106886863708,0.027306213974952698,0.0019152164459228516,0.006137847900390625,0.993002880514242,0.1170092954283963,0.015920785516513804,-0.0008667802227065946
1728405068159527400,0.32052734375,-0.13509519398212433,-0.08489005267620087,-0.05029834434390068,0.0313209593296051,-0.23168708384037018,-0.9722860455513,0.007207505404949188,-0.012804567813873291,0.009685337543487549,0.9930467866199632,0.1166720885261291,0.015640182835686713,-0.001106055693844797
1728405068169557200,0.33055712890625,-0.19668158888816833,-0.04941248893737793,-0.06903261691331863,0.030853912234306335,-0.23065520823001862,-0.9725462794303894,-0.0027624573558568954,-0.020382463932037354,0.018170058727264404,0.9931118828961848,0.1161497489076425,0.015365826031681384,-0.0014375543580183248
1728405068179588400,0.34058837890625,-0.27177801728248596,-0.11884477734565735,-0.10290989279747009,0.030120469629764557,-0.22906255722045898,-0.9729455709457397,0.018524568527936935,-0.015093401074409485,0.03196662664413452,0.9932114261644249,0.1153439425210876,0.014932609344865143,-0.00198533922066512
1728405068189618400,0.350618408203125,-0.4007247984409332,-0.09914776682853699,-0.029556579887866974,0.029251577332615852,-0.22592692077159882,-0.973704993724823,0.06397964060306549,-0.013224169611930847,0.0400044322013855,0.993401787255735,0.11374780088186073,0.014455125294650872,-0.0023388717719748267
1728405068199649300,0.360649169921875,-0.4973474144935608,-0.059125304222106934,0.0033646184019744396,0.028601523488759995,-0.22156170010566711,-0.9747267961502075,0.1090022549033165,-0.000514790415763855,0.047923266887664795,0.9936587400074544,0.11152216288975998,0.014120849188708217,-0.002416169513884713
1728405068209679400,0.370679443359375,-0.5206162929534912,-0.029775669798254967,0.1524941772222519,0.02928038127720356,-0.21653521060943604,-0.9758356213569641,0.13136416673660278,0.011945277452468872,0.03922063112258911,0.9939386718642447,0.10895673660160317,0.014512621751932823,-0.001978169752114445
1728405068219710500,0.38071044921875,-0.4525582194328308,-0.22185152769088745,0.20752361416816711,0.027419066056609154,-0.21188396215438843,-0.9769101142883301,0.196076437830925,0.010010108351707458,0.017391681671142578,0.9942103046934814,0.10657408849777955,0.013671157103033332,-0.0011027840998719814
1728405068229740300,0.390740234375,-0.40868663787841797,-0.1770172119140625,-0.138331800699234,0.025650084018707275,-0.20764118432998657,-0.9778687357902527,0.17335505783557892,-0.011429324746131897,0.021508872509002686,0.9944514035396694,0.10441173297769854,0.012799818071474225,-0.000921783117671957
1728405068239770400,0.400770263671875,-0.5234700441360474,-0.29460129141807556,-1.0864394903182983,0.02549993246793747,-0.20292842388153076,-0.9788615107536316,0.04121151566505432,-0.08833141624927521,0.008249938488006592,0.994691524243624,0.10206074202878637,0.012363691861012284,-0.004427820760215672
1728405068249801500,0.410801513671875,-0.6713100671768188,-0.5821963548660278,-0.7304180264472961,0.022771673277020454,-0.19676172733306885,-0.9801868796348572,0.0012609399855136871,-0.23982281982898712,0.05075877904891968,0.994989548085295,0.09897613912203057,0.010502011574886479,-0.009461318414186933
1728405068259831600,0.42083154296875,-0.7158231139183044,-0.6484455466270447,0.18289177119731903,0.017090676352381706,-0.18978337943553925,-0.981677234172821,0.23637308180332184,-0.11035707592964172,0.09074705839157104,0.9953470447669042,0.09541906539622995,0.007522542438621707,-0.011085814492970067
1728405068269862400,0.4308623046875,-0.5903069972991943,-0.39446866512298584,0.6704103350639343,0.0109003446996212,-0.18329793214797974,-0.9829970002174377,0.2549077868461609,0.012902960181236267,0.050227224826812744,0.995699804174605,0.09208659566895866,0.004644543230878515,-0.00896549063196981
1728405068279892200,0.440892333984375,-0.387906551361084,-0.050044722855091095,0.6277246475219727,0.007442044094204903,-0.1785418838262558,-0.9839041829109192,0.04945800080895424,0.03416314721107483,0.0006430745124816895,0.995951336394275,0.08965247335723633,0.003216777780034095,-0.0057697015198661305
1728405068289923300,0.45092333984375,-0.3101843297481537,0.09354626387357712,0.7917404770851135,0.006860289257019758,-0.17527541518211365,-0.9844955205917358,-0.08385612070560455,0.005826488137245178,-0.041795313358306885,0.9961140193126715,0.08798676435812741,0.0032493307374019498,-0.002198521956276481
1728405068299953200,0.460953125,-0.41025394201278687,-0.29090937972068787,0.6352600455284119,0.004339716862887144,-0.1718667894601822,-0.9851106405258179,0.17951345443725586,-0.05669468641281128,-0.022930681705474854,0.996269997199167,0.0862522049824346,0.002288084677450568,0.0012717539010263968
1728405068309983200,0.470983154296875,-0.5241591930389404,-0.5062041282653809,0.6186094284057617,-0.0006846255855634809,-0.16730482876300812,-0.9859049916267395,0.2851084768772125,-0.09090447425842285,0.0425150990486145,0.9964609884657757,0.08394944200491931,0.000016009349288330717,0.004267633963930204
1728405068320014300,0.481014404296875,-0.662278413772583,-0.6313323378562927,0.6098388433456421,-0.007483680732548237,-0.16135355830192566,-0.9868683218955994,0.28336259722709656,-0.110787034034729,0.011984288692474365,0.9966865986038314,0.08096754628878608,-0.0031796510135744917,0.0070735109375323615
1728405068330044200,0.491044189453125,-0.7078655958175659,-0.6003853678703308,0.7433388233184814,-0.014705182984471321,-0.154451385140419,-0.9878909587860107,0.24198485910892487,-0.11186033487319946,-0.007836580276489258,0.9969164654839923,0.0775316451816757,-0.006585527784470397,0.01015547124057417
1728405068340075300,0.5010751953125,-0.7161738276481628,-0.5223800539970398,0.916628897190094,-0.021550627425312996,-0.14723138511180878,-0.9888672828674316,0.19408176839351654,-0.09808424115180969,-0.04955434799194336,0.9971136335407104,0.07396662272097929,-0.009762139362865404,0.014078671409352919
1728405068350105300,0.511105224609375,-0.7292259931564331,-0.44234219193458557,1.0455354452133179,-0.027704227715730667,-0.13980045914649963,-0.9897920489311218,0.18386268615722656,-0.07864442467689514,-0.0773007869720459,0.9972680010919204,0.07032838388782711,-0.0125654467581562,0.01878325272623651
1728405068360136200,0.52113623046875,-0.750876784324646,-0.43150755763053894,1.1502224206924438,-0.033483315259218216,-0.13207639753818512,-0.990673840045929,0.2033746838569641,-0.07426826655864716,-0.08819878101348877,0.9973748887101594,0.06657863234098406,-0.015177467744732281,0.024092291665755862
1728405068370166300,0.531166259765625,-0.7949265241622925,-0.5071913599967957,1.2164350748062134,-0.039629243314266205,-0.12398987263441086,-0.9914917945861816,0.2516501247882843,-0.08018805831670761,-0.06617110967636108,0.9974256063535325,0.06269255914623026,-0.01799253089424227,0.029802762115480573
1728405068380196400,0.5411962890625,-0.8269194960594177,-0.6461106538772583,1.2875542640686035,-0.04683496430516243,-0.11533598601818085,-0.9922217726707458,0.3048763573169708,-0.09064248204231262,-0.025753021240234375,0.9974112149819476,0.05858494030909464,-0.021375356752931767,0.03580205486735138
1728405068390227200,0.551227294921875,-0.8426057696342468,-0.762619137763977,1.3488564491271973,-0.05537570267915726,-0.1063753217458725,-0.9927828907966614,0.33648836612701416,-0.09960314631462097,0.023742973804473877,0.9973053970452647,0.05440666378431803,-0.025465286571257063,0.04211219967786481
1728405068400257300,0.56125732421875,-0.8919087648391724,-0.805557370185852,1.3939908742904663,-0.06462930887937546,-0.09689033031463623,-0.9931945204734802,0.33637309074401855,-0.10145873576402664,0.040222108364105225,0.9971113571252914,0.050047459710404515,-0.029966666372960606,0.04864483682286631
1728405068410288400,0.571288330078125,-0.8822846412658691,-0.8281577825546265,1.4578911066055298,-0.07407960295677185,-0.08701390773057938,-0.9934489130973816,0.31048402190208435,-0.0958627462387085,0.06872057914733887,0.9968209017003661,0.04557108876476944,-0.03462378649200695,0.05543178072169203
1728405068420318500,0.581318359375,-0.8687800168991089,-0.860241711139679,1.5537347793579102,-0.08372198790311813,-0.07711856812238693,-0.9935005307197571,0.30126655101776123,-0.09896792471408844,0.08279502391815186,0.9964083756889379,0.04117576748285552,-0.039424326366998705,0.06261605395351322
1728405068430349300,0.591349365234375,-0.8819096684455872,-0.8719654679298401,1.6394845247268677,-0.09350135922431946,-0.06697550415992737,-0.9933638572692871,0.30042579770088196,-0.100779689848423,0.09248495101928711,0.9958654850831161,0.03675513158867678,-0.04435228118240188,0.07024250557846876
1728405068440379400,0.60137939453125,-0.8873835802078247,-0.8791047930717468,1.7050234079360962,-0.10326901823282242,-0.05652754381299019,-0.9930458664894104,0.2857336103916168,-0.10536827147006989,0.10451138019561768,0.9951891291111985,0.032279944020377094,-0.04934630894235072,0.0782404655481184
1728405068450409500,0.611409423828125,-0.9115715026855469,-0.8625556826591492,1.7543312311172485,-0.11285185068845749,-0.04571761563420296,-0.9925594925880432,0.2622354030609131,-0.11532370746135712,0.09970670938491821,0.9943828622797807,0.027714487891891192,-0.05433375320042261,0.08650248895596936
1728405068460440300,0.6214404296875,-0.9306836128234863,-0.8307479619979858,1.8220207691192627,-0.1220192015171051,-0.034417588263750076,-0.9919308423995972,0.2397560179233551,-0.10428486764431,0.10423552989959717,0.9934462062936255,0.02298634419403283,-0.059213336737189044,0.09502761543491937
1728405068470470400,0.631470458984375,-0.9129671454429626,-0.7634544372558594,1.920000433921814,-0.13048364222049713,-0.022858163341879845,-0.9911869168281555,0.22731591761112213,-0.07545427232980728,0.10976302623748779,0.9923635225494741,0.01820474316668234,-0.06383668995846832,0.10396280177957411
1728405068480501500,0.64150146484375,-0.8814516067504883,-0.6717356443405151,2.036853790283203,-0.13795393705368042,-0.011246556416153908,-0.9903748035430908,0.22230450809001923,-0.045348357409238815,0.13258671760559082,0.9911192925840445,0.01346332144684642,-0.06805397175402414,0.11344642172830813
1728405068490531300,0.65153125,-0.8255401253700256,-0.5714151859283447,2.140753984451294,-0.14422598481178284,0.00020264108025003225,-0.9895447492599487,0.20991505682468414,-0.02669195644557476,0.17644965648651123,0.989707839890649,0.00885156019194464,-0.0717584220515805,0.12349461990651472
1728405068500562400,0.6615625,-0.7565189599990845,-0.5005012154579163,2.192094087600708,-0.14941814541816711,0.011244593188166618,-0.9887101650238037,0.18925882875919342,-0.028639670461416245,0.2163102626800537,0.9881360240124786,0.004476910656437511,-0.07499918532570145,0.1339493634391755
1728405068510592300,0.67159228515625,-0.7144756317138672,-0.43196743726730347,2.209794759750366,-0.15371428430080414,0.021843818947672844,-0.9878738522529602,0.16572293639183044,-0.02515503391623497,0.2495010495185852,0.9864269709252904,0.0003391676693399692,-0.0778649748664422,0.14456401372479183
1728405068520622300,0.681622314453125,-0.7151086926460266,-0.34942248463630676,2.2227418422698975,-0.15698091685771942,0.032378796488046646,-0.9870707392692566,0.14748992025852203,0.005417171865701675,0.2543131709098816,0.9846032655749654,-0.00378164859147896,-0.08031399885794156,0.15521545541505993
1728405068530653200,0.691653076171875,-0.6767929792404175,-0.24611791968345642,2.2662274837493896,-0.15911148488521576,0.042834095656871796,-0.9863309860229492,0.12905164062976837,0.03202546760439873,0.2548856735229492,0.982654602061294,-0.007893339887756123,-0.08229343814555794,0.16599891432206196
1728405068540683300,0.701683349609375,-0.6685885787010193,-0.10243107378482819,2.3265798091888428,-0.15977640450000763,0.053142573684453964,-0.9857217669487,0.11143653094768524,0.03573981672525406,0.24603670835494995,0.9805703351797409,-0.011997347214868356,-0.0836372461853191,0.1770388840611696
1728405068550714400,0.71171435546875,-0.7122726440429688,0.06411636620759964,2.385240316390991,-0.1585826873779297,0.0637316182255745,-0.9852866530418396,0.0885142982006073,0.03870058059692383,0.2545585036277771,0.978355690974887,-0.016364535569210855,-0.0841954244518826,0.18831751331999166
1728405068560744200,0.721744140625,-0.7346014380455017,0.210698664188385,2.454488515853882,-0.1555275022983551,0.07470918446779251,-0.9850023984909058,0.06409680843353271,0.03118675947189331,0.29400813579559326,0.9759910152667671,-0.021074125314018893,-0.08399213477695246,0.19985724219346457
1728405068570775300,0.731775390625,-0.7847139239311218,0.32319965958595276,2.490755319595337,-0.15087087452411652,0.08599899709224701,-0.9848056435585022,0.05811266601085663,0.007079564034938812,0.3198276162147522,0.9734625413895424,-0.026094648816322463,-0.08316397231142461,0.211598072904649
1728405068580805400,0.741805419921875,-0.8754984736442566,0.40354791283607483,2.51336932182312,-0.14497490227222443,0.09791231155395508,-0.9845788478851318,0.05986134707927704,-0.00727514922618866,0.34860777854919434,0.970763746422588,-0.0315746420057228,-0.08193673895475038,0.2233996244586802
1728405068590835500,0.75183544921875,-0.9415123462677002,0.45775681734085083,2.53094220161438,-0.13806568086147308,0.11051211506128311,-0.9842382669448853,0.0672953724861145,-0.004204176366329193,0.36108458042144775,0.9678811124225398,-0.037539703214364506,-0.08044652599574723,0.23521322828869007
1728405068600866300,0.7618662109375,-0.9546953439712524,0.4934903085231781,2.5764307975769043,-0.13036194443702698,0.12337366491556168,-0.9837604761123657,0.08145749568939209,0.015877999365329742,0.3374439477920532,0.9647917026172754,-0.04376423258684821,-0.07876830900230385,0.24709765150212779
1728405068610896400,0.771896484375,-0.911020040512085,0.5326507687568665,2.6423771381378174,-0.12192954123020172,0.1359160840511322,-0.9831886887550354,0.09725604951381683,0.051980599761009216,0.3094063401222229,0.9614559038079106,-0.049955057413671865,-0.07687747512627123,0.25922364363840794
1728405068620927200,0.78192724609375,-0.8332861065864563,0.6175642013549805,2.689648389816284,-0.11247853189706802,0.14767232537269592,-0.9826197028160095,0.09914232790470123,0.100389763712883,0.2700952887535095,0.9578864528851316,-0.05593851461031111,-0.07457234784923496,0.2715941835788899
1728405068630957300,0.791957275390625,-0.8250225782394409,0.7522208094596863,2.696807384490967,-0.10164283961057663,0.15865854918956757,-0.9820876717567444,0.08005163073539734,0.15240709483623505,0.21821743249893188,0.9541415983328785,-0.06181151943997037,-0.07166239556689108,0.28400293866062803
1728405068640988400,0.801988525390625,-0.846069872379303,0.8717637062072754,2.739715337753296,-0.08913672715425491,0.16953694820404053,-0.9814845323562622,0.05294285714626312,0.20131263136863708,0.2021723985671997,0.9502027483472691,-0.0679660562631697,-0.06810544882257569,0.2964070966647195
1728405068651018500,0.8120185546875,-0.8677123188972473,0.9816316366195679,2.8119423389434814,-0.07514951378107071,0.18021532893180847,-0.9807522892951965,0.04411311447620392,0.20871591567993164,0.21364712715148926,0.9459917757580438,-0.07434629605064672,-0.06400389053498624,0.30899179405743915
1728405068661048300,0.82204833984375,-0.9895954728126526,1.0580718517303467,2.8551177978515625,-0.05983896926045418,0.19122865796089172,-0.9797198176383972,0.03292243182659149,0.1738836169242859,0.24116390943527222,0.9414607118614448,-0.08121458001226628,-0.05953391873722481,0.3217323784307052
1728405068671079400,0.832079345703125,-1.1751075983047485,1.1270432472229004,2.8670830726623535,-0.04340542107820511,0.20332258939743042,-0.9781492352485657,-0.005026005208492279,0.12310865521430969,0.3175809979438782,0.9366029511232883,-0.08892960642871056,-0.05492644560584132,0.33443936823146597
1728405068681109500,0.842109619140625,-1.3495285511016846,1.1441030502319336,2.8508193492889404,-0.02621343545615673,0.21674847602844238,-0.9758754968643188,-0.04449582099914551,0.06453201174736023,0.39819300174713135,0.9314218835380736,-0.09757135571588754,-0.05041912573831873,0.34697437062049413
1728405068691140400,0.852140380859375,-1.463596224784851,1.123729944229126,2.7720048427581787,-0.008837433531880379,0.23097927868366241,-0.9729185104370117,-0.07699328660964966,0.013298645615577698,0.4446287155151367,0.9259891297347964,-0.10680122353228008,-0.0461977250225453,0.3591707381675037
1728405068701170200,0.862170166015625,-1.5708953142166138,1.1609876155853271,2.6523993015289307,0.00873080175369978,0.24581187963485718,-0.9692782163619995,-0.11020177602767944,0.012183710932731628,0.435876727104187,0.9204248098937191,-0.11653421185660133,-0.04219785188508605,0.3707525034246452
1728405068711201500,0.872201416015625,-1.5348552465438843,1.2516692876815796,2.5711371898651123,0.027027547359466553,0.2605375647544861,-0.9650853276252747,-0.13496825098991394,0.07916882634162903,0.39765673875808716,0.9147933267292646,-0.126536191646568,-0.03802530795686041,0.3817016417049538
1728405068721231000,0.882231201171875,-1.3758903741836548,1.3880493640899658,2.5780093669891357,0.04663875326514244,0.2736819386482239,-0.9606888294219971,-0.12519103288650513,0.17597928643226624,0.31000828742980957,0.9090806596829156,-0.13622577200741887,-0.0331379401475327,0.3923225162875764
1728405068731262200,0.89226220703125,-1.2166008949279785,1.552728533744812,2.6273646354675293,0.06808414310216904,0.28465986251831055,-0.9562077522277832,-0.09451238811016083,0.27333876490592957,0.2287907600402832,0.9031984057363005,-0.1454529030048776,-0.02719490461438131,0.4029102569561325
1728405068741292300,0.902292236328125,-1.1076598167419434,1.70173180103302,2.6943633556365967,0.09138736128807068,0.29360735416412354,-0.9515477418899536,-0.07948552817106247,0.33781659603118896,0.1806889772415161,0.8970726256793109,-0.15432957220153148,-0.020211734915132704,0.4135634812625068
1728405068751322400,0.912322265625,-1.090291976928711,1.8290867805480957,2.7459311485290527,0.1163586899638176,0.3011782169342041,-0.9464419484138489,-0.09049505740404129,0.3239743411540985,0.16551238298416138,0.8906292429827215,-0.1631720846700411,-0.012405656072649896,0.4242648794107004
1728405068761353200,0.922353271484375,-1.1615285873413086,1.9292072057724,2.7475876808166504,0.1425589919090271,0.30820325016975403,-0.9405784010887146,-0.1271934062242508,0.23694750666618347,0.2104453444480896,0.8838368534159015,-0.17231851752823257,-0.004139439391811869,0.4348812016992581
1728405068771383300,0.93238330078125,-1.341548204421997,2.001893997192383,2.6704866886138916,0.1695704162120819,0.31571924686431885,-0.9335776567459106,-0.1811213344335556,0.11558565497398376,0.26534950733184814,0.8767358635897327,-0.18219071744339793,0.004209081204166597,0.4451102588848479
1728405068781414100,0.9424140625,-1.442538857460022,2.0300068855285645,2.5052273273468018,0.19666263461112976,0.32396170496940613,-0.9254040718078613,-0.23343633115291595,0.020673304796218872,0.31189388036727905,0.8694896730384889,-0.19273374573348442,0.012315788122503474,0.45463168938024967
1728405068791444200,0.9524443359375,-1.6035254001617432,2.1254022121429443,2.2895572185516357,0.2237209528684616,0.3329392671585083,-0.9160242676734924,-0.2514919638633728,0.006538271903991699,0.27521610260009766,0.8622944829169102,-0.20391000572649282,0.02021348752463547,0.4630988737464735
1728405068801475300,0.962475341796875,-1.693925142288208,2.240018129348755,2.183349132537842,0.25121235847473145,0.34283310174942017,-0.9051838517189026,-0.23351219296455383,0.09802386164665222,0.2539387345314026,0.8550663658715241,-0.2159175624162013,0.028065495638272625,0.4705885025467869
1728405068811505400,0.97250537109375,-1.6503175497055054,2.3306524753570557,2.2261786460876465,0.279522567987442,0.3520751893520355,-0.8932582139968872,-0.15847459435462952,0.20154419541358948,0.1970607042312622,0.8476058766661271,-0.22815047744329267,0.036307793197425775,0.4776960509300408
1728405068821535200,0.98253515625,-1.648752212524414,2.36186146736145,2.283616781234741,0.30850279331207275,0.36006292700767517,-0.8804434537887573,-0.07012999057769775,0.25285211205482483,0.09656894207000732,0.839735285730595,-0.24033210529981647,0.044930366641528205,0.48483651351182705
1728405068831566300,0.99256640625,-1.7134143114089966,2.3340961933135986,2.20644474029541,0.3373180031776428,0.3674858808517456,-0.866701066493988,-0.03812366724014282,0.2661963999271393,0.03630250692367554,0.8315613251631424,-0.25257191441481036,0.053449956150284944,0.491788999787462
1728405068841596400,1.002596435546875,-1.8065402507781982,2.348129987716675,2.025156021118164,0.36534571647644043,0.3752240538597107,-0.8518975973129272,-0.05403590202331543,0.2733812928199768,-0.038788437843322754,0.8233438843690039,-0.26507878885684144,0.0615178383486344,0.4980501197877032
1728405068851627300,1.012627197265625,-1.859091877937317,2.3910961151123047,1.8647509813308716,0.39275965094566345,0.38338154554367065,-0.8359177708625793,-0.07391196489334106,0.29545146226882935,-0.08647602796554565,0.815190207362782,-0.2779257426838355,0.0692703872034897,0.5034124451330864
1728405068861657300,1.0226572265625,-1.8590047359466553,2.390810251235962,1.7630996704101562,0.4196813404560089,0.3914868235588074,-0.8189051747322083,-0.06126764416694641,0.32411989569664,-0.09878891706466675,0.8070578035083316,-0.29092758916899547,0.076867020890795,0.5080458278594828
1728405068871688400,1.0326884765625,-1.7750029563903809,2.312906503677368,1.688686490058899,0.4457099437713623,0.39883580803871155,-0.801419198513031,-0.03982612490653992,0.35134729743003845,-0.0895872712135315,0.7989648338838014,-0.30362467326869774,0.08427605278635436,0.5122158307238008
1728405068881718300,1.04271826171875,-1.5791189670562744,2.1865105628967285,1.5783746242523193,0.4701983332633972,0.40468114614486694,-0.7843129634857178,-0.02888360619544983,0.36243924498558044,-0.07007241249084473,0.7911390859722539,-0.31540492541306375,0.09145081234163192,0.5159997150882658
1728405068891748400,1.052748291015625,-1.3444651365280151,2.074773073196411,1.436883807182312,0.4929148852825165,0.40878748893737793,-0.7680675387382507,-0.04249066114425659,0.36864784359931946,-0.04940682649612427,0.7838571634940448,-0.3259875921990408,0.09847998314953557,0.5192320226303918
1728405068901779500,1.062779541015625,-1.1206632852554321,2.0334205627441406,1.3199137449264526,0.5141885280609131,0.4112336039543152,-0.7526600360870361,-0.07267546653747559,0.3673156201839447,-0.024012327194213867,0.7771787210242225,-0.3354496651459545,0.10556281451284007,0.5218460872344539
1728405068911809300,1.072809326171875,-0.9492185711860657,2.02660870552063,1.250476360321045,0.5346711277961731,0.4122101068496704,-0.737705647945404,-0.09456193447113037,0.3541778326034546,-0.020839214324951172,0.7709488459694337,-0.34408418788797257,0.11293022609516526,0.5239187275935139
1728405068921840400,1.08284033203125,-0.7422160506248474,2.010200023651123,1.2421894073486328,0.5545985698699951,0.4116639196872711,-0.7231550812721252,-0.10374712944030762,0.31891167163848877,-0.047612130641937256,0.7650017329269025,-0.3519535148150317,0.12062828796643392,0.5256900001712242
1728405068931870200,1.0928701171875,-0.5017722845077515,2.0080208778381348,1.1945619583129883,0.5740281939506531,0.40916410088539124,-0.7092788815498352,-0.0945206880569458,0.26733434200286865,-0.13235020637512207,0.7594224386341902,-0.358831786073279,0.12884223209102375,0.5271785381995241
1728405068941901300,1.1029013671875,-0.39738520979881287,2.0763936042785645,1.0836261510849,0.5930536389350891,0.40562278032302856,-0.6955268383026123,-0.08997136354446411,0.23718425631523132,-0.2279961109161377,0.7542370265419293,-0.365153471370743,0.13747548922125194,0.528100482542911
1728405068951931100,1.11293115234375,-0.3339093029499054,2.112156391143799,1.0048441886901855,0.6117702126502991,0.40189602971076965,-0.6813347339630127,-0.0983729362487793,0.23891210556030273,-0.2330329418182373,0.7493108467213595,-0.37137218341309586,0.1463398398089479,0.5283946454758076
1728405068961961200,1.122961181640625,-0.2762119770050049,2.0682830810546875,1.020033836364746,0.629970908164978,0.3976781666278839,-0.6670747995376587,-0.08352315425872803,0.2109644114971161,-0.21329623460769653,0.7444870301518659,-0.3772983272893244,0.1552694002907856,0.5284661650665176
1728405068971992300,1.132992431640625,-0.2887117862701416,1.9862053394317627,1.079373836517334,0.6475542187690735,0.39277511835098267,-0.6529940366744995,-0.05621516704559326,0.15673962235450745,-0.1725216507911682,0.7395528165120762,-0.38285757810511983,0.16408249681323686,0.5287330328827347
1728405068982022400,1.1430224609375,-0.4174629747867584,1.9432228803634644,1.0981392860412598,0.66451096534729,0.3878762722015381,-0.6387310028076172,-0.051107585430145264,0.1066611111164093,-0.11813545227050781,0.7343399926153283,-0.38842764070438324,0.17250640641519857,0.5292546535921043
1728405068992053200,1.15305322265625,-0.4833059012889862,1.8869234323501587,1.0782124996185303,0.6808694005012512,0.3834385573863983,-0.6240125894546509,-0.06853419542312622,0.0573267936706543,-0.08387309312820435,0.7288420985738322,-0.39424560328202257,0.18045528733373298,0.5299014020168713
1728405069002083300,1.163083251953125,-0.46702033281326294,1.8672960996627808,1.008746862411499,0.6964495182037354,0.37919437885284424,-0.6092369556427002,-0.07540154457092285,0.012544512748718262,-0.12910526990890503,0.7233853964332964,-0.40000677209481006,0.18808534646470382,0.5304074447361512
1728405069012114200,1.1731142578125,-0.3783954083919525,1.8590424060821533,0.9548697471618652,0.7114139795303345,0.37486109137535095,-0.5944488048553467,-0.0651736855506897,0.038652122020721436,-0.17467045783996582,0.7181212328529671,-0.4055728816769756,0.1956686581795095,0.5305905994510373
1728405069022144300,1.183144287109375,-0.24952270090579987,1.832166075706482,0.9240487217903137,0.7258001565933228,0.3699428141117096,-0.579962432384491,-0.028977036476135254,0.11328780651092529,-0.16996121406555176,0.7131407219420947,-0.41067144445891357,0.20339062095272675,0.5304823304876529
1728405069032175400,1.19317529296875,-0.20272617042064667,1.7858332395553589,0.9201596975326538,0.7396137714385986,0.3644274175167084,-0.5658305883407593,0.012476742267608643,0.16280952095985413,-0.18571054935455322,0.7083431863715892,-0.4153194971528062,0.2111739081365656,0.530250305753276
1728405069042205400,1.203205322265625,-0.2856189012527466,1.7182395458221436,0.8876864314079285,0.7527375817298889,0.3589572012424469,-0.5518477559089661,0.045571744441986084,0.1405697762966156,-0.18583840131759644,0.7035460897457388,-0.4198395601320963,0.21865698555480279,0.5300442313573014
1728405069052235300,1.2132353515625,-0.513690710067749,1.6194229125976562,0.8115626573562622,0.7649166584014893,0.3546242117881775,-0.5377215147018433,0.06226235628128052,0.0707450807094574,-0.16451847553253174,0.6985845453423368,-0.42471784051941597,0.22528649596987824,0.5299439623824619
1728405069062266400,1.223266357421875,-0.7490727305412292,1.4827899932861328,0.6945379972457886,0.7758586406707764,0.3522045314311981,-0.5234458446502686,0.06905108690261841,0.024184048175811768,-0.13593220710754395,0.6934431795816021,-0.4302149784188089,0.23063422905721245,0.5299620162781471
1728405069072296400,1.23329638671875,-0.8681501150131226,1.3420487642288208,0.6207846999168396,0.7854747176170349,0.3513767421245575,-0.5094740986824036,0.08783155679702759,0.045138150453567505,-0.14338839054107666,0.6882769060121259,-0.4360651489726209,0.23475548402652419,0.5301056075343843
1728405069082327300,1.243327392578125,-0.8031638264656067,1.1985162496566772,0.6022515296936035,0.7940248250961304,0.3508357107639313,-0.49642613530158997,0.11858808994293213,0.11709031462669373,-0.18001118302345276,0.6832925353196931,-0.4416351319992326,0.23821281832462365,0.5304002517779637
1728405069092357400,1.253357421875,-0.6185367703437805,1.0517569780349731,0.5820141434669495,0.8016568422317505,0.3495401442050934,-0.484941303730011,0.1435794234275818,0.18775233626365662,-0.21288886666297913,0.6787842479035007,-0.44632209097395936,0.24150764840835995,0.5307754805232956
1728405069102388500,1.263388427734375,-0.5087680220603943,0.912161648273468,0.517945408821106,0.8082965612411499,0.3477916419506073,-0.4750766456127167,0.14249390363693237,0.2240772843360901,-0.23334312438964844,0.6748643222052968,-0.4501601443554532,0.244576214282038,0.531127698596534
1728405069112418300,1.273418212890625,-0.49492383003234863,0.8340982794761658,0.4420735538005829,0.8140508532524109,0.3462185561656952,-0.4663197994232178,0.10906016826629639,0.2197147011756897,-0.19772744178771973,0.6713990115332684,-0.4535404357256956,0.2472674183414277,0.5313976655860337
1728405069122448100,1.2834482421875,-0.6605288982391357,0.8752673864364624,0.3524528443813324,0.8193639516830444,0.34558698534965515,-0.4573974609375,0.07156628370285034,0.15230733156204224,-0.1590423583984375,0.6679868502205679,-0.45721194545854876,0.24951654485645966,0.5315001297197937
1728405069132479000,1.29347900390625,-0.9314749240875244,0.8961614966392517,0.24478016793727875,0.8244470953941345,0.34674447774887085,-0.4472755193710327,0.037521958351135254,0.08004388213157654,-0.10812914371490479,0.66423911171412,-0.46187614524155085,0.2510630693125109,0.5314360515918146
1728405069142509000,1.303509033203125,-1.1518807411193848,0.8190791606903076,0.14449670910835266,0.8289464116096497,0.34978532791137695,-0.4364610016345978,0.028445005416870117,0.039420634508132935,-0.07121413946151733,0.6602008085162706,-0.4674088705675736,0.25159181458816693,0.5313807788764395
1728405069152540000,1.313539794921875,-1.1928255558013916,0.6767510175704956,0.07528568059206009,0.8325561285018921,0.35404807329177856,-0.4260288178920746,0.048410236835479736,0.04162764549255371,-0.0755581259727478,0.6561785616955218,-0.47319141103028367,0.25114832800623577,0.5314549465027818
1728405069162570000,1.323570068359375,-1.082673192024231,0.5540178418159485,0.029716331511735916,0.835334837436676,0.3584495484828949,-0.4168089032173157,0.07663720846176147,0.0902809202671051,-0.10585036873817444,0.6525412292476359,-0.478514659399944,0.25023843167449755,0.5315961070925498
1728405069172601000,1.33360107421875,-0.8563689589500427,0.44131234288215637,-0.011122978292405605,0.8374305367469788,0.3624419867992401,-0.4090794324874878,0.09041070938110352,0.17118841409683228,-0.11173355579376221,0.6495332046473599,-0.4830343620066831,0.24927511953707554,0.5316449891260208
1728405069182631000,1.343630859375,-0.628404974937439,0.3443916141986847,-0.08279609680175781,0.8388391733169556,0.3658256530761719,-0.4031386375427246,0.08253240585327148,0.209293395280838,-0.10235452651977539,0.647392692237342,-0.4865122103063112,0.2484684187083593,0.5314623833324262
1728405069192661000,1.353660888671875,-0.5984854102134705,0.36906445026397705,-0.15728046000003815,0.8397979140281677,0.36924585700035095,-0.397991418838501,0.048904597759246826,0.17730873823165894,-0.09044241905212402,0.6458127486684165,-0.4895346111149355,0.24770982576134523,0.5309630401690593
1728405069202692000,1.363692138671875,-0.7835907340049744,0.47507551312446594,-0.21314452588558197,0.8407694101333618,0.3735126256942749,-0.39191216230392456,0.007466673851013184,0.11424985527992249,-0.059961527585983276,0.6441133243819203,-0.4930845065814651,0.24680271668834017,0.5301642947911697
1728405069212722200,1.37372216796875,-1.1200382709503174,0.5468021631240845,-0.2554858326911926,0.8418887257575989,0.37919196486473083,-0.3839750587940216,-0.016220390796661377,0.025135427713394165,-0.018628031015396118,0.6417482060966547,-0.4978038744970313,0.24536456014912905,0.5292889712727195
1728405069222753000,1.3837529296875,-1.4740632772445679,0.5856820940971375,-0.30818313360214233,0.8429630994796753,0.3864857256412506,-0.37422212958335876,-0.020376980304718018,-0.05962717533111572,0.025955557823181152,0.6385423936535665,-0.5038073956916037,0.24303713659225754,0.5285591987270412
1728405069232783000,1.393783203125,-1.7714767456054688,0.580998957157135,-0.3622194826602936,0.8438085317611694,0.395378053188324,-0.3628547787666321,-0.005032837390899658,-0.09606161713600159,0.01979142427444458,0.6345722744704911,-0.5109832637614511,0.23972633174063673,0.5279636353362389
1728405069242814000,1.40381396484375,-1.8435488939285278,0.5600516200065613,-0.3901991844177246,0.8443140387535095,0.4051285684108734,-0.3507201373577118,0.017456531524658203,-0.0762406587600708,0.03731992840766907,0.6301990316860191,-0.5187230625699841,0.23572509413928563,0.5274554420720904
1728405069252844000,1.413843994140625,-1.6855584383010864,0.4880450665950775,-0.35987135767936707,0.8445829153060913,0.41449669003486633,-0.3389280438423157,0.05855429172515869,0.011864393949508667,-0.0072785913944244385,0.6259191413350474,-0.5261707314339508,0.2316901834805159,0.5269622832020775
1728405069262875100,1.423875244140625,-1.3335893154144287,0.3939661681652069,-0.26192137598991394,0.8447507619857788,0.4222368597984314,-0.32880425453186035,0.10007345676422119,0.1080213189125061,-0.03163883090019226,0.6222107875332473,-0.5324520924699621,0.22823812611156358,0.5265509787131302
1728405069272905200,1.4339052734375,-1.0014307498931885,0.31120017170906067,-0.1794946789741516,0.8449622988700867,0.42786967754364014,-0.32088375091552734,0.1207207441329956,0.13478296995162964,-0.01966184377670288,0.6192738681811887,-0.5372403557299975,0.22567879664460497,0.5262526844228843
1728405069282934800,1.443934814453125,-0.8496462106704712,0.32894402742385864,-0.13581830263137817,0.8452776074409485,0.43213552236557007,-0.3142687678337097,0.09860062599182129,0.11547192931175232,0.0060870349407196045,0.6168594741819717,-0.5410893871353145,0.223803240869365,0.5259457233916319
1728405069292966100,1.453966064453125,-0.8843117952346802,0.4102511405944824,-0.12323087453842163,0.8458597660064697,0.4358876347541809,-0.30744659900665283,0.05739957094192505,0.06547045707702637,0.024747073650360107,0.6144717716658393,-0.5448313522127478,0.22234094237686258,0.5254977539542738
1728405069302996000,1.463995849609375,-1.1886547803878784,0.4867226779460907,-0.13940878212451935,0.8466527462005615,0.44010138511657715,-0.2991487979888916,0.022014856338500977,-0.01779913902282715,0.05128505825996399,0.6115174730113407,-0.5492973167666534,0.22067637066456935,0.5249960333912057
1728405069313026800,1.47402685546875,-1.7385088205337524,0.5441489815711975,-0.17724324762821198,0.8474650382995605,0.4457283914089203,-0.28832176327705383,-0.004371047019958496,-0.08987811207771301,0.08666163682937622,0.6073529995441478,-0.5552631721972608,0.21799526135133082,0.5246745212817101
1728405069323057000,1.484056884765625,-2.4674291610717773,0.5820685625076294,-0.20511934161186218,0.8481960892677307,0.4532613456249237,-0.27407631278038025,-0.014074325561523438,-0.15391436219215393,0.13564860820770264,0.6013728246822172,-0.5633031166761314,0.21366197325175973,0.5247752605962775
1728405069333088000,1.494087890625,-3.0930166244506836,0.5638376474380493,-0.22979193925857544,0.8487386107444763,0.4626084268093109,-0.25619596242904663,-0.009169459342956543,-0.2142563760280609,0.17329499125480652,0.5933010146451141,-0.5735020980514208,0.2073580661318836,0.5254445316816124
1728405069343118000,1.5041181640625,-3.346531391143799,0.5885113477706909,-0.2647626996040344,0.8489720225334167,0.47277364134788513,-0.2360759675502777,0.005367636680603027,-0.23905470967292786,0.1314312219619751,0.5839529520228434,-0.5848572299062343,0.1997599535697845,0.5263431675257036
1728405069353148000,1.51414794921875,-3.215261459350586,0.5747601389884949,-0.23748473823070526,0.8490821123123169,0.4824102520942688,-0.21526752412319183,0.02335447072982788,-0.1646764576435089,0.07831992208957672,0.574262896843212,-0.5962462796654528,0.19198075975286014,0.5271204729888881
1728405069363179000,1.524178955078125,-2.8409218788146973,0.5037327408790588,-0.16652242839336395,0.849200963973999,0.49044743180274963,-0.19575311243534088,0.05947524309158325,-0.006987929344177246,0.08495910465717316,0.5651179529789062,-0.6065841971118318,0.18487577971731317,0.5277484167002722
1728405069373209000,1.534208984375,-2.494209051132202,0.31603899598121643,-0.27257800102233887,0.8487561941146851,0.49743160605430603,-0.1793743073940277,0.10381960868835449,0.13441964983940125,0.014472603797912598,0.5572530964264096,-0.6152732553847995,0.17818998337089173,0.5283525064187821
1728405069383240000,1.544239990234375,-2.073385000228882,0.29704633355140686,-0.1272359937429428,0.8482539057731628,0.5031251907348633,-0.16531920433044434,0.07587939500808716,0.18078899383544922,0.0013483315706253052,0.5505394287879191,-0.6225727416339286,0.17246326707705692,0.5287400425830716
1728405069393270000,1.55427001953125,-2.17916202545166,0.1840851604938507,0.09065531194210052,0.8485734462738037,0.5065852999687195,-0.15262575447559357,0.14407187700271606,0.1262577772140503,-0.08007073402404785,0.5437603495007799,-0.6289940382044055,0.16749215966088685,0.529752453326317
1728405069403301000,1.564301025390625,-2.5919508934020996,0.019368387758731842,0.10451041162014008,0.8493210077285767,0.5090635418891907,-0.13967210054397583,0.18636935949325562,-0.003661930561065674,-0.0646887868642807,0.5358398685193185,-0.6355915083728118,0.16182517204597538,0.5317064773802664
1728405069413331000,1.5743310546875,-3.248228073120117,-0.029353080317378044,-0.06128548085689545,0.8494167327880859,0.5127295255661011,-0.1248992532491684,0.12415510416030884,-0.12186026573181152,-0.019753992557525635,0.526470889981111,-0.6432777817066475,0.15409110645445473,0.5341143520268513
1728405069423361000,1.584361083984375,-3.988121509552002,-0.08995304256677628,-0.1981583833694458,0.848666250705719,0.5180690884590149,-0.10663168132305145,0.03727442026138306,-0.17085528373718262,0.06300687789916992,0.5151046810617612,-0.6526908673524994,0.14380121931458031,0.5366406198859928
1728405069433392000,1.59439208984375,-4.506802082061768,-0.17927439510822296,-0.23092910647392273,0.8473851084709167,0.5240629315376282,-0.08542155474424362,0.006466329097747803,-0.1734006404876709,0.130923330783844,0.5017207649505901,-0.6633735406934081,0.13124316955959195,0.5394323167670919
1728405069443422000,1.604421875,-4.723418712615967,-0.2702539563179016,-0.22126182913780212,0.8459922075271606,0.5294675827026367,-0.062940314412117,0.01516813039779663,-0.12625408172607422,0.10238433629274368,0.4869518119238613,-0.6743638559724118,0.11731680720491171,0.5425386530429899
1728405069453453000,1.614453125,-4.642446041107178,-0.22691473364830017,-0.17385037243366241,0.8447840809822083,0.5336148738861084,-0.03994333744049072,0.022037386894226074,-0.004882454872131348,0.0417439304292202,0.4715991124504485,-0.6851128557442867,0.10319257052495519,0.5454963023412179
1728405069463483100,1.624483154296875,-4.2062201499938965,-0.26404640078544617,-0.07298741489648819,0.8440200090408325,0.5360060930252075,-0.018109556287527084,0.039341866970062256,0.12086963653564453,-0.0006739497184753418,0.45670113533527557,-0.6948683471533345,0.09001778715166278,0.5481596319514641
1728405069473514000,1.634513916015625,-3.571143388748169,-0.3100024163722992,-0.012800503522157669,0.8438408374786377,0.5365935564041138,0.00043186021503061056,0.0933082103729248,0.2121095061302185,-0.11226344108581543,0.4432405586607991,-0.7028860306462309,0.078531255102143,0.5507467296280514
1728405069483544000,1.6445439453125,-3.017172336578369,-0.44181546568870544,-0.13075296580791473,0.8434879183769226,0.5369398593902588,0.01496555469930172,0.13093847036361694,0.2451494336128235,-0.19590425491333008,0.43194732567884364,-0.7090893191864556,0.06837481112185474,0.5531173944419154
1728405069493574000,1.654573974609375,-2.574178695678711,-0.5478367209434509,-0.08649522811174393,0.842919647693634,0.5374202728271484,0.02580866776406765,0.10895413160324097,0.25196272134780884,-0.12833237648010254,0.42245630336297,-0.7137338774567545,0.05906171312620797,0.5555415702660286
1728405069503605200,1.664605224609375,-1.8216843605041504,-0.5846466422080994,0.10076440870761871,0.8431219458580017,0.5367037653923035,0.0330856516957283,0.13112127780914307,0.24927645921707153,-0.05717921629548073,0.41462078242288675,-0.7168458960716286,0.0517183508991331,0.5581638383980227
1728405069513634800,1.674634765625,-0.9076231718063354,-0.6275096535682678,0.2581402063369751,0.844321608543396,0.5346781015396118,0.035222575068473816,0.12125462293624878,0.19485992193222046,-0.09392309188842773,0.4093148281730859,-0.7178993970537924,0.047241328976212214,0.5611151469012495
1728405069523666000,1.684666015625,0.07041808217763901,-0.4035540521144867,0.35390934348106384,0.8461394309997559,0.5319373607635498,0.033026549965143204,0.06067514419555664,0.13673335313796997,-0.21306490898132324,0.4070929557464552,-0.7172068755479695,0.04612561116592425,0.5637038883036811
1728405069533696000,1.694696044921875,0.6865825057029724,-0.10379583388566971,0.42951515316963196,0.8483203649520874,0.5287086963653564,0.028632348403334618,-0.013252556324005127,0.07828593254089355,-0.3415747880935669,0.4075127599655592,-0.7155383718933134,0.04817688856318327,0.5653470147483717
1728405069543726800,1.704726806640625,0.8370413184165955,0.27006468176841736,0.48141801357269287,0.8506894707679749,0.5250647664070129,0.025192823261022568,-0.05616426467895508,0.02679997682571411,-0.2897953987121582,0.4090321936460658,-0.7140523016781134,0.052208449325621825,0.5657706195543248
1728405069553757000,1.7147568359375,0.6115165948867798,0.3626377582550049,0.5699159502983093,0.8533630967140198,0.5207533836364746,0.024248605594038963,-0.060378849506378174,0.026808440685272217,-0.17390668392181396,0.4100865717088205,-0.7133641166815273,0.05688532267091615,0.5654246252023053
1728405069563787000,1.724787109375,0.3373800814151764,0.1424127221107483,0.5515177249908447,0.8562665581703186,0.5159712433815002,0.02411518804728985,0.0013995766639709473,-0.0009870529174804688,-0.01923227310180664,0.41008383026926165,-0.7129914718943036,0.060833829240241465,0.5654854534181593
1728405069573817900,1.73481787109375,-0.003038223832845688,-0.19954541325569153,0.3135816156864166,0.858553409576416,0.5122089385986328,0.022987188771367073,0.09580773115158081,-0.08180415630340576,-0.008338687941432,0.40944194233109094,-0.712422433204109,0.06283208914394206,0.5664485051326348
1728405069583848000,1.744847900390625,-0.3850671947002411,-0.404589980840683,0.012868108227849007,0.8594251871109009,0.5108219981193542,0.021197762340307236,0.1612963080406189,-0.09367716312408447,-0.01974809169769287,0.40842330920528647,-0.7118501382815084,0.062195351073618954,0.5679714801168371
1728405069593879000,1.754879150390625,-0.6007198691368103,-0.1699359118938446,0.024951137602329254,0.8594375252723694,0.5107935667037964,0.021380342543125153,0.18409574031829834,0.04355823993682861,-0.037814024835824966,0.4066514813805222,-0.7120982891102394,0.06005162788789957,0.5691611447514197
1728405069603909000,1.7649091796875,-0.4922059178352356,-0.06772609055042267,0.2540908753871918,0.8601908087730408,0.509440004825592,0.023299628868699074,0.159218430519104,0.1571250557899475,-0.040953993797302246,0.4043028439474749,-0.7128785338963016,0.05877082923371943,0.5699907809424858
1728405069613940000,1.77493994140625,-0.4642784297466278,-0.10477465391159058,0.25196778774261475,0.8615968823432922,0.5069803595542908,0.02494455873966217,0.08730161190032959,0.11472392082214355,0.026233438402414322,0.4018763122559577,-0.7134995143437722,0.0582299065631531,0.5709845956771943
1728405069623970000,1.784969970703125,-0.6623466610908508,-0.07291579246520996,-0.027592498809099197,0.8622285723686218,0.5058038830757141,0.026919620111584663,-0.0038300156593322754,0.041757822036743164,0.04066157341003418,0.3995575762133674,-0.7143024851689393,0.056848658814596054,0.5717465359507194
1728405069634001000,1.7950009765625,-0.6291255354881287,0.05639586225152016,-0.22312285006046295,0.8615041375160217,0.5068470239639282,0.030282167717814445,-0.05085039138793945,-0.012752115726470947,0.020087122917175293,0.39758992257220716,-0.7156660073921667,0.054435739267106896,0.5716479055901085
1728405069644031000,1.805031005859375,-0.6574520468711853,0.039506252855062485,-0.187533438205719,0.8603789806365967,0.5085254311561584,0.03391318395733833,-0.01269221305847168,-0.08761167526245117,-0.012718681246042252,0.3959567831369428,-0.7171163169410089,0.05196902445969934,0.5711932340932747
1728405069654061000,1.81506103515625,-0.8494779467582703,-0.021345913410186768,-0.05089223012328148,0.8597499132156372,0.5093090534210205,0.03787646442651749,0.10053157806396484,-0.07304495573043823,-0.013660669326782227,0.39360136339086843,-0.7186771314100291,0.04941065209204185,0.5710865627599537
1728405069664092200,1.825092041015625,-0.8900169730186462,-0.14474748075008392,0.03725334256887436,0.8597580194473267,0.5089935064315796,0.041738592088222504,0.17668002843856812,-0.024664223194122314,-0.018194198608398438,0.3904261458100597,-0.7202007228028245,0.04669277524516675,0.5715752893620997
1728405069674122000,1.8351220703125,-0.7224703431129456,-0.17044512927532196,0.10661137849092484,0.8602040410041809,0.5080105662345886,0.04443678632378578,0.17530322074890137,-0.07781940698623657,-0.06787419319152832,0.3873296082711317,-0.7212867444755143,0.04431507876132975,0.5725011323561217
1728405069684153000,1.845153076171875,-0.6061360239982605,-0.15907788276672363,0.15422789752483368,0.8609428405761719,0.506583571434021,0.04637911915779114,0.14496248960494995,-0.13310933113098145,-0.15219879150390625,0.38459926757279755,-0.7220646325734318,0.04257025542786154,0.5734929026196711
1728405069694183200,1.85518310546875,-0.6016935706138611,-0.09793704003095627,0.1732548475265503,0.8618476390838623,0.5048689246177673,0.04823191091418266,0.08525019884109497,-0.05575686693191528,-0.129774808883667,0.3819866252695064,-0.722785888923383,0.04118876315933618,0.574430516553901
1728405069704214000,1.865214111328125,-0.6316439509391785,0.06050724908709526,0.07717838883399963,0.8625237941741943,0.5034163594245911,0.051234759390354156,0.03609687089920044,0.048906147480010986,-0.10450315475463867,0.37936104982234997,-0.723898489862613,0.03985418239545733,0.5748634446088674
1728405069714244000,1.875244140625,-0.5659341812133789,0.16109031438827515,-0.03367728739976883,0.8625524640083313,0.5029322504997253,0.055339515209198,-0.0293768048286438,0.10377246141433716,-0.09321177005767822,0.37706468416227784,-0.7253940426812718,0.03838281291791213,0.57458899320703
1728405069724274000,1.88527392578125,-0.5660259127616882,0.2823372185230255,-0.061577096581459045,0.8621779084205627,0.5030329823493958,0.060060370713472366,-0.059001028537750244,0.10936331748962402,-0.1571214199066162,0.37516218391435635,-0.7270882706477356,0.037051741236742604,0.5737797854023642
1728405069734305000,1.895304931640625,-0.7139495611190796,0.480713427066803,-0.11118326336145401,0.861489474773407,0.5033971667289734,0.06653950363397598,-0.04570871591567993,0.11049449443817139,-0.20690500736236572,0.37300108222367007,-0.7293860456301173,0.03557734927074429,0.572364041978937
1728405069744334800,1.9053349609375,-0.6508590579032898,0.5905128717422485,-0.06663763523101807,0.8606184720993042,0.5037256479263306,0.0748121440410614,-0.0461956262588501,0.07204967737197876,-0.19512760639190674,0.37064231326985286,-0.7322778259577393,0.034282030221276176,0.5702792538494171
1728405069754366000,1.915365966796875,-0.7053760886192322,0.5748856663703918,-0.05606834962964058,0.8598670363426208,0.5036877989768982,0.08323129266500473,-0.007266879081726074,-0.05610167980194092,-0.14736390113830566,0.36823450307805866,-0.735194754884409,0.033231294071590374,0.5681441785167098
1728405069764396000,1.92539599609375,-0.5333327651023865,0.5831472277641296,-0.03880254179239273,0.8590939044952393,0.5035618543624878,0.09156087040901184,0.030569851398468018,-0.05303078889846802,0.009757518768310547,0.36585478322542425,-0.7380660506605389,0.03223260906083005,0.5660123594708575
1728405069774427000,1.935427001953125,-0.023832784965634346,0.6019193530082703,-0.13931210339069366,0.8580480813980103,0.504129946231842,0.09801403433084488,0.06828254461288452,-0.029840946197509766,0.08957754820585251,0.36489823552781514,-0.7402577536600402,0.03202302676515347,0.563775104367027
1728405069784457000,1.94545703125,0.5602087378501892,0.6745256185531616,-0.038472045212984085,0.8568922281265259,0.5052550435066223,0.10224218666553497,0.06061887741088867,-0.004232585430145264,0.114676833152771,0.36608101530091336,-0.7416137902470832,0.0336166555262562,0.5611272163593033
1728405069794487000,1.955487060546875,0.9903601408004761,0.6081620454788208,0.11872556805610657,0.8564431667327881,0.5056895017623901,0.10384304076433182,0.12143164873123169,0.05224812030792236,0.17786478996276855,0.36880146301243266,-0.7419806591517005,0.03723199670793146,0.5586269018466954
1728405069804518000,1.965517822265625,0.8323591351509094,0.34297776222229004,0.15861518681049347,0.8567104935646057,0.5053675174713135,0.10320449620485306,0.14774513244628906,0.058627963066101074,0.3165191411972046,0.3718086783689386,-0.7415471761984314,0.04135253062546406,0.55691672748437
1728405069814548000,1.9755478515625,0.18309402465820312,-0.00579406414180994,0.047943804413080215,0.8570833802223206,0.5049868226051331,0.101964071393013,0.14338970184326172,0.006259024143218994,0.42493724822998047,0.3734162952229259,-0.7410052207214718,0.043512070311833205,0.556397680209634
1728405069824579000,1.9855791015625,-0.3881526291370392,-0.29001206159591675,-0.058995962142944336,0.8571892380714417,0.5049627423286438,0.10119066387414932,0.13492202758789062,-0.12437790632247925,0.36142539978027344,0.3730865579108591,-0.7407799592011629,0.04289970921629084,0.5569660875392405
1728405069834609200,1.995609130859375,-0.9312111139297485,-0.4301060438156128,-0.07981069386005402,0.8571726679801941,0.5049499869346619,0.10139521211385727,0.08768218755722046,-0.2724516987800598,0.2592463493347168,0.37090933552188426,-0.7410074760859303,0.04006901233835348,0.5583268220241783
1728405069844640000,2.005639892578125,-1.0054420232772827,-0.4707922637462616,0.05460570007562637,0.8575435876846313,0.5040620565414429,0.10266711562871933,-0.013702034950256348,-0.2343171238899231,0.261163592338562,0.36728326676346673,-0.7416285167010586,0.03634146631983872,0.5601513026365891
1728405069854670000,2.015670166015625,-0.7090948224067688,-0.4442533254623413,0.18924260139465332,0.8586422204971313,0.5021167397499084,0.10301828384399414,-0.0837550163269043,-0.1041216254234314,0.04821169376373291,0.3638079989446929,-0.7418800157468689,0.03351395702667361,0.5622586547471737
1728405069864700200,2.0257001953125,-0.47341039776802063,-0.23640266060829163,0.267413854598999,0.8601782321929932,0.49948766827583313,0.10298503935337067,-0.14922529458999634,0.11292397975921631,-0.23202846944332123,0.36098998894956325,-0.7419329229552084,0.03206335844754271,0.5640868135440934
1728405069874731000,2.03573095703125,0.3491188883781433,0.15724556148052216,0.23062360286712646,0.861519455909729,0.4971410632133484,0.10312782973051071,-0.21794939041137695,0.28532975912094116,-0.29633450508117676,0.35990788469257223,-0.7419533926422751,0.03269678037388312,0.5647145654006327
1728405069884761000,2.045760986328125,0.9711308479309082,0.4669989049434662,0.12545883655548096,0.8620664477348328,0.4963357746601105,0.10243268311023712,-0.222784161567688,0.2416556477546692,-0.31103551387786865,0.3619660332272394,-0.7415694419546535,0.03593196244971656,0.5637059196833129
1728405069894792200,2.055792236328125,1.0564385652542114,0.5266347527503967,0.1163279190659523,0.8620728850364685,0.4964523911476135,0.10181093215942383,-0.0686768889427185,0.08115383982658386,-0.19041861593723297,0.365406476236695,-0.7411398133790116,0.040214958885592546,0.5617585423259692
1728405069904822000,2.065822021484375,0.8079968690872192,0.23097693920135498,0.22935780882835388,0.8624976277351379,0.4959793984889984,0.10051051527261734,0.20534288883209229,-0.11112216114997864,-0.04234398901462555,0.368396458353449,-0.7404709035538565,0.04425040423836507,0.5603827641959929
1728405069914853000,2.07585302734375,0.35076913237571716,-0.10352514684200287,0.32659968733787537,0.8638461828231812,0.49410921335220337,0.09811226278543472,0.4300991892814636,-0.2859182059764862,0.06872737407684326,0.3697441872756634,-0.7394888040057761,0.04703660081628421,0.5605650713283044
1728405069924883200,2.08588330078125,-0.013845663517713547,-0.25631821155548096,0.3368781507015228,0.8656846880912781,0.491351842880249,0.09572713077068329,0.4882277250289917,-0.34848371148109436,0.11974227428436279,0.36942905208516585,-0.7385951325512299,0.04838176574441115,0.5618351653693254
1728405069934914000,2.0959140625,-0.17587532103061676,-0.34479960799217224,0.30033639073371887,0.8675417304039001,0.4884765148162842,0.09360875189304352,0.39606934785842896,-0.29020366072654724,0.11317849904298782,0.36820588058531956,-0.737856964615872,0.04869778921428231,0.5635781338230321
1728405069944943900,2.10594384765625,-0.07738509029150009,-0.2898622751235962,0.2700810134410858,0.8691970705986023,0.48592695593833923,0.09149781614542007,0.26663684844970703,-0.1475326418876648,0.07044375687837601,0.3669522748129301,-0.7371411751118158,0.04870107541446153,0.5653294010174655
1728405069954974000,2.115973876953125,0.3466695249080658,-0.14932380616664886,0.317292720079422,0.8708401322364807,0.4834594428539276,0.08890974521636963,0.1711980700492859,-0.035415440797805786,-0.06296967715024948,0.36662440332158047,-0.7361946153094101,0.04972285254905107,0.5666850109006502
1728405069965004800,2.1260048828125,0.7061296701431274,0.1442665457725525,0.302641361951828,0.8723743557929993,0.4811670780181885,0.08626409620046616,0.125230073928833,0.002063572406768799,-0.1817687749862671,0.36772549011233696,-0.7351076708767977,0.05242863299611757,0.5671384447668256
1728405069975035000,2.136034912109375,0.698611855506897,0.2805894911289215,0.13407495617866516,0.87322598695755,0.4799000918865204,0.08469098806381226,0.08325600624084473,0.017917990684509277,-0.09589087963104248,0.36975167247758406,-0.7343296952543369,0.05572603762777196,0.5665142154727358
1728405069985066000,2.14606591796875,0.3483414351940155,0.18005463480949402,0.11506292223930359,0.8735398054122925,0.4793860614299774,0.08436764031648636,0.09864366054534912,0.0069879889488220215,0.061323411762714386,0.37130087387353566,-0.7340367415579419,0.058085132204150416,0.5656431131726571
1728405069995096000,2.156095947265625,0.25791460275650024,-0.043573133647441864,0.2484731823205948,0.8743463158607483,0.47803938388824463,0.08365020155906677,0.21613842248916626,-0.034466296434402466,0.1446518898010254,0.3717901323627993,-0.733665434520804,0.05966684668749608,0.565638762337695
1728405070005127000,2.166126953125,0.2603711187839508,-0.20633888244628906,0.3121131658554077,0.8758396506309509,0.4757232367992401,0.08119640499353409,0.2933042049407959,-0.10450726747512817,0.09591246396303177,0.3720102252862084,-0.7326972520076094,0.061261229673287225,0.5665778381245323
1728405070015157000,2.176156982421875,0.02942470833659172,-0.20607762038707733,0.27055078744888306,0.8774060010910034,0.4732658267021179,0.07860329002141953,0.24153631925582886,-0.10519319772720337,0.07836389541625977,0.3717962759566919,-0.7317183081172843,0.062369556661643046,0.5678609297071836
1728405070025187000,2.18618701171875,-0.10630995035171509,-0.17585155367851257,0.27829766273498535,0.878821074962616,0.4708518087863922,0.0772792398929596,0.16062283515930176,-0.016490817070007324,0.1050938293337822,0.3708743309204277,-0.731224360568889,0.06285342186941731,0.5690453619713421
1728405070035218000,2.196218017578125,0.1054595559835434,-0.18618887662887573,0.3266263008117676,0.8803809285163879,0.46816930174827576,0.07581008225679398,0.13429808616638184,0.01638886332511902,0.031718723475933075,0.36999440442933457,-0.7306593512999896,0.06357637039255137,0.5702624041021706
1728405070045248000,2.206248046875,0.26138442754745483,-0.18142899870872498,0.3556089699268341,0.8821287155151367,0.465282678604126,0.07322165369987488,0.12084686756134033,-0.016536861658096313,-0.08426892757415771,0.36979747618724407,-0.7296430944669928,0.06505215636616953,0.5715235679148802
1728405070055279000,2.216279052734375,0.2780195474624634,-0.0626315176486969,0.37636005878448486,0.8839138150215149,0.4622431695461273,0.07090973109006882,0.08273071050643921,-0.01441282033920288,-0.09276019781827927,0.36976679206011426,-0.7286805942384147,0.06692873791815453,0.5725538456473114
1728405070065309000,2.226308837890625,0.27191266417503357,0.005335019901394844,0.41341206431388855,0.8857585191726685,0.4589218199253082,0.06944819539785385,0.058653831481933594,0.025941550731658936,-0.053517937660217285,0.369633378342691,-0.7279746149220764,0.06911625811868352,0.5732776437184279
1728405070075340000,2.236340087890625,0.3263101875782013,0.07379381358623505,0.41941750049591064,0.8876430988311768,0.45540881156921387,0.06850481778383255,0.06230813264846802,0.058430999517440796,-0.027061820030212402,0.36950079544685105,-0.7274116514052819,0.07158698682167426,0.5737742969758182
1728405070085370000,2.2463701171875,0.2453303039073944,0.01724984310567379,0.37205585837364197,0.8894187808036804,0.4520649015903473,0.0676145851612091,0.06260758638381958,0.07036557793617249,0.014187805354595184,0.3694293674490958,-0.726863833716109,0.07400176730104432,0.574207931685763
1728405070095401000,2.25640087890625,0.1603909134864807,-0.06470734626054764,0.34916386008262634,0.8910490274429321,0.4489946961402893,0.06659990549087524,0.07190263271331787,0.06759163737297058,0.08443164080381393,0.3690864414632892,-0.7263283482050955,0.07580951695992225,0.5748698043879008
1728405070105431000,2.26643115234375,0.23588766157627106,-0.16933149099349976,0.36065271496772766,0.8927085399627686,0.44596487283706665,0.06470907479524612,0.09265851974487305,0.027072995901107788,0.08043266087770462,0.36882164503482245,-0.7255042175114054,0.077447842169927,0.57586132876736
1728405070115461000,2.276461181640625,0.2735000252723694,-0.1850297600030899,0.4201280474662781,0.8945482969284058,0.44266077876091003,0.06192798539996147,0.09382462501525879,-0.02249467372894287,0.0377577543258667,0.36869925072900406,-0.7243506584242844,0.07924718213904058,0.5771455674700536
1728405070125492000,2.286491943359375,0.2640250325202942,-0.14005860686302185,0.4937804341316223,0.8966683149337769,0.43870997428894043,0.05932510271668434,0.08061128854751587,-0.005757063627243042,0.003083460032939911,0.36842572425345804,-0.7232109351765841,0.08141556655177859,0.5784461449286689
1728405070135524000,2.296524169921875,0.23728983104228973,-0.10400153696537018,0.5189281105995178,0.8989689946174622,0.43426215648651123,0.05719536915421486,0.04606890678405762,0.05942079424858093,0.005915045738220215,0.36787567071069194,-0.7222074066766487,0.08375049670311037,0.5797153759452857
1728405070145555000,2.306554931640625,0.3144962191581726,-0.04336807131767273,0.4862561821937561,0.9011954665184021,0.42985957860946655,0.055387821048498154,0.008182644844055176,0.10277906060218811,-0.001203775405883789,0.36741561463108297,-0.7212889437753578,0.08623323394605076,0.5807857013510126
1728405070155585000,2.3165849609375,0.4074293375015259,-0.012608559802174568,0.4529224634170532,0.9032159447669983,0.42582374811172485,0.05362482741475105,-0.015917181968688965,0.0997806191444397,-0.04146348685026169,0.36736408236723617,-0.7203499907307346,0.08892865204202424,0.5815767249603738
1728405070165616000,2.3266162109375,0.4133845567703247,0.006235647946596146,0.4376726746559143,0.9050939679145813,0.42203500866889954,0.05188227817416191,-0.018832862377166748,0.07631713151931763,-0.033693671226501465,0.36757865101259507,-0.7193909155793851,0.09174883878022427,0.582189808680435
1728405070175646000,2.33664599609375,0.2578948438167572,-0.028690911829471588,0.4189823567867279,0.9069027900695801,0.41831567883491516,0.050393812358379364,-0.019146382808685303,0.063801109790802,0.03841245174407959,0.367563515725107,-0.7185451685578104,0.09428545335014725,0.5828381198367198
1728405070185676000,2.346676025390625,0.19517207145690918,-0.10915517807006836,0.4019346535205841,0.9086443185806274,0.41469132900238037,0.04895570129156113,-0.01878225803375244,0.07674852013587952,0.13337159156799316,0.36713783216204676,-0.7177846448269469,0.09624476375896307,0.5837225268110452
1728405070195707100,2.35670703125,0.3219933807849884,-0.1412457376718521,0.3758716285228729,0.9103086590766907,0.41128164529800415,0.046753935515880585,-0.006210029125213623,0.07756426930427551,0.1087636947631836,0.36698375671268507,-0.7167582445446417,0.09815592552084891,0.584761586667237
1728405070205737200,2.3667373046875,0.3157083988189697,-0.19292373955249786,0.3549301326274872,0.9118717908859253,0.4081154465675354,0.04395405575633049,0.010613679885864258,0.06405261158943176,0.04627120494842529,0.3671741049285474,-0.7155079280097177,0.10012708277003601,0.5858381308146734
1728405070215768000,2.37676806640625,0.18041448295116425,-0.32096055150032043,0.365588903427124,0.9134462475776672,0.4049270749092102,0.040624652057886124,0.022207558155059814,0.06550148129463196,0.08364295959472656,0.36715843360587685,-0.7141198565986537,0.10171114463085176,0.5872669833217192
1728405070225798100,2.386798095703125,0.08372390270233154,-0.38430121541023254,0.3796447813510895,0.9150881767272949,0.40156465768814087,0.03687287122011185,0.029263019561767578,0.07826322317123413,0.0925217866897583,0.36665233290546373,-0.7126614240743481,0.10271382903584889,0.5891771380763507
1728405070235829000,2.3968291015625,0.2570035457611084,-0.3264549672603607,0.39857879281044006,0.9167848229408264,0.39802056550979614,0.032946761697530746,0.011712610721588135,0.07755017280578613,0.01119697093963623,0.36624483652939793,-0.7111069704570252,0.10392428855427685,0.5910934523776828
1728405070245858800,2.40685888671875,0.45214906334877014,-0.1848105788230896,0.38875412940979004,0.9184317588806152,0.3945004343986511,0.02920161746442318,-0.02379363775253296,0.06985506415367126,-0.08579635620117188,0.3664890784526247,-0.7094913859586796,0.10593763104689788,0.5925243035359364
1728405070255889000,2.416888916015625,0.5024647116661072,-0.10522493720054626,0.34935691952705383,0.919934868812561,0.3912068009376526,0.026026908308267593,-0.060300350189208984,0.08396723866462708,-0.07584679126739502,0.36719264175754834,-0.7079895165991208,0.10846335020365584,0.5934275518953512
1728405070265920000,2.426919921875,0.4051561951637268,-0.03818385303020477,0.28990957140922546,0.9211899042129517,0.3883956968784332,0.02363114431500435,-0.06915426254272461,0.11891335248947144,-0.03762340545654297,0.36790772480687767,-0.7067764171532308,0.11082719899356296,0.5939937227506163
1728405070275950000,2.4369501953125,0.3583700358867645,-0.06135096028447151,0.25169429183006287,0.9222480058670044,0.38598424196243286,0.021792972460389137,-0.05675417184829712,0.1291678249835968,0.008434772491455078,0.36845643684426094,-0.7058090538895002,0.1128275922133781,0.5944270078142552
1728405070285981000,2.44698095703125,0.3400026857852936,-0.11089517921209335,0.22077576816082,0.9231627583503723,0.3839038908481598,0.019718097522854805,-0.04056364297866821,0.07793399691581726,0.057598233222961426,0.36904097386466495,-0.7047968024531993,0.11454482233847031,0.5949369387544752
1728405070296011000,2.457010986328125,0.3247683346271515,-0.2383767068386078,0.20886078476905823,0.9240155220031738,0.38198304176330566,0.016877688467502594,-0.03216958045959473,0.006688982248306274,0.1313309669494629,0.3696737210528261,-0.7035534391032462,0.11598018220266244,0.5957371532622249
1728405070306041900,2.467041748046875,0.24572384357452393,-0.3582533597946167,0.20812149345874786,0.924848198890686,0.3801131248474121,0.01303720660507679,-0.01592785120010376,-0.02458330988883972,0.1677490472793579,0.3702449423480358,-0.7020146923747033,0.11702125785162393,0.5969925727343648
1728405070316072000,2.477072021484375,0.10164284706115723,-0.43169111013412476,0.212914377450943,0.925688624382019,0.37818652391433716,0.008692188188433647,-0.011076807975769043,0.020693480968475342,0.13626635074615479,0.37045948396421596,-0.7003787221707162,0.11754037468037638,0.5986765994856867
1728405070326102000,2.48710205078125,0.10513238608837128,-0.4363793432712555,0.21308588981628418,0.9265221357345581,0.37621569633483887,0.004336525686085224,-0.023674726486206055,0.0926106870174408,0.08201301097869873,0.3703787765584598,-0.6987884455688554,0.11774111974990664,0.6005426285850999
1728405070336133000,2.497133056640625,0.283340722322464,-0.391399085521698,0.21929824352264404,0.9273388385772705,0.3742230236530304,-0.00020810539717786014,-0.04940903186798096,0.12087896466255188,-0.0050560832023620605,0.37063347292497234,-0.6970672143719416,0.11829305114206151,0.6022748427187589
1728405070346163000,2.507162841796875,0.4057043194770813,-0.28674033284187317,0.20989835262298584,0.9281342029571533,0.37221693992614746,-0.00465767364948988,-0.08287352323532104,0.11360767483711243,-0.07830429077148438,0.37140847562842605,-0.6952676124333574,0.11947430850392025,0.6036428516641705
1728405070356194000,2.517194091796875,0.3878568708896637,-0.1494663804769516,0.1878226101398468,0.9288549423217773,0.37035447359085083,-0.008158820681273937,-0.10643655061721802,0.10489588975906372,-0.08583521842956543,0.37233624276185423,-0.6937479978943201,0.12097233189945322,0.6045208032607513
1728405070366224100,2.52722412109375,0.3807588815689087,-0.1115642786026001,0.1780533343553543,0.9295480251312256,0.3685467839241028,-0.010689020156860352,-0.10809087753295898,0.08859139680862427,-0.03827637434005737,0.37315979979538044,-0.6925552522641729,0.12256717513589944,0.6050591194065801
1728405070376255000,2.5372548828125,0.3203272521495819,-0.1860172003507614,0.14576171338558197,0.9301303029060364,0.3669891357421875,-0.013294319622218609,-0.08894377946853638,0.052337706089019775,0.05199068784713745,0.37399005462594676,-0.6913668182996808,0.12395468088617062,0.6056225327608074
1728405070386285000,2.54728515625,0.228439599275589,-0.3432718515396118,0.14761286973953247,0.9306007623672485,0.365655779838562,-0.016684701666235924,-0.061475276947021484,0.03311750292778015,0.10076069831848145,0.37465397286943497,-0.6899944818309459,0.12476082803738675,0.6066109813265782
1728405070396315100,2.557315185546875,0.23974871635437012,-0.4344422519207001,0.16084346175193787,0.9310781955718994,0.36420732736587524,-0.021135248243808746,-0.03164875507354736,0.03224661946296692,0.09805488586425781,0.3752093456838591,-0.6882952349671029,0.12522797193527022,0.6081000926705397
1728405070406346000,2.567345947265625,0.3143296241760254,-0.44043153524398804,0.1295369267463684,0.9315124750137329,0.3627605438232422,-0.02625965140759945,-0.030587732791900635,0.0240192711353302,0.06024104356765747,0.37600085831733965,-0.6863330646294584,0.12576604840512287,0.6097157755531516
1728405070416376000,2.5773759765625,0.3055582344532013,-0.38978222012519836,0.1157393604516983,0.931821882724762,0.36157527565956116,-0.031167197972536087,-0.06501585245132446,0.02572333812713623,0.028863195329904556,0.37694528005095274,-0.684438521261936,0.12633412639217334,0.6111431043860286
1728405070426407200,2.5874072265625,0.3509925305843353,-0.38861143589019775,0.13187305629253387,0.9321383833885193,0.360311359167099,-0.035968389362096786,-0.08643531799316406,0.03450983762741089,0.053912822157144547,0.37793122807918483,-0.6825542151452643,0.1270257790011612,0.6124966813674306
1728405070436437200,2.597437255859375,0.32941481471061707,-0.3376869857311249,0.14190198481082916,0.9324982166290283,0.35888662934303284,-0.04059075191617012,-0.07817387580871582,0.03382885456085205,0.01773316040635109,0.3789075390535301,-0.6807022528551775,0.12786346912093444,0.6137788816213962
1728405070446468000,2.607468017578125,0.3555680513381958,-0.2832566797733307,0.1392260491847992,0.932874321937561,0.3574298620223999,-0.044602181762456894,-0.06916588544845581,0.04291504621505737,-0.009139176458120346,0.37979937956088644,-0.6790520853202195,0.12879120547148884,0.6148605720666256
1728405070456498000,2.617497802734375,0.4202980399131775,-0.33917322754859924,0.10227734595537186,0.9331631660461426,0.3561161160469055,-0.048866573721170425,-0.0565151572227478,0.03385281562805176,-0.00048029422760009766,0.38096525416573196,-0.6772808370716427,0.12983597924779325,0.6158724386926079
1728405070466528000,2.627528076171875,0.39218780398368835,-0.3817636966705322,0.08227860927581787,0.9332936406135559,0.3550802767276764,-0.05367794632911682,-0.04671210050582886,0.019385725259780884,-0.0015282630920410156,0.38229842899386457,-0.675336428548666,0.13069711232702574,0.616998416708291
1728405070476558800,2.637558837890625,0.39882227778434753,-0.39003095030784607,0.10569631308317184,0.9334015250205994,0.35399866104125977,-0.05870791897177696,-0.048376500606536865,0.02135235071182251,0.044288404285907745,0.3836165038320863,-0.6733154989437332,0.13150010911763216,0.6182170806590557
1728405070486589000,2.6475888671875,0.38779178261756897,-0.42931970953941345,0.08437531441450119,0.9335219264030457,0.3528006672859192,-0.063787542283535,-0.052021563053131104,0.006849050521850586,0.04314243793487549,0.3848807970493959,-0.6712694493675895,0.13230099965029643,0.6194842372268554
1728405070496620000,2.6576201171875,0.1841214895248413,-0.3832843005657196,0.042822279036045074,0.9334307312965393,0.3521230220794678,-0.0686788409948349,-0.06441205739974976,-0.01052442193031311,0.04144197702407837,0.38601531600195876,-0.6693804056207316,0.132629004667712,0.6207509695199178
1728405070506649900,2.66764990234375,0.27652543783187866,-0.25379541516304016,0.06795612722635269,0.9334462285041809,0.3513578772544861,-0.0722917839884758,-0.07286572456359863,0.0010896921157836914,0.04676389694213867,0.3867266790297971,-0.6679721495219274,0.13291845434594762,0.6217624669558582
1728405070516681000,2.677680908203125,0.28440386056900024,-0.3043363392353058,0.001056190114468336,0.9333431720733643,0.3508642315864563,-0.07592864334583282,-0.06607925891876221,-0.03479361534118652,-0.010832786560058594,0.3878006685779189,-0.6665153070781764,0.13339049446123052,0.6225553427739946
1728405070526711000,2.6877109375,0.31648504734039307,-0.3229075074195862,0.005266380961984396,0.9331022500991821,0.35063636302948,-0.07984209805727005,-0.07888460159301758,-0.025196850299835205,0.0059896111488342285,0.3889688829204806,-0.6649860850763605,0.1336879181922703,0.6233975107038562
1728405070536741000,2.6977412109375,0.3514968156814575,-0.34748902916908264,0.0005408679135143757,0.9328351020812988,0.35033726692199707,-0.0841585025191307,-0.05347102880477905,-0.003718554973602295,0.04515708237886429,0.3903256723259724,-0.6632753116943622,0.13411416324014636,0.6242797363958061
1728405070546772000,2.70777197265625,0.31518128514289856,-0.3463430106639862,-0.0250752791762352,0.9324920773506165,0.35016894340515137,-0.0885457769036293,-0.04868769645690918,-0.006449371576309204,0.01615816354751587,0.3917023552146157,-0.6615536960712833,0.1344389058239897,0.6251737620527189
1728405070556802000,2.717802001953125,0.2722359597682953,-0.3242291808128357,-0.045146726071834564,0.9320574402809143,0.3502499759197235,-0.0927034467458725,-0.05600458383560181,-0.006164222955703735,0.018988318741321564,0.3930276857229348,-0.6599499392548801,0.13458957213097228,0.6260040022343586
1728405070566833000,2.7278330078125,0.19205635786056519,-0.2974392771720886,-0.06027907133102417,0.9315764307975769,0.35052868723869324,-0.09641223400831223,-0.052670061588287354,-0.013263612985610962,0.006950020790100098,0.3941738247563308,-0.6585549469160599,0.1345335119715817,0.6267641414082162
1728405070576863000,2.737863037109375,0.1790769100189209,-0.29142507910728455,-0.07894756644964218,0.9310340285301208,0.3510373532772064,-0.09974309056997299,-0.0467565655708313,-0.023751527070999146,-0.0071446895599365234,0.3951809233823157,-0.6573425794160767,0.13427280569421057,0.6274581545724568
1728405070586894000,2.74789404296875,0.20416942238807678,-0.30583372712135315,-0.07245451211929321,0.930449903011322,0.35157954692840576,-0.10322345793247223,-0.05093318223953247,-0.0299394428730011,0.0040413737297058105,0.3962728091256781,-0.6560672121485973,0.1340301647928527,0.6281558198448374
1728405070596924200,2.757924072265625,0.1905209869146347,-0.27844205498695374,-0.04277438297867775,0.9299384951591492,0.3519230782985687,-0.10660557448863983,-0.049185872077941895,-0.010110855102539062,-0.0088881254196167,0.3973001954399334,-0.6548070178072133,0.13388420811988408,0.6288525139023643
1728405070606954000,2.7679541015625,0.24863716959953308,-0.28173142671585083,-0.015338229015469551,0.9295366406440735,0.3519616425037384,-0.10992968827486038,-0.04176515340805054,0.020886868238449097,-0.010889329016208649,0.3982683600251407,-0.6535326697600274,0.13390371445911026,0.6295610566176434
1728405070616985000,2.777985107421875,0.31441164016723633,-0.3120728135108948,-0.02796028181910515,0.9291393756866455,0.35182419419288635,-0.11366554349660873,-0.03392148017883301,0.011029839515686035,-0.023343071341514587,0.3994665685326016,-0.652049106439324,0.13416106890583013,0.6302850755541665
1728405070627015200,2.78801513671875,0.307037889957428,-0.2885366380214691,-0.028131257742643356,0.9286813735961914,0.3517438769340515,-0.11758912354707718,-0.040955543518066406,-0.011076122522354126,-0.008814625442028046,0.40078946655091263,-0.650484298277594,0.13444558051329844,0.6310011307530171
1728405070637046000,2.7980458984375,0.24271854758262634,-0.27460458874702454,-0.009456371888518333,0.9282836318016052,0.35158228874206543,-0.12115916609764099,-0.04402148723602295,-0.017567366361618042,0.020832665264606476,0.40193715147977427,-0.6490576240695424,0.1347019524025529,0.6316851893616022
1728405070647076000,2.808076171875,0.1883026361465454,-0.2859323024749756,-0.0354757197201252,0.9278649687767029,0.351528137922287,-0.12447727471590042,-0.02958005666732788,-0.0249137282371521,0.017528481781482697,0.40288983311859994,-0.647768174788911,0.13475071087123514,0.6323910554210947
1728405070657107200,2.818107177734375,0.1536000519990921,-0.3216245174407959,-0.05764760449528694,0.9273051619529724,0.3517766296863556,-0.12789976596832275,-0.025037705898284912,-0.0399022102355957,0.012695983052253723,0.4038085994210168,-0.6464942372501458,0.13451883675613008,0.6331575605435552
1728405070667137000,2.828136962890625,0.12579578161239624,-0.3367098271846771,-0.05088397487998009,0.926666796207428,0.352151483297348,-0.13144664466381073,-0.019119679927825928,-0.029534846544265747,0.0088270902633667,0.4046502383461299,-0.6452124773161135,0.13408032398812353,0.6340202091751352
1728405070677168000,2.838168212890625,0.17949070036411285,-0.31223350763320923,-0.026993820443749428,0.9261019825935364,0.3522990942001343,-0.13498367369174957,-0.0168459415435791,-0.000706017017364502,-0.019587814807891846,0.40548084045681765,-0.6439012533980906,0.13378841253557666,0.6348836267848136
1728405070687198000,2.848197998046875,0.23213906586170197,-0.26117342710494995,-0.021919433027505875,0.9256206750869751,0.3522570729255676,-0.13835284113883972,-0.024924814701080322,0.01457950472831726,-0.0372147411108017,0.40641052368538655,-0.6425948378817786,0.13377390294713196,0.6356154629288774
1728405070697228000,2.85822802734375,0.32299599051475525,-0.2696017920970917,-0.016878867521882057,0.9251883029937744,0.3520409166812897,-0.1417536586523056,-0.025865614414215088,0.01676410436630249,-0.02677960693836212,0.40755330072924373,-0.6412062219677894,0.13408114127849835,0.6362211283869895
1728405070707259000,2.8682587890625,0.278928279876709,-0.2982293963432312,-0.03622140735387802,0.9246864318847656,0.35185250639915466,-0.1454480141401291,-0.014194369316101074,-0.012664824724197388,-0.007933259010314941,0.40881972289418145,-0.6396971137739957,0.13440088443534243,0.6368599687312236
1728405070717289000,2.8782890625,0.2109404355287552,-0.3290325701236725,-0.04518694058060646,0.924092710018158,0.35185807943344116,-0.1491599977016449,-0.001134335994720459,-0.031362444162368774,0.03615345060825348,0.40992509364894913,-0.638242252523987,0.13441289145654992,0.6376060526204052
1728405070727320000,2.888320068359375,0.18726299703121185,-0.38275790214538574,-0.07552274316549301,0.9233410954475403,0.35211366415023804,-0.15315769612789154,0.019163787364959717,-0.05568113923072815,0.048192575573921204,0.4109957510074818,-0.6367345641997872,0.13412772680369253,0.6384836893830553
1728405070737350000,2.898349853515625,0.15800312161445618,-0.38643786311149597,-0.08763372898101807,0.9224358797073364,0.3526265025138855,-0.15737497806549072,0.024555206298828125,-0.059901803731918335,0.023463904857635498,0.4120881645384379,-0.6351842573464717,0.13361687923728324,0.6394301962941756
1728405070747381000,2.908381103515625,0.1344866156578064,-0.33648085594177246,-0.10138975828886032,0.9215282201766968,0.3532687723636627,-0.1612049788236618,0.025493323802947998,-0.027279943227767944,-0.018406152725219727,0.4130847356386549,-0.6337981676917334,0.13303153600965792,0.6402840025071366
1728405070757411000,2.9184111328125,0.13665230572223663,-0.292102187871933,-0.12589456140995026,0.9206148386001587,0.3541058301925659,-0.1645522117614746,0.02082192897796631,-0.004008114337921143,-0.04167024791240692,0.41408693111607053,-0.632597101007876,0.1324568037614396,0.6409431684943762
1728405070767441200,2.928441162109375,0.13834892213344574,-0.2922554314136505,-0.12630309164524078,0.9196813106536865,0.355058491230011,-0.16768963634967804,0.016338586807250977,0.002134561538696289,-0.040684327483177185,0.4151246008461418,-0.6314733192525847,0.13189629077013942,0.6414954396371803
1728405070777472000,2.938471923828125,0.15632179379463196,-0.3125213086605072,-0.12676408886909485,0.9187238812446594,0.35597965121269226,-0.17095430195331573,0.028740227222442627,0.004478812217712402,-0.004582762718200684,0.41618208127495676,-0.6302965917491105,0.1313356612290277,0.64208245813752
1728405070787502000,2.948502197265625,0.2259642630815506,-0.390151709318161,-0.14315824210643768,0.9176502823829651,0.35687223076820374,-0.1748158484697342,0.04244816303253174,-0.014770060777664185,0.03507588803768158,0.41742961181116967,-0.6288748073783953,0.130799661237098,0.6427757869799007
1728405070797533000,2.958532958984375,0.2699463665485382,-0.43670588731765747,-0.1703195571899414,0.9163532853126526,0.35787323117256165,-0.17950983345508575,0.04766660928726196,-0.04956933856010437,0.034215688705444336,0.418984523928271,-0.627123363865017,0.13023581831518158,0.6435892388203921
1728405070807563000,2.96856298828125,0.22787468135356903,-0.4373563826084137,-0.17678198218345642,0.9149144291877747,0.3590278923511505,-0.18447409570217133,0.04057574272155762,-0.061466217041015625,0.020793095231056213,0.4206403887731835,-0.6252783927701216,0.1295757877304538,0.6444367794328332
1728405070817594000,2.978593994140625,0.2120712250471115,-0.3609500229358673,-0.1497011035680771,0.9135567545890808,0.3601750135421753,-0.18891313672065735,0.029985785484313965,-0.042685359716415405,0.01415427029132843,0.4221061488734752,-0.6236442157491197,0.12888491737811023,0.6452000108475484
1728405070827624200,2.988624267578125,0.2747461199760437,-0.3164297640323639,-0.14023062586784363,0.9124090671539307,0.36099186539649963,-0.19285982847213745,0.024770617485046387,-0.02304014563560486,-0.0027272701263427734,0.4235451387452504,-0.622132731762202,0.1285338383213997,0.6457860673870028
1728405070837654000,2.998654052734375,0.2950383424758911,-0.35646557807922363,-0.15776248276233673,0.9112181663513184,0.361808180809021,-0.19691768288612366,0.024481356143951416,-0.009360581636428833,0.007235705852508545,0.42513474293517345,-0.6205509738926499,0.12828736161027043,0.6463122283955558
1728405070847685000,3.00868505859375,0.29041749238967896,-0.44494542479515076,-0.14661343395709991,0.9098637104034424,0.36262407898902893,-0.20162338018417358,0.03775292634963989,-0.007735103368759155,0.03666067123413086,0.4268165987411328,-0.6187271645034503,0.1279257787396852,0.6470235042720289
1728405070857715200,3.018715087890625,0.1423870176076889,-0.47145798802375793,-0.13442547619342804,0.9084189534187317,0.36344918608665466,-0.20659086108207703,0.05688256025314331,-0.028274595737457275,0.0382407009601593,0.4282329861906963,-0.6168635690906403,0.12721597066108606,0.648006160450688
1728405070867746000,3.02874609375,0.09888187795877457,-0.5058424472808838,-0.13457833230495453,0.9069159030914307,0.3644290864467621,-0.21141254901885986,0.05681401491165161,-0.03160429000854492,0.04007166624069214,0.42932422635622614,-0.6151302408773771,0.12612894771655883,0.6491434261296603
1728405070877776000,3.03877587890625,0.10975529998540878,-0.4702293276786804,-0.11541902273893356,0.9053886532783508,0.3653756082057953,-0.21626833081245422,0.029212117195129395,-0.03853234648704529,0.007863864302635193,0.43035723488568345,-0.6133859152247674,0.12499421444381303,0.6503282044716668
1728405070887807200,3.04880712890625,0.17778834700584412,-0.3855048418045044,-0.08713945001363754,0.9040930271148682,0.3659857511520386,-0.22061409056186676,-0.006662428379058838,-0.020023107528686523,-0.012448638677597046,0.4313872751703167,-0.6117669896933794,0.1242340809958434,0.6513158300637226
1728405070897836800,3.0588369140625,0.23398371040821075,-0.374813050031662,-0.0807153731584549,0.902947187423706,0.36628594994544983,-0.2247692048549652,-0.02018040418624878,-0.011107057332992554,-0.019325613975524902,0.4325199555679491,-0.6101483085869558,0.1238323109991916,0.6521589149641714
1728405070907867000,3.068866943359375,0.29873326420783997,-0.4232192635536194,-0.07326198369264603,0.9017491340637207,0.3663940131664276,-0.22935564815998077,-0.013412952423095703,-0.022872835397720337,-0.006682500243186951,0.43384932806436577,-0.6083122038450081,0.12360598691186446,0.6530334205236266
1728405070917898000,3.07889794921875,0.25399190187454224,-0.4385920763015747,-0.04662424698472023,0.9005457162857056,0.36624178290367126,-0.23427489399909973,-0.00557178258895874,-0.026336878538131714,0.02199462056159973,0.4351845363639155,-0.6063189259485682,0.12345004236176853,0.6540276075745977
1728405070927928000,3.088927978515625,0.18481017649173737,-0.4450009763240814,-0.056708838790655136,0.8993204236030579,0.3662011921405792,-0.23899732530117035,-0.008115530014038086,-0.013326376676559448,0.05532729625701904,0.4362501878787023,-0.6044561653082018,0.12302066785429447,0.6551218167903264
1728405070937959000,3.098958984375,0.0730665996670723,-0.470922589302063,-0.07634378969669342,0.8979603052139282,0.36649906635284424,-0.24360989034175873,-0.018794655799865723,-0.05344972014427185,0.05621679127216339,0.43717442557571295,-0.6027000349945629,0.12226087040346185,0.656264813784678
1728405070947989000,3.108989013671875,0.00881677120923996,-0.4619136154651642,-0.07572034746408463,0.8965216875076294,0.3671291768550873,-0.247921884059906,-0.019461631774902344,-0.083452969789505,0.05225849151611328,0.4378117081787926,-0.6011431914043966,0.121102931038412,0.6574815393467882
1728405070958020000,3.11902001953125,0.030814215540885925,-0.4722602665424347,-0.07037538290023804,0.8950854539871216,0.3677431046962738,-0.2521653473377228,-0.016713082790374756,-0.07826849818229675,0.05625775456428528,0.4383852214729549,-0.5996143186704622,0.1199166389111487,0.6587118457072089
1728405070968050000,3.1290498046875,0.03742970526218414,-0.47247612476348877,-0.07900615781545639,0.8936055898666382,0.36834287643432617,-0.2565014958381653,-0.024022221565246582,-0.04177415370941162,0.04179510474205017,0.4390076690139841,-0.5980357098996202,0.1187541356509878,0.6599418859259877
1728405070978080000,3.139080078125,0.15039008855819702,-0.4845884442329407,-0.07236902415752411,0.892079770565033,0.36880064010620117,-0.2611131966114044,-0.031102418899536133,-0.012004256248474121,0.04001334309577942,0.4398267713910754,-0.5962984638577665,0.11777752819829952,0.6611423710493977
1728405070988111000,3.149111083984375,0.18907594680786133,-0.4407881796360016,-0.044375475496053696,0.8906214237213135,0.368875652551651,-0.26594096422195435,-0.034252285957336426,-0.034158796072006226,-0.0006148219108581543,0.44082467307450063,-0.5943956616381344,0.11714657710896437,0.6623022840123423
1728405070998141000,3.159140869140625,0.2792721688747406,-0.3766941726207733,-0.012519007548689842,0.8894599676132202,0.36849647760391235,-0.27031704783439636,-0.04007953405380249,-0.019634723663330078,-0.017936676740646362,0.44181153487698327,-0.5925929289144491,0.11694055235405165,0.6632956326529713
1728405071008172000,3.169172119140625,0.2563454806804657,-0.3420283794403076,0.00477928901091218,0.8884406685829163,0.3677896559238434,-0.2745976746082306,-0.06367266178131104,-0.023246169090270996,0.0009160935878753662,0.4428774492152405,-0.5907635893026857,0.11704505907853385,0.6641975389461309
1728405071018202000,3.1792021484375,0.13649682700634003,-0.2841451168060303,0.06421837955713272,0.8877255320549011,0.3669227957725525,-0.27804890275001526,-0.07606470584869385,0.003636956214904785,0.024829328060150146,0.4435143991845909,-0.5892857415264756,0.11712327591270386,0.6650711041302241
1728405071028233000,3.18923291015625,0.03954319283366203,-0.30069994926452637,0.05029670521616936,0.8871685862541199,0.3661274015903473,-0.28086116909980774,-0.04534107446670532,0.0005871355533599854,0.05367308855056763,0.4437257125742149,-0.5881217787029255,0.11697087686900168,0.6659867187184698
1728405071038263000,3.199262939453125,-0.1449611335992813,-0.42733752727508545,0.022650964558124542,0.8862625360488892,0.36598140001296997,-0.2838954031467438,-0.01715230941772461,-0.0637199878692627,0.06155961751937866,0.4436830121972414,-0.5870044577573287,0.1160950926662614,0.6671530931950278
1728405071048293000,3.209293212890625,-0.18995657563209534,-0.4583287239074707,0.030294235795736313,0.8850654363632202,0.3662903308868408,-0.2872122824192047,0.001760244369506836,-0.06618040800094604,0.0597953200340271,0.4433276595572432,-0.585892673497976,0.11455840315154849,0.6686306611016885
1728405071058324200,3.21932421875,-0.17164041101932526,-0.42065006494522095,0.04855446517467499,0.8839432001113892,0.3664717972278595,-0.2904190421104431,-0.004762113094329834,-0.056428372859954834,0.03936615586280823,0.44292311885278407,-0.5848065370000506,0.1131008416956545,0.6700961696656207
1728405071068354000,3.22935400390625,-0.021822895854711533,-0.3930250406265259,0.0478961318731308,0.8829327821731567,0.366375207901001,-0.2935968339443207,-0.030134260654449463,-0.002437800168991089,0.020861297845840454,0.4426569492427174,-0.5836664213137662,0.1119602389441308,0.671456141609933
1728405071078385200,3.23938525390625,0.20258331298828125,-0.31490811705589294,0.07427181303501129,0.8820788264274597,0.36557862162590027,-0.2971354126930237,-0.05030691623687744,0.030783772468566895,-0.005385339260101318,0.44293429276320767,-0.5822093518635872,0.11164483325810463,0.6725898399506842
1728405071088415000,3.2494150390625,0.34163007140159607,-0.22011029720306396,0.08398116379976273,0.8815885782241821,0.3640410602092743,-0.30045992136001587,-0.06155061721801758,0.03795182704925537,-0.02421659231185913,0.44360544266262025,-0.5806690794435411,0.1122206167795297,0.6733828477983802
1728405071098446000,3.259446044921875,0.3465861976146698,-0.23073869943618774,0.0696251317858696,0.8812171816825867,0.3622462749481201,-0.3037010133266449,-0.06218630075454712,0.03146106004714966,0.008428215980529785,0.444520907017131,-0.5790824527418201,0.11319458129073635,0.6739821310694539
1728405071108476000,3.269475830078125,0.165824294090271,-0.2653852701187134,0.029413793236017227,0.8806339502334595,0.3610367774963379,-0.3068166971206665,-0.0484042763710022,-0.014524877071380615,0.02324742078781128,0.445230895675007,-0.5776485574360208,0.11363886298836465,0.6746687658274515
1728405071118506000,3.279506103515625,-0.02518800087273121,-0.2794904410839081,0.024224359542131424,0.879897952079773,0.36057135462760925,-0.30946412682533264,-0.032409489154815674,-0.08446353673934937,0.03410407900810242,0.4455032590755109,-0.5765563020392159,0.11336120091592918,0.6754694757154239
1728405071128536800,3.289536865234375,-0.12947240471839905,-0.27951115369796753,0.033308934420347214,0.8791396021842957,0.3606061041355133,-0.3115715980529785,-0.023762404918670654,-0.09395873546600342,0.01828250288963318,0.44530643870791914,-0.575806451796751,0.11252170338571033,0.6763786032793795
1728405071138566400,3.29956640625,-0.005353908985853195,-0.2956453859806061,0.02794080227613449,0.8783599138259888,0.3605871796607971,-0.31378448009490967,-0.042468249797821045,-0.01326662302017212,0.023013055324554443,0.44512540248476606,-0.5750051828028446,0.111699613249107,0.6773149615210717
1728405071148597500,3.309597412109375,0.10901534557342529,-0.27744004130363464,0.01522926613688469,0.8775043487548828,0.36023807525634766,-0.3165673613548279,-0.06744569540023804,0.03230959177017212,-0.01172548532485962,0.4453796735646749,-0.5738739320415107,0.11128806596711922,0.678174622740952
1728405071158627600,3.319627685546875,0.15746037662029266,-0.20332935452461243,0.011180995032191277,0.8767892718315125,0.3596625030040741,-0.31919220089912415,-0.09363186359405518,0.03456363081932068,-0.003256499767303467,0.4458889472815215,-0.5727294999915747,0.11128710913963427,0.6788072694903539
1728405071168658400,3.329658447265625,0.0778755322098732,-0.2134484499692917,0.003004558850079775,0.8761895298957825,0.35920748114585876,-0.3213442265987396,-0.0946495532989502,-0.00964382290840149,0.04075038433074951,0.4462918622017152,-0.5717944381740173,0.11126097919686381,0.6793348738962495
1728405071178688500,3.3396884765625,-0.02616032212972641,-0.2926940321922302,-0.0062145059928298,0.8753622770309448,0.35915589332580566,-0.3236481845378876,-0.07157498598098755,-0.07341974973678589,0.08416152000427246,0.4465263096449722,-0.5708794146052892,0.1107817449454835,0.6800283501255969
1728405071188718600,3.349718505859375,-0.1069268062710762,-0.2689409554004669,-0.014034878462553024,0.8743994235992432,0.3594684600830078,-0.3258960545063019,-0.04696100950241089,-0.08897584676742554,0.05354195833206177,0.446499731860978,-0.570071969495116,0.10986322297753218,0.680871602123644
1728405071198749400,3.35974951171875,-0.05517465993762016,-0.2502591609954834,-0.0176133681088686,0.8735098242759705,0.35990893840789795,-0.32779017090797424,-0.06172686815261841,-0.043411076068878174,0.02262967824935913,0.4464465030945489,-0.569416476599357,0.10894858009867675,0.6816016106097905
1728405071208779500,3.369779541015625,0.018420329317450523,-0.23286843299865723,0.024397198110818863,0.8727098107337952,0.3599574863910675,-0.32986101508140564,-0.09712076187133789,0.010541200637817383,0.013912588357925415,0.4465305138067983,-0.5686209308147747,0.10835004518478743,0.6823056856316452
1728405071218810600,3.379810546875,0.03783610835671425,-0.10637122392654419,0.0722038671374321,0.8723174929618835,0.35942450165748596,-0.33147576451301575,-0.11262822151184082,0.047374844551086426,-0.015646368265151978,0.44654002153062705,-0.5679375268675345,0.10820848481235548,0.6828908506992124
1728405071228840700,3.3898408203125,0.07169414311647415,-0.00749598303809762,0.07313358038663864,0.8724287748336792,0.3585875630378723,-0.33208924531936646,-0.12839490175247192,0.02675798535346985,-0.009356677532196045,0.4464518586351847,-0.5676134547925494,0.10849124260815957,0.683173142641475
1728405071238871600,3.39987158203125,0.04289018362760544,-0.019958246499300003,0.0659443736076355,0.8726495504379272,0.3577914237976074,-0.3323677182197571,-0.11622554063796997,-0.043078839778900146,0.014481425285339355,0.4463906395092156,-0.5674177534766156,0.10887255890476177,0.6833150329926129
1728405071248901600,3.409901611328125,0.02561619132757187,-0.09372375905513763,0.04277993366122246,0.8726589679718018,0.3572652339935303,-0.3329084515571594,-0.07662314176559448,-0.0516011118888855,0.0415724515914917,0.44633349195575833,-0.5671548137566,0.10900088195551377,0.6835501159385845
1728405071258931700,3.419931640625,0.031074872240424156,-0.13825687766075134,0.0053955442272126675,0.8724414110183716,0.3568655252456665,-0.3339060842990875,-0.054219186305999756,-0.03835347294807434,0.030851274728775024,0.4463366591832594,-0.5667234422714044,0.10895639254327447,0.6839129063230948
1728405071268962600,3.429962646484375,0.027682337909936905,-0.058022115379571915,0.018085239455103874,0.8722057938575745,0.3565746247768402,-0.3348309397697449,-0.08265495300292969,-0.03307294845581055,0.006995856761932373,0.44640388247513296,-0.5663229791336043,0.10891655925500147,0.6842069716733662
1728405071278992600,3.43999267578125,0.04853435605764389,0.03378290683031082,0.07298071682453156,0.8723501563072205,0.3560282588005066,-0.3350362181663513,-0.12010705471038818,-0.001917511224746704,0.012892693281173706,0.4463408046973953,-0.5661862639982098,0.10915590588485832,0.6843230860333184
1728405071289023700,3.450023681640625,0.06472151726484299,0.11641285568475723,0.10706464946269989,0.8728746771812439,0.35512468218803406,-0.33462879061698914,-0.12746751308441162,0.01006394624710083,0.013019353151321411,0.44619073814784904,-0.5662525963162669,0.10974336724433026,0.6842721066395184
1728405071299053600,3.460053466796875,0.10582767426967621,0.10087037831544876,0.08862491697072983,0.8735159039497375,0.35413554310798645,-0.334003210067749,-0.10378623008728027,0.013387709856033325,0.012393772602081299,0.44608037546563467,-0.5663843536371481,0.110485983703029,0.6841155218875269
1728405071309084700,3.470084716796875,0.0860048308968544,0.023672960698604584,0.05597802996635437,0.8738825917243958,0.3532843589782715,-0.33394569158554077,-0.0721551775932312,0.014483034610748291,0.030753612518310547,0.4461553222396226,-0.5662862008447133,0.11111745996568986,0.6840457011299134
1728405071319114500,3.480114501953125,0.04583184793591499,0.005769061855971813,0.03412705659866333,0.8740518093109131,0.3526930510997772,-0.3341275751590729,-0.05653160810470581,-0.009950071573257446,0.057363688945770264,0.44620075953685007,-0.5661342025894619,0.11148215404676116,0.6840824680615127
1728405071329144600,3.49014453125,-0.03624983876943588,0.03200434148311615,0.02570454403758049,0.8742320537567139,0.3523857891559601,-0.33398011326789856,-0.06142681837081909,-0.06442186236381531,0.04597049951553345,0.44609415077803716,-0.5661685482804661,0.11163834435401643,0.6840980739071769
1728405071339175400,3.500175537109375,-0.08114807307720184,0.061269551515579224,0.022966016083955765,0.8744799494743347,0.35235103964805603,-0.33336761593818665,-0.07704019546508789,-0.06609606742858887,0.009057313203811646,0.44581014469919084,-0.5664436807412979,0.11161429386033633,0.68405953188052
1728405071349205500,3.51020556640625,-0.07636130601167679,0.17114794254302979,0.03446874022483826,0.8749337792396545,0.35239556431770325,-0.33212730288505554,-0.09369891881942749,-0.02657458186149597,-0.01806187629699707,0.44542511729213413,-0.5669841983118082,0.11164793565223718,0.6838569561005583
1728405071359236400,3.520236328125,-0.015168789774179459,0.17654377222061157,0.035958778113126755,0.8755930662155151,0.3523416221141815,-0.3304426372051239,-0.09621983766555786,-0.0007485449314117432,-0.01753401756286621,0.44511179123121225,-0.5676688799260806,0.11194068707644873,0.6834449434227396
1728405071369266400,3.530266357421875,0.007386187091469765,0.14483864605426788,0.031380005180835724,0.8761651515960693,0.3521837890148163,-0.3290916383266449,-0.08209776878356934,0.012226670980453491,0.006475120782852173,0.4449552719114941,-0.5681871102730097,0.11232806299426498,0.6830524533135285
1728405071379297500,3.540297607421875,-0.00738183967769146,0.128525972366333,-0.000026917550712823868,0.8766111135482788,0.35213950276374817,-0.3279496729373932,-0.06209683418273926,0.011492758989334106,0.006691157817840576,0.44486494699749984,-0.5686291402720115,0.11263245868950798,0.6826933175153111
1728405071389327600,3.55032763671875,-0.04131011292338371,0.12421458214521408,-0.013537133112549782,0.8769558668136597,0.3523867428302765,-0.32676002383232117,-0.06428796052932739,-0.0255281925201416,0.029442578554153442,0.444783409020891,-0.569124778737697,0.112769583274027,0.682310628275758
1728405071399358500,3.5603583984375,-0.0667923092842102,0.14956015348434448,-0.03637347370386124,0.8773284554481506,0.3527901768684387,-0.32532185316085815,-0.06574380397796631,-0.05261918902397156,0.03789207339286804,0.4446293756079076,-0.5697460251836507,0.11282082422222511,0.6818841389582101
1728405071409388500,3.570388427734375,-0.15362334251403809,0.17614014446735382,-0.05157240107655525,0.8777256608009338,0.3535049259662628,-0.32346898317337036,-0.06403541564941406,-0.07376548647880554,0.018918871879577637,0.44433728264492806,-0.5705861166486794,0.11268092994348661,0.6813949638056974
1728405071419418600,3.580418701171875,-0.1554851531982422,0.21893368661403656,-0.016019465401768684,0.8782349228858948,0.3542337417602539,-0.32128193974494934,-0.0543365478515625,-0.05801481008529663,0.009834825992584229,0.44389727734006346,-0.5715774902008254,0.11250869024419245,0.6808791062845421
1728405071429449500,3.590449462890625,-0.0832851305603981,0.22147215902805328,-0.00004129856824874878,0.8788830637931824,0.3546779751777649,-0.3190115690231323,-0.025275766849517822,-0.0002162456512451172,-0.023914456367492676,0.44347225068117446,-0.5725600291113472,0.11255768295183022,0.6803222287150523
1728405071439479600,3.6004794921875,-0.027137700468301773,0.18385687470436096,0.002906287554651499,0.8794089555740356,0.3549567759037018,-0.3172471523284912,-0.02049165964126587,0.063469797372818,-0.009184062480926514,0.44326876463908943,-0.5732931648807011,0.11274472018618518,0.6798062371740006
1728405071449510700,3.6105107421875,-0.03503570333123207,0.23549865186214447,0.06000499427318573,0.8800749778747559,0.3549157977104187,-0.3154411017894745,-0.023019254207611084,0.053546786308288574,0.012203216552734375,0.4430508475466733,-0.5740023852349887,0.11314021867299669,0.6792839820690276
1728405071459540500,3.62054052734375,-0.07532666623592377,0.26482218503952026,0.06411425024271011,0.881033718585968,0.3546711504459381,-0.31303080916404724,0.007760405540466309,0.00810667872428894,0.02257975935935974,0.44255001728972077,-0.5749579031638852,0.113613418200125,0.6787231733330774
1728405071469571600,3.630571533203125,-0.021519161760807037,0.19701358675956726,0.05346640199422836,0.8819556832313538,0.35429659485816956,-0.3108508884906769,0.038515567779541016,-0.019610226154327393,0.03877145051956177,0.4420792002457699,-0.5758038318404902,0.11412496174343285,0.6782267895317089
1728405071479601700,3.6406015625,0.06137625128030777,0.18465039134025574,0.030259348452091217,0.882739782333374,0.35368695855140686,-0.30931559205055237,0.06989699602127075,-0.015826821327209473,0.008046120405197144,0.44185030167052325,-0.5763364591979473,0.11479762793853178,0.6778098185039522
1728405071489631700,3.6506318359375,0.03991024196147919,0.19388118386268616,-0.003824052633717656,0.8834271430969238,0.35312265157699585,-0.3079950213432312,0.07471799850463867,0.022670865058898926,-0.05188348889350891,0.4418036131744228,-0.5767627962358078,0.1155299577931912,0.6773530403758545
1728405071499662600,3.66066259765625,-0.06608782708644867,0.19563433527946472,-0.049188606441020966,0.8839415907859802,0.3531651198863983,-0.3064667284488678,0.051742732524871826,0.02662619948387146,-0.06773978471755981,0.4417867581340117,-0.5773396228324961,0.11595517299594972,0.6767997676966873
1728405071509692700,3.670692626953125,-0.2425750494003296,0.2631599009037018,-0.05391944572329521,0.8843722343444824,0.354145348072052,-0.30408376455307007,0.034740984439849854,-0.049274712800979614,-0.07154175639152527,0.4414267654266671,-0.5784145749335402,0.1157354472346924,0.6761541012895562
1728405071519723800,3.680723876953125,-0.35641932487487793,0.23463371396064758,-0.08059446513652802,0.8847123980522156,0.356035441160202,-0.30087050795555115,0.039070069789886475,-0.10089316964149475,-0.035356879234313965,0.4407472767290143,-0.5799686400337121,0.11489612036003724,0.675408994539349
1728405071529753300,3.69075341796875,-0.3880022168159485,0.19198118150234222,-0.13413625955581665,0.8847928643226624,0.3585106432437897,-0.29767775535583496,0.0417056679725647,-0.0946556031703949,-0.008382976055145264,0.43998833529698117,-0.5815998328227869,0.11359027126333746,0.6747217029050788
1728405071539784700,3.70078466796875,-0.3232234716415405,0.1532401740550995,-0.16608326137065887,0.8847873210906982,0.3609136641025543,-0.29477623105049133,0.03220498561859131,-0.05842334032058716,-0.0021139979362487793,0.43934594610754846,-0.5830889949517295,0.11233482581560437,0.6740648594047165
1728405071549814500,3.710814453125,-0.26856282353401184,0.15823715925216675,-0.16335272789001465,0.8846114277839661,0.3632701635360718,-0.29239943623542786,0.0057083964347839355,-0.033771812915802,-0.015309244394302368,0.4389828008556504,-0.5843270375707569,0.1111854403480003,0.6734194978840636
1728405071559844600,3.7208447265625,-0.2730358839035034,0.2472301572561264,-0.11480916291475296,0.8847227096557617,0.365261048078537,-0.2895691394805908,-0.021334588527679443,0.005817502737045288,-0.04371333122253418,0.4385180181584579,-0.5857002414299131,0.11032072850089782,0.6726712705982888
1728405071569875500,3.73087548828125,-0.29100650548934937,0.20603898167610168,-0.09555823355913162,0.8850197792053223,0.36699894070625305,-0.2864469587802887,-0.036875247955322266,0.029760152101516724,0.0012755095958709717,0.4379079506575506,-0.587170280622536,0.10957912170971756,0.6719078371795894
1728405071579905500,3.740905517578125,-0.2913457751274109,0.1839669793844223,-0.0653689056634903,0.8852709531784058,0.3685550391674042,-0.28365930914878845,-0.041230976581573486,-0.005914628505706787,0.04041901230812073,0.4372157041166599,-0.5885043822699386,0.10877928559510498,0.6713211705142508
1728405071589936400,3.750936279296875,-0.32044747471809387,0.15902525186538696,-0.07299406826496124,0.8855137825012207,0.3699916899204254,-0.2810192108154297,-0.027038931846618652,-0.02981218695640564,0.0019054412841796875,0.43644236857337093,-0.589779528031631,0.1079375190614505,0.6708411436048466
1728405071599966500,3.760966552734375,-0.37111249566078186,0.11644742637872696,-0.10050106048583984,0.8855804204940796,0.3717442750930786,-0.27848494052886963,-0.047399699687957764,-0.027963638305664062,-0.013369888067245483,0.43564170910668565,-0.5910552444184685,0.10682332687627477,0.6704170746743116
1728405071609997600,3.77099755859375,-0.3942612409591675,0.1047527939081192,-0.0972653180360794,0.8855087161064148,0.3736841082572937,-0.2761065363883972,-0.07390886545181274,-0.061168789863586426,-0.03924679756164551,0.4347774338410534,-0.5923021627526895,0.105474553551433,0.6700910764350119
1728405071620027600,3.781027587890625,-0.49054837226867676,0.1823972463607788,-0.06427354365587234,0.8855736255645752,0.37569165229797363,-0.27315786480903625,-0.1036064624786377,-0.10683178901672363,-0.06219974160194397,0.43368548778300653,-0.5937984344768558,0.10404078130286591,0.6696983461470193
1728405071630057500,3.791057373046875,-0.44248148798942566,0.22497764229774475,0.010551957413554192,0.8860440254211426,0.3772362172603607,-0.26947933435440063,-0.13576924800872803,-0.04859235882759094,-0.030950963497161865,0.43221968253689147,-0.595562123607244,0.10279151425428733,0.6692727367038278
1728405071640088600,3.801088623046875,-0.3210296332836151,0.2610328197479248,0.015618354082107544,0.8867502808570862,0.37809062004089355,-0.2659355103969574,-0.1368112564086914,0.003913253545761108,-0.049631476402282715,0.4309245487494685,-0.597165227153951,0.10210748821818727,0.6687839679723457
1728405071650118700,3.81111865234375,-0.3421120047569275,0.2929327189922333,0.0020508808083832264,0.8875236511230469,0.3789094388484955,-0.26216351985931396,-0.15488797426223755,-0.014331072568893433,-0.028562158346176147,0.4297684593967139,-0.5988235139534055,0.10162993296466953,0.6681175457570734
1728405071660149500,3.8211494140625,-0.4432319700717926,0.23260599374771118,0.004116428550332785,0.888242781162262,0.3798794448375702,-0.25829580426216125,-0.14208781719207764,-0.08456069231033325,0.048487454652786255,0.4284550609634338,-0.6005544251331403,0.10092807270678658,0.6675136208194045
1728405071670179600,3.8311796875,-0.5766267776489258,0.1372121423482895,-0.02043818309903145,0.8886814713478088,0.3812709450721741,-0.2547113299369812,-0.09307295083999634,-0.1233057975769043,0.052807122468948364,0.4268337927300106,-0.6022708217225168,0.09957000351855086,0.6672096513247474
1728405071680210700,3.841210693359375,-0.6410398483276367,0.10315803438425064,-0.03490900248289108,0.8888916969299316,0.38306093215942383,-0.2512691617012024,-0.08043515682220459,-0.08496516942977905,0.04661834239959717,0.4250160810705574,-0.6040018875723902,0.09770944482936104,0.6670802927654474
1728405071690240500,3.851240478515625,-0.7752256393432617,0.09951569139957428,-0.042032159864902496,0.8889511227607727,0.38521432876586914,-0.24774187803268433,-0.10504597425460815,-0.04547730088233948,0.0317537784576416,0.42295915734618406,-0.6058292646850674,0.0953937158376055,0.667065674967024
1728405071700270600,3.8612705078125,-0.8192602396011353,0.14583365619182587,0.02834613248705864,0.889250636100769,0.38724732398986816,-0.24346043169498444,-0.12768441438674927,-0.0556584894657135,0.026648342609405518,0.42046987824684656,-0.6079701355209497,0.09296287221646173,0.6670347925680692
1728405071710301700,3.8713017578125,-0.7924726605415344,0.10420231521129608,0.04224756732583046,0.8897225856781006,0.3888511061668396,-0.2391415685415268,-0.11170738935470581,-0.08433139324188232,0.019460812211036682,0.4178160657695486,-0.6100897143246546,0.09066288997428293,0.6670836558678537
1728405071720331800,3.881331787109375,-0.7154921293258667,-0.011867828667163849,0.04232612997293472,0.889981746673584,0.3902769386768341,-0.23583176732063293,-0.10639709234237671,-0.04942601919174194,-0.010002553462982178,0.41533529493164045,-0.6117844591505037,0.08833965289558598,0.6673923948393499
1728405071730362600,3.891362548828125,-0.7388262152671814,0.06416675448417664,0.2715606689453125,0.890618622303009,0.390638530254364,-0.23280930519104004,-0.11705899238586426,-0.02686893939971924,-0.06514899432659149,0.4126985998122887,-0.6132790824766351,0.08651076069029094,0.6678956506687023
1728405071740392400,3.901392333984375,-0.8337545394897461,0.03945821151137352,0.34613263607025146,0.8920115232467651,0.38950595259666443,-0.2293485552072525,-0.06486302614212036,-0.018137454986572266,-0.07390457391738892,0.4090936779372064,-0.6149087020121501,0.08492943713216099,0.6688174577828377
1728405071750423600,3.911423583984375,-0.9206659197807312,0.03073502518236637,0.2939216196537018,0.8933810591697693,0.3885810673236847,-0.22555509209632874,-0.06339448690414429,-0.050904035568237305,-0.00999477505683899,0.4052833838756179,-0.6166995588474293,0.08309094874502632,0.6697185596239316
1728405071760453400,3.921453369140625,-0.8786830306053162,0.015587497502565384,0.16464830935001373,0.8943162560462952,0.3886007070541382,-0.2217836230993271,-0.07527023553848267,-0.031575530767440796,0.01765163242816925,0.4016807758880857,-0.6185344007856506,0.08076745105484125,0.670480735655018
1728405071770484500,3.931484375,-0.6670734882354736,-0.006652933545410633,0.15345504879951477,0.8948811888694763,0.38900893926620483,-0.2187691479921341,-0.06107985973358154,0.010145783424377441,0.050068020820617676,0.39878991402322667,-0.6200284134398258,0.07861422241288042,0.6710822086096723
1728405071780514600,3.9415146484375,-0.5521394610404968,0.005195736885070801,0.26011574268341064,0.895691454410553,0.3884636461734772,-0.21640926599502563,-0.025223255157470703,0.005106329917907715,0.024438515305519104,0.39621108776485564,-0.621153200498851,0.07722736328344684,0.6717302379054014
1728405071790544400,3.95154443359375,-0.5468478798866272,-0.03963490203022957,0.2974740266799927,0.8967772126197815,0.38708898425102234,-0.21436651051044464,0.03748798370361328,0.019206851720809937,0.04961740970611572,0.3935400272398245,-0.62209645140391,0.07624137700750647,0.672539732559827
1728405071800575500,3.961575439453125,-0.5194852352142334,-0.11529450863599777,0.24007302522659302,0.8976571559906006,0.38580504059791565,-0.2129935473203659,0.04284888505935669,-0.000718921422958374,0.09424974024295807,0.39101438516784626,-0.6227806195698675,0.07515001419117943,0.6735017371640802
1728405071810605600,3.97160546875,-0.8524040579795837,-0.2019321471452713,0.2410842329263687,0.8982202410697937,0.38512730598449707,-0.21184317767620087,0.027484774589538574,-0.09603419899940491,0.055425405502319336,0.3881982756890783,-0.6234612642679306,0.07331071502605417,0.6747027589110622
1728405071820636400,3.981636474609375,-1.0822778940200806,-0.2760351300239563,0.27786409854888916,0.8987231254577637,0.38484928011894226,-0.2102089673280716,0.04002809524536133,-0.14656797051429749,0.09158720076084137,0.38431499186334916,-0.6244593020157033,0.07032846474297927,0.6763183409571499
1728405071830666500,3.99166650390625,-1.1515644788742065,-0.29794901609420776,0.2960177958011627,0.8992059826850891,0.3846338391304016,-0.20853163301944733,0.03804987668991089,-0.13443541526794434,0.0712178498506546,0.3799169145600464,-0.6255135922097104,0.06683510288541838,0.6781806520356953
1728405071840697600,4.001697509765625,-0.9528732895851135,-0.23632559180259705,0.30155956745147705,0.899828314781189,0.38412779569625854,-0.20677287876605988,-0.0072043538093566895,0.003949075937271118,0.010666966438293457,0.37561637648493107,-0.6265478037110173,0.06365066286596792,0.679925666860005
1728405071850727700,4.011727783203125,-0.7563002705574036,-0.22231492400169373,0.2785557210445404,0.9004766941070557,0.38324666023254395,-0.205582395195961,-0.04226118326187134,0.1062706708908081,-0.03448411822319031,0.3720395830512242,-0.6272611728766891,0.06125537373938155,0.681452863625283
1728405071860757500,4.021757568359375,-0.6601420640945435,-0.23991362750530243,0.29195675253868103,0.9010791778564453,0.3821715712547302,-0.20494239032268524,-0.04242128133773804,0.13166821002960205,-0.013593897223472595,0.3689107464784734,-0.627706113487287,0.05927766103323661,0.682917372712313
1728405071870788600,4.03178857421875,-0.6156312823295593,-0.11749956011772156,0.37111973762512207,0.901934802532196,0.38053569197654724,-0.20422160625457764,-0.016284048557281494,0.09447050094604492,-0.0008259415626525879,0.3659010431078152,-0.6281289235558383,0.05782089555566948,0.6842714101811265
1728405071880818700,4.041818603515625,-0.8901198506355286,-0.1670151799917221,0.3079594075679779,0.9030019044876099,0.37881889939308167,-0.20269231498241425,0.002607405185699463,0.011638402938842773,-0.03156057000160217,0.3624040256216263,-0.6288877920765512,0.056160388561436764,0.6855725635670626
1728405071890849500,4.051849609375,-1.2077033519744873,-0.21316450834274292,0.2542080283164978,0.9036528468132019,0.3784985840320587,-0.20037657022476196,-0.0005459785461425781,-0.07011830806732178,0.09866151213645935,0.3581573326950443,-0.6300803141607351,0.0530142572332045,0.6869584226164106
1728405071900879600,4.061879638671875,-1.2437617778778076,-0.1814499795436859,0.3226853609085083,0.9043242931365967,0.3783799409866333,-0.1975514441728592,0.012957990169525146,-0.10147854685783386,0.12241718173027039,0.35334257109919504,-0.6315004461710447,0.0493098965117094,0.6884221086784927
1728405071910910700,4.07191064453125,-1.4660905599594116,-0.1570926159620285,0.3286631107330322,0.9052966833114624,0.3778824210166931,-0.19401858747005463,0.044669926166534424,-0.08123615384101868,-0.04160758852958679,0.3480134318532056,-0.6331801205089741,0.04553724748551991,0.6898523155022827
