time,seconds_elapsed,rotationRateX,rotationRateY,rotationRateZ,gravityX,gravityY,gravityZ,accelerationX,accelerationY,accelerationZ,quaternionW,quaternionX,quaternionY,quaternionZ
1728062383006913000,0.1099130859375,-0.08444472402334213,-0.08642599731683731,-0.11000266671180725,0.002688627690076828,-0.3796033561229706,-0.9251453876495361,0.006436129100620747,-0.015248298645019531,0.0008442997932434082,0.9811077988892078,0.19345650305361678,0.0013701999799150628,-4.128863424880067e-17
1728062383016943900,0.11994384765625,-0.08124493807554245,-0.05362091213464737,-0.12137862294912338,0.0022141134832054377,-0.3789360523223877,-0.9254202246665955,-0.014100708067417145,-0.019470930099487305,-0.001825869083404541,0.9811776646228306,0.19310330911515888,0.0010054399912137596,-0.0006242333012419475
1728062383026974000,0.129973876953125,-0.09112419933080673,-0.028209557756781578,-0.12319143861532211,0.0027162996120750904,-0.3782927393913269,-0.925682008266449,-0.029129261150956154,-0.012225449085235596,-0.00293731689453125,0.9812437675841886,0.19276335796315866,0.0011286104479431044,-0.0013005991827738307
1728062383037005000,0.140005126953125,-0.08917903155088425,-0.026888897642493248,-0.11459768563508987,0.003716902108862996,-0.3777061402797699,-0.9259180426597595,-0.014733746647834778,0.0061393678188323975,-0.013336658477783203,0.9813027744680228,0.19245442074775973,0.0015042462487783535,-0.001986600342520984
1728062383047035000,0.150034912109375,-0.06850264966487885,-0.03457781672477722,-0.09539895504713058,0.004396534990519285,-0.3776473104953766,-0.9259390830993652,-0.0012379670515656471,0.020637422800064087,-0.016703128814697266,0.981306731717269,0.19242519223516227,0.0017333086043405722,-0.002584692643915671
1728062383057066000,0.16006591796875,-0.06835430860519409,-0.04558199644088745,-0.08839244395494461,0.004877859726548195,-0.37791699171066284,-0.9258266091346741,0.005498119629919529,0.01930496096611023,-0.022583365440368652,0.9812764252177623,0.1925699462150771,0.0018728838031249599,-0.0031215315516390577
1728062383067096000,0.170095947265625,-0.06678976863622665,-0.051125418394804,-0.07858029007911682,0.005251290742307901,-0.3780948221683502,-0.9257519841194153,0.007840750738978386,0.01488986611366272,-0.019804656505584717,0.9812556504005552,0.1926659407651688,0.0019619134082811316,-0.003635862196346967
1728062383077127000,0.180126953125,-0.06696980446577072,-0.05588795244693756,-0.06148253381252289,0.005451843608170748,-0.37814435362815857,-0.9257305860519409,0.004435851704329252,0.01187238097190857,-0.008931279182434082,0.9812484423132697,0.19269354461637403,0.001977959430986813,-0.004074097605930009
1728062383087157000,0.190156982421875,-0.0743098109960556,-0.058833032846450806,-0.05323845148086548,0.005267587956041098,-0.37806329131126404,-0.9257647395133972,0.004559074994176626,0.007854580879211426,-0.003739595413208008,0.9812556794130987,0.19265076999272868,0.0018182247118956462,-0.004410315944592502
1728062383097188000,0.20018798828125,-0.06693871319293976,-0.05993611365556717,-0.0427197627723217,0.00426091905683279,-0.37802863121032715,-0.9257841110229492,0.006664371583610773,0.007056921720504761,0.003924369812011719,0.9812596226212739,0.1926301235770872,0.0012596320048361344,-0.004643269575520161
1728062383107218000,0.210218017578125,-0.05754553899168968,-0.04207344353199005,-0.03387939929962158,0.0027880114503204823,-0.37782609462738037,-0.9258723855018616,0.002613598480820656,0.007251113653182983,0.0033870339393615723,0.9812816043260623,0.19251900585571605,0.00048681754856363447,-0.00475953338728583
1728062383117248000,0.220248046875,-0.053761452436447144,-0.03425014019012451,-0.03302452713251114,0.002074378775432706,-0.3769592046737671,-0.9262275099754333,-0.0033256018068641424,0.007101386785507202,-0.003124237060546875,0.9813711907287685,0.19205787248333422,0.00009483222349317826,-0.0049158295641306545
1728062383127279000,0.230279052734375,-0.04656079784035683,-0.014385036192834377,-0.026537863537669182,0.001990616787225008,-0.3756856322288513,-0.9267449975013733,-0.004020032938569784,0.007124871015548706,-0.004620909690856934,0.9815020680752897,0.19138311187834967,0.000020590830243448946,-0.005095007690460224
1728062383137309200,0.24030908203125,-0.03142179176211357,-0.0059425486251711845,-0.02942366525530815,0.0022915517911314964,-0.3745681345462799,-0.9271965622901917,-0.0013760242145508528,0.007426410913467407,-0.0015906691551208496,0.9816162588187751,0.19079230135755906,0.00014305906476991153,-0.005269325712054145
1728062383147340000,0.250340087890625,-0.018528498709201813,-0.01279763225466013,-0.028770923614501953,0.0026856146287173033,-0.37378981709480286,-0.9275095462799072,0.0007933862507343292,0.003855764865875244,-0.0015981197357177734,0.9816949773542119,0.19038154609460556,0.00031042911888484487,-0.005452527354700538
1728062383157370000,0.2603701171875,-0.018256323412060738,-0.021521084010601044,-0.02833789400756359,0.0028615782503038645,-0.3733251094818115,-0.927696168422699,0.00527135981246829,0.00012564659118652344,-0.0016251206398010254,0.9817415229634372,0.19013622214555884,0.0003663682901319913,-0.005633382868152496
1728062383167401000,0.27040087890625,-0.03220130130648613,-0.019944066181778908,-0.0271847452968359,0.0029974186327308416,-0.37297746539115906,-0.9278355240821838,0.012337664142251015,0.0023872554302215576,0.0007725954055786133,0.9817757931280655,0.18995280369617426,0.00039977650482468766,-0.005823649078305437
1728062383177431000,0.28043115234375,-0.02737804874777794,-0.020949941128492355,-0.028716862201690674,0.0031793243251740932,-0.37271496653556824,-0.9279404282569885,0.010507811792194843,0.003971070051193237,-0.0002517104148864746,0.981801353641884,0.18981459975261716,0.00045608673288738644,-0.00601574187530052
1728062383187462100,0.290462158203125,-0.04464445263147354,-0.019981030374765396,-0.032028235495090485,0.0031680394895374775,-0.3723968267440796,-0.9280681610107422,0.005025927443057299,0.0017608404159545898,-0.0017871260643005371,0.9818328429537366,0.18964633597295752,0.00041728466566108563,-0.006192136546993465
1728062383197492000,0.300491943359375,-0.07447133213281631,-0.019977301359176636,-0.03392121195793152,0.002973414259031415,-0.37175607681274414,-0.9283256530761719,-0.0011118401307612658,-0.0005278289318084717,0.0012016892433166504,0.9818972166030111,0.18930684452683377,0.0002865144008938381,-0.00636733173081732
1728062383207523000,0.310523193359375,-0.08949488401412964,-0.02460416965186596,-0.03218935802578926,0.0027322876267135143,-0.3708674907684326,-0.9286817908287048,-0.004517564550042152,0.0002925395965576172,0.007157742977142334,0.9819867994735973,0.18883617370671116,0.00013444881562856296,-0.0065353836614638
1728062383217553000,0.320552978515625,-0.09936535358428955,-0.02046162448823452,-0.04459649324417114,0.0026035085320472717,-0.36989566683769226,-0.9290696382522583,0.0010433392599225044,0.0017926394939422607,0.0079880952835083,0.9820841808164852,0.188322006926114,0.0000346230839041304,-0.006731828868970407
1728062383227584000,0.330583984375,-0.09147028625011444,-0.002457376103848219,-0.053226735442876816,0.0026998247485607862,-0.36899545788764954,-0.9294272661209106,0.0008554763626307249,0.003867894411087036,0.00364607572555542,0.9821733669415083,0.18784666254790486,0.00003749263028169368,-0.006990212667199872
1728062383237613800,0.34061376953125,-0.08562465012073517,0.01827799528837204,-0.057186320424079895,0.00317198084667325,-0.3683062791824341,-0.9296990633010864,-0.007841169834136963,0.004719853401184082,-0.0013006329536437988,0.9822405326928177,0.1874844081278747,0.00022545952783057418,-0.007278124948445035
1728062383247645000,0.35064501953125,-0.07076693326234818,0.009132646955549717,-0.054428618401288986,0.00390991335734725,-0.3676704466342926,-0.9299479126930237,-0.009128415957093239,0.0054878294467926025,-0.011778771877288818,0.9823016122674307,0.18715164784480517,0.0005456305400740087,-0.0075819953589863955
1728062383257675000,0.360675048828125,-0.06606938689947128,-0.02114163525402546,-0.05220780894160271,0.004336624406278133,-0.36709487438201904,-0.930173397064209,0.006115648429840803,0.014860987663269043,-0.010836124420166016,0.9823567566295146,0.18684966113584428,0.000710699957219159,-0.007868096810113662
1728062383267705900,0.370705810546875,-0.07558319717645645,-0.04624810814857483,-0.05241154134273529,0.004314225632697344,-0.3665730953216553,-0.9303792715072632,0.026172837242484093,0.016444921493530273,-0.004328370094299316,0.9824066605510651,0.18657428051151762,0.000644581165243035,-0.008167641732781547
1728062383277736000,0.38073583984375,-0.1024283915758133,-0.06907778233289719,-0.03842994198203087,0.004027137532830238,-0.3658713102340698,-0.9306567311286926,0.03563045337796211,0.014400362968444824,0.007271111011505127,0.9824750025987996,0.18620264777276696,0.0004500637676643695,-0.008439151827745702
1728062383287766000,0.39076611328125,-0.05234052240848541,-0.10319586843252182,-0.03782966732978821,0.003087298246100545,-0.36537301540374756,-0.9308560490608215,0.03867600858211517,0.02124151587486267,0.01593911647796631,0.9825233812574684,0.18593536553209117,-0.00007616037632450071,-0.008704522117029503
1728062383297796900,0.400796875,-0.08293305337429047,-0.08537106215953827,-0.023730358108878136,0.0023470264859497547,-0.3649695813655853,-0.9310165047645569,0.013613668270409107,-0.003865867853164673,0.0020003914833068848,0.982562078477111,0.18571890637512825,-0.0004958596692800962,-0.008942149370400027
1728062383307827000,0.410826904296875,-0.12079735100269318,-0.04275872930884361,-0.01461196132004261,0.0018555168062448502,-0.3640456199645996,-0.9313792586326599,-0.01586308516561985,-0.01394510269165039,0.012662827968597412,0.9826530764545008,0.18522897788708773,-0.0007689516026269877,-0.00908805446217195
1728062383317858000,0.420858154296875,-0.1343405842781067,-0.015746548771858215,-0.005803823005408049,0.0014353601727634668,-0.36286893486976624,-0.9318390488624573,-0.022263608872890472,-0.007965415716171265,0.01385509967803955,0.9827694942031432,0.1846063008737678,-0.000987210429794983,-0.009143135419901673
1728062383327888100,0.43088818359375,-0.15704870223999023,-0.0012796204537153244,-0.012494215741753578,0.0012001555878669024,-0.3614180386066437,-0.9324030876159668,-0.016016436740756035,-0.0069596171379089355,0.002212047576904297,0.982912604697202,0.18384023238127545,-0.0011056546667346998,-0.009175574250903495
1728062383337919000,0.4409189453125,-0.16724061965942383,0.004164147190749645,-0.010690989904105663,0.001539063174277544,-0.35959044098854065,-0.9331089854240417,-0.011747193522751331,-0.0007763803005218506,0.003101050853729248,0.9830913386437915,0.18287873785295664,-0.0009410363890464608,-0.009266557336452383
1728062383347949000,0.450948974609375,-0.1608746498823166,0.004567722789943218,0.012842832133173943,0.0024284906685352325,-0.3577969968318939,-0.933796226978302,-0.0021843514405190945,0.004144042730331421,-0.001491248607635498,0.9832652178342738,0.18193857427796106,-0.0004953812708128066,-0.00935115853880852
1728062383357980000,0.46097998046875,-0.1530683934688568,-0.0011151963844895363,0.02281663753092289,0.003448046511039138,-0.35630562901496887,-0.934363067150116,0.01005597971379757,0.008634120225906372,-0.003213167190551758,0.9834093095976691,0.18115863678255165,0.0000296929997050613,-0.009355462687948358
1728062383368010000,0.471010009765625,-0.16833136975765228,-0.013453781604766846,0.011576766148209572,0.0044378372840583324,-0.35470736026763916,-0.9349668025970459,0.011797517538070679,0.00952303409576416,0.006423771381378174,0.9835626311147868,0.18032275496980632,0.0005387826502322669,-0.00936649447337395
1728062383378041000,0.481041015625,-0.1688469648361206,-0.045152585953474045,0.008511466905474663,0.0044572786428034306,-0.35353884100914,-0.9354091882705688,0.01046582031995058,0.013405203819274902,0.020614326000213623,0.9836750154880867,0.17970834481911674,0.0005528897690598273,-0.009375053900577492
1728062383388071200,0.4910712890625,-0.17278070747852325,-0.059322576969861984,0.0005374294705688953,0.0034146320540457964,-0.35275423526763916,-0.9357097744941711,0.020114421844482422,0.01770174503326416,0.015787899494171143,0.983751748986314,0.1792905871778744,0.00003321029307168014,-0.0093403971849303
1728062383398102000,0.50110205078125,-0.18981802463531494,-0.055599477142095566,-0.006780670490115881,0.0022122282534837723,-0.3516852557659149,-0.9361156821250916,0.019012749195098877,0.021683424711227417,0.003086566925048828,0.9838548745102347,0.1787227759128206,-0.0005729448997786907,-0.00934301072401399
1728062383408132000,0.511132080078125,-0.19362588226795197,-0.06157630309462547,-0.0206938236951828,0.0012285730335861444,-0.3503897786140442,-0.9366031885147095,0.010307075455784798,0.019197732210159302,0.0013462305068969727,0.9839779971682757,0.1780372247065256,-0.0010799473990709134,-0.009418991027012354
1728062383418163000,0.521162841796875,-0.2231086641550064,-0.06203782930970192,-0.019893011078238487,0.00039269201806746423,-0.3487704396247864,-0.9372081160545349,0.003727181814610958,0.003189384937286377,0.00008958578109741211,0.9841304775063142,0.17718251314658287,-0.0015198006883546283,-0.009549634155426215
1728062383428193000,0.531193115234375,-0.26437342166900635,-0.04786454141139984,-0.03400563448667526,-0.00002683885395526886,-0.3466586172580719,-0.9379913806915283,-0.0032080255914479494,-0.004873394966125488,0.00722050666809082,0.9843275632233532,0.17607169224684588,-0.0017550788933321188,-0.009735540571196797
1728062383438224100,0.54122412109375,-0.2858630120754242,-0.04274461418390274,-0.045804768800735474,0.00005194224650040269,-0.3441418409347534,-0.9389176964759827,-0.010412655770778656,-0.007603764533996582,0.012587130069732666,0.984560074206193,0.1747515390633354,-0.0017508441162653835,-0.0100129723923556
1728062383448254200,0.551254150390625,-0.30598464608192444,-0.0420490987598896,-0.04222095385193825,0.0002534165687393397,-0.34152287244796753,-0.939873456954956,-0.015145992860198021,-0.0038750767707824707,0.012627363204956055,0.9847995786412634,0.17337945775042515,-0.0016879777318596996,-0.010318569834976253
1728062383458283800,0.56128369140625,-0.33717799186706543,-0.03240952268242836,-0.02117558941245079,0.000429126201197505,-0.33873340487480164,-0.9408823251724243,-0.010835618712008,0.002811133861541748,0.015543580055236816,0.9850532495746445,0.17191921455422754,-0.0016230074736736306,-0.010547464929113794
1728062383468315000,0.57131494140625,-0.3596358895301819,-0.045006223022937775,-0.010390318930149078,0.0007971023442223668,-0.33556225895881653,-0.942017674446106,-0.005771464668214321,0.011251986026763916,0.018693149089813232,0.985339381512575,0.17026173216947063,-0.001448860483828539,-0.010725665961588051
1728062383478345000,0.581344970703125,-0.3829236328601837,-0.07632099837064743,-0.03296620398759842,0.0008866701391525567,-0.33203771710395813,-0.9432656764984131,0.00393510889261961,0.01898840069770813,0.012891590595245361,0.9856538369676118,0.16841955297257702,-0.0014166044737458777,-0.010922821458945029
1728062383488375800,0.591375732421875,-0.37234875559806824,-0.13166192173957825,-0.04622954502701759,0.00030815074569545686,-0.3285110592842102,-0.9445000886917114,0.009564286097884178,0.024067699909210205,0.009639859199523926,0.9859632726674469,0.16657409587860905,-0.0017428146371661144,-0.011240802974521786
1728062383498406000,0.601406005859375,-0.32787102460861206,-0.1603441685438156,-0.040874991565942764,-0.0008672068943269551,-0.3256649374961853,-0.9454848766326904,0.01620228961110115,0.021267354488372803,-0.0016891956329345703,0.9862089456432057,0.16508153773902517,-0.0023794232044960792,-0.011588243172761553
1728062383508437000,0.61143701171875,-0.3231643736362457,-0.17415758967399597,0.01541438139975071,-0.0023417342454195023,-0.3225632905960083,-0.9465450048446655,0.01908062770962715,0.008812040090560913,-0.015979409217834473,0.9864752572572251,0.1634553002366584,-0.0031405768398302114,-0.011790588512469677
1728062383518467000,0.621467041015625,-0.308351069688797,-0.2041168212890625,0.025323471054434776,-0.004290073178708553,-0.3195694088935852,-0.9475531578063965,0.03218314051628113,0.005879223346710205,-0.006014347076416016,0.9867298101813151,0.16188403116485087,-0.004120822943988591,-0.011867151162426112
1728062383528498000,0.631497802734375,-0.31029683351516724,-0.20210689306259155,0.08798578381538391,-0.006388552021235228,-0.3166216015815735,-0.9485304355621338,0.005625612568110228,-0.0176527202129364,-0.001435995101928711,0.9869788131107523,0.1603381307822208,-0.005145289762755241,-0.011750267307307662
1728062383538528000,0.641528076171875,-0.30114009976387024,-0.174761563539505,0.16042058169841766,-0.008610917255282402,-0.3136846125125885,-0.9494881629943848,-0.0099742840975523,-0.03128606081008911,0.003183901309967041,0.9872264923077164,0.15880086624056455,-0.006180230775864222,-0.011308683227984019
1728062383548558800,0.651558837890625,-0.31957170367240906,-0.1634087711572647,0.21588143706321716,-0.010808033868670464,-0.3107200264930725,-0.9504400491714478,-0.012370061129331589,-0.03418964147567749,0.000992417335510254,0.9874762792408053,0.1572542751528165,-0.007147001629104259,-0.01051467471307533
1728062383558589000,0.6615888671875,-0.34349966049194336,-0.16933509707450867,0.2162305861711502,-0.013068702071905136,-0.30752789974212646,-0.9514493346214294,-0.00666090939193964,-0.024198174476623535,0.0024899840354919434,0.9877413068999866,0.15559348497085568,-0.008124696058487603,-0.009581035342446085
1728062383568620000,0.6716201171875,-0.37970706820487976,-0.17491142451763153,0.17256219685077667,-0.015333912335336208,-0.3040759563446045,-0.9525243639945984,-0.0023815371096134186,-0.018861055374145508,0.0015050768852233887,0.9880208447281477,0.15380042627847837,-0.00912402488908672,-0.008763113543223764
1728062383578650000,0.681650146484375,-0.3993854224681854,-0.18246841430664062,0.18054422736167908,-0.017569562420248985,-0.30031609535217285,-0.9536778926849365,-0.0036554094403982162,-0.024421483278274536,-0.0042994022369384766,0.988318473393071,0.15184990285966254,-0.010131802898553534,-0.008091327042495888
1728062383588681000,0.691680908203125,-0.401696115732193,-0.17872603237628937,0.27901965379714966,-0.019935717806220055,-0.29636523127555847,-0.9548665881156921,0.0037156306207180023,-0.03546765446662903,-0.011152088642120361,0.9886265147983002,0.14980692977918258,-0.011162047481942428,-0.007124086861471941
1728062383598711000,0.7017109375,-0.3899238705635071,-0.16553646326065063,0.26127898693084717,-0.02240166999399662,-0.29254910349845886,-0.9559880495071411,0.018541201949119568,-0.03963470458984375,-0.01773625612258911,0.9889182471018334,0.14784105179630067,-0.012206117282327822,-0.005884816858655999
1728062383608742000,0.711741943359375,-0.26332828402519226,-0.17907480895519257,0.23055465519428253,-0.024708518758416176,-0.28917890787124634,-0.956956148147583,0.00034023821353912354,-0.05008500814437866,-0.023268461227416992,0.9891686627139396,0.1461083150904746,-0.013202159449241089,-0.004824521681540183
1728062383618772000,0.72177197265625,-0.1582239419221878,-0.2240084707736969,0.42271050810813904,-0.02801099233329296,-0.28749674558639526,-0.9573719501495361,0.003261236473917961,-0.051233112812042236,-0.03299975395202637,0.9892799761006127,0.14525674501481484,-0.014646327113798334,-0.0033308038910238825
1728062383628803000,0.731802978515625,-0.26717764139175415,-0.08479992300271988,0.41734904050827026,-0.03055838868021965,-0.2851196527481079,-0.9580046534538269,0.03930167853832245,0.011956781148910522,-0.00603032112121582,0.9894445546854836,0.14405988074011944,-0.01563366840113213,-0.0013151071931986299
1728062383638833200,0.741833251953125,-0.16041366755962372,-0.00937520433217287,0.6491753458976746,-0.032406002283096313,-0.28295332193374634,-0.9585860967636108,0.029369506984949112,0.04828837513923645,0.02165067195892334,0.9895917124762044,0.14298233233722205,-0.01621778212732649,0.0010771866790218678
1728062383648863000,0.751863037109375,-0.19044752418994904,-0.3418373763561249,0.4973714351654053,-0.03620488569140434,-0.2810796797275543,-0.9590012431144714,0.15432317554950714,0.01952877640724182,-0.0059645771980285645,0.989689526235127,0.14207389799284678,-0.01773075015501586,0.003902935644239775
1728062383658894000,0.76189404296875,-0.241275817155838,-0.3419792950153351,0.19745849072933197,-0.04049275070428848,-0.27883607149124146,-0.9594846367835999,0.09386800229549408,-0.002459704875946045,0.051006853580474854,0.9898047753034016,0.14096058285064686,-0.01969253156914819,0.005353367921384112
1728062383668924200,0.771924072265625,-0.247868150472641,-0.2850916087627411,0.19594821333885193,-0.04411163553595543,-0.27639833092689514,-0.9600302577018738,-0.048905935138463974,-0.04856809973716736,0.013481855392456055,0.989938929345573,0.13973329160713444,-0.021435353808104546,0.005983733601984748
1728062383678955000,0.781955078125,-0.3113991916179657,-0.17035172879695892,0.7554916739463806,-0.04707016423344612,-0.2735273540019989,-0.9607118368148804,-0.00970778614282608,-0.0511949360370636,-0.005047440528869629,0.9900948760887053,0.13832031773054843,-0.02261825372453338,0.00824799094215511
1728062383688985000,0.791985107421875,-0.34806445240974426,-0.3484213948249817,0.4300893247127533,-0.051705554127693176,-0.2699814438819885,-0.9614762663841248,0.19356651604175568,0.012550413608551025,-0.007029592990875244,0.9902599783104574,0.1365941209584145,-0.024574892398343262,0.011107691534751805
1728062383699016200,0.80201611328125,-0.2941223978996277,-0.40091946721076965,0.22387811541557312,-0.05615568906068802,-0.2666275203227997,-0.9621623158454895,0.056537166237831116,0.029261797666549683,0.023914635181427002,0.9904185620240142,0.13493559911317624,-0.02666893096078879,0.01233507705274529
1728062383709045800,0.812045654296875,-0.2339290827512741,-0.31851527094841003,0.1953655183315277,-0.060297273099422455,-0.26400431990623474,-0.9626349210739136,-0.026754111051559448,-0.0048097968101501465,-0.031231045722961426,0.9905287642973496,0.13364194765221676,-0.028677136686475983,0.01304312299847102
1728062383719077000,0.8220771484375,-0.23037563264369965,-0.1812221258878708,0.28966403007507324,-0.06327449530363083,-0.26158589124679565,-0.9631038904190063,-0.010776400566101074,-0.006221115589141846,-0.04100066423416138,0.9906338780190845,0.13245483065609273,-0.030062607270156725,0.014013913392085532
1728062383729107000,0.83210693359375,-0.20877580344676971,-0.14478783309459686,0.40693792700767517,-0.06574929505586624,-0.25920283794403076,-0.9635823369026184,0.0054770782589912415,0.015153765678405762,-0.04032391309738159,0.9907305245182382,0.13130460011558392,-0.031111697893429963,0.015622739930889038
1728062383739137800,0.8421376953125,-0.20213466882705688,-0.1292293816804886,0.4221126139163971,-0.06817024201154709,-0.25693225860595703,-0.9640220999717712,0.030435264110565186,0.01743030548095703,-0.02938610315322876,0.9908083353966757,0.13022787678303369,-0.03208811574186213,0.017599516687451102
1728062383749167900,0.85216796875,-0.22026468813419342,-0.11604348570108414,0.4040800929069519,-0.07038851082324982,-0.25459009408950806,-0.9644839763641357,0.038772307336330414,0.009823828935623169,-0.016167879104614258,0.9908886562477357,0.12911551433254306,-0.032972679323565755,0.01953292126023603
1728062383759199000,0.862198974609375,-0.2384846955537796,-0.1365082859992981,0.4067653715610504,-0.07261273264884949,-0.2520771920681,-0.9649789929389954,0.06298444420099258,-0.008787095546722412,-0.008165538311004639,0.9909744939067998,0.12791880922026036,-0.03387148543682609,0.021424433499136586
1728062383769229000,0.87222900390625,-0.3101719319820404,-0.1629679650068283,0.4075233042240143,-0.07507943361997604,-0.24914786219596863,-0.9655508399009705,0.09749460220336914,-0.033887431025505066,0.000325620174407959,0.991076070831876,0.12651664849510413,-0.0349015809712032,0.023313899952092543
1728062383779260000,0.882260009765625,-0.4003628194332123,-0.20234465599060059,0.3915768265724182,-0.07781708240509033,-0.24538205564022064,-0.9662981629371643,0.10949433594942093,-0.05008915066719055,0.021733343601226807,0.9912203407056099,0.12469252313468959,-0.03609286262858144,0.025122301559846114
1728062383789290000,0.8922900390625,-0.49342769384384155,-0.24108336865901947,0.3656424283981323,-0.08089368045330048,-0.24072818458080292,-0.9672156572341919,0.10513991117477417,-0.06260128319263458,0.05072706937789917,0.9914081698091769,0.12242021925797301,-0.037489394871396464,0.026789272353288398
1728062383799320800,0.90232080078125,-0.5955431461334229,-0.2700766921043396,0.3398214876651764,-0.08422262966632843,-0.2351466417312622,-0.9683039784431458,0.09313376992940903,-0.06673325598239899,0.06074172258377075,0.9916412296295537,0.11967796619395095,-0.03905374708818268,0.028275958067962816
1728062383809351000,0.912350830078125,-0.6991280913352966,-0.28378817439079285,0.3540073335170746,-0.08771640062332153,-0.22854481637477875,-0.9695736765861511,0.08452732115983963,-0.05494825541973114,0.05227631330490112,0.9919197721766885,0.11642273556664319,-0.040729734450605126,0.029698411902761217
1728062383819382000,0.922382080078125,-0.8070228695869446,-0.2945081889629364,0.3976767957210541,-0.09139219671487808,-0.22084873914718628,-0.9710166454315186,0.08460204303264618,-0.040992096066474915,0.040322065353393555,0.9922357358124746,0.11262719069219913,-0.042506454642530035,0.031250671486791934
1728062383829412000,0.932412109375,-0.8986614942550659,-0.30257558822631836,0.43593868613243103,-0.09520459920167923,-0.2121327668428421,-0.972592294216156,0.08755995333194733,-0.032313063740730286,0.026883065700531006,0.9925768130214535,0.10833335354118705,-0.04435918609926964,0.03297600670549804
1728062383839442000,0.94244189453125,-1.0038491487503052,-0.3016189932823181,0.45248809456825256,-0.09910017251968384,-0.2024070918560028,-0.9742743372917175,0.08495528995990753,-0.033219143748283386,0.017090559005737305,0.9929378204406479,0.1035454809603622,-0.046272604052572476,0.034808537992417836
1728062383849473000,0.95247314453125,-1.1044108867645264,-0.31573978066444397,0.478421688079834,-0.10302604734897614,-0.1916075050830841,-0.9760493040084839,0.08607354015111923,-0.03599262237548828,0.018590807914733887,0.9933158349923864,0.09823121239567408,-0.04822851149296839,0.03671826579412544
1728062383859503000,0.962503173828125,-1.2022364139556885,-0.3456670641899109,0.516605019569397,-0.10719501227140427,-0.179734468460083,-0.977857232093811,0.09601032733917236,-0.040526166558265686,0.037763237953186035,0.9936931579430087,0.0924009791073699,-0.05033337490414709,0.038761247079824444
1728062383869534000,0.972533935546875,-1.2624632120132446,-0.39635738730430603,0.5110491514205933,-0.11173679679632187,-0.16702623665332794,-0.9796004891395569,0.10592320561408997,-0.048473671078681946,0.059053003787994385,0.9940478919962915,0.08617742018530218,-0.05266124689957327,0.04085289480935995
1728062383879564000,0.98256396484375,-1.3154164552688599,-0.4525468647480011,0.4831725060939789,-0.116709865629673,-0.15374566614627838,-0.9811937212944031,0.1042587086558342,-0.047975555062294006,0.06584948301315308,0.994366573699273,0.07968676964640573,-0.05525548361678239,0.042801692664911475
1728062383889595100,0.99259521484375,-1.3439509868621826,-0.5060551762580872,0.4795844256877899,-0.12215594947338104,-0.1400609165430069,-0.982578694820404,0.09881000965833664,-0.04170180857181549,0.07132381200790405,0.9946346237240519,0.07301627929920473,-0.058131597585053846,0.04462393961026634
1728062383899625000,1.002625,-1.3785278797149658,-0.5245872735977173,0.5116750001907349,-0.12790456414222717,-0.12601658701896667,-0.9837480783462524,0.10385672748088837,-0.03157621622085571,0.06403982639312744,0.9948424168701107,0.06619519403032427,-0.0611896086072652,0.046502861789402224
1728062383909656000,1.012656005859375,-1.4109091758728027,-0.5491906404495239,0.5401521921157837,-0.13381588459014893,-0.11153920739889145,-0.9847092628479004,0.10859310626983643,-0.01951856166124344,0.06158304214477539,0.9949869450013341,0.059189820836351444,-0.06435789700986692,0.04853322272993965
1728062383919686100,1.02268603515625,-1.4383975267410278,-0.5786193609237671,0.5492772459983826,-0.13995593786239624,-0.09671266376972198,-0.9854232668876648,0.11984486877918243,-0.003934346139431,0.032847583293914795,0.995062097772523,0.05203945871943115,-0.06767767433697705,0.050624664624490716
1728062383929717000,1.032717041015625,-1.4985278844833374,-0.6356313228607178,0.638385534286499,-0.14644329249858856,-0.08134686201810837,-0.9858686923980713,0.14070598781108856,0.025377586483955383,0.006422281265258789,0.9950557338797975,0.04466117170023879,-0.0712112506296853,0.052897879621644675
1728062383939747000,1.0427470703125,-1.5333607196807861,-0.7453495860099792,0.7840034365653992,-0.15375420451164246,-0.06527021527290344,-0.9859510064125061,0.18212032318115234,0.04650188237428665,0.010639786720275879,0.9949209735320902,0.03701493527289541,-0.07519560526196231,0.05574562914889612
1728062383949778200,1.052778076171875,-1.583056926727295,-0.8632667660713196,0.884364664554596,-0.16220451891422272,-0.04852971062064171,-0.9855630397796631,0.2063787430524826,0.030814219266176224,0.009687244892120361,0.9946245140814605,0.029145381821734158,-0.07980609309497501,0.059191678310829623
1728062383959808000,1.06280810546875,-1.673709511756897,-0.9134202003479004,0.9091496467590332,-0.1713932454586029,-0.03094496950507164,-0.9847165942192078,0.1793583333492279,-0.0002745501697063446,-0.010904133319854736,0.9941848628201364,0.020931562432129486,-0.08487387537035222,0.06288575192339242
1728062383969839000,1.072839111328125,-1.7443907260894775,-0.9445428848266602,0.9416908025741577,-0.18074224889278412,-0.012407219968736172,-0.9834522604942322,0.1336383819580078,-0.018430832773447037,-0.016501963138580322,0.9936214700080684,0.012289118543293731,-0.09012690820874888,0.06665181479193683
1728062383979869200,1.082869140625,-1.765673041343689,-0.994238018989563,1.0103482007980347,-0.19030554592609406,0.006761672906577587,-0.9817016124725342,0.11669714748859406,-0.024080444127321243,-0.0025513172149658203,0.9929039735475501,0.0033974579293318697,-0.09559103366818643,0.07065710759547951
1728062383989900000,1.092900146484375,-1.7690495252609253,-1.0416849851608276,1.0565540790557861,-0.2001551389694214,0.026189303025603294,-0.9794141054153442,0.11905469000339508,-0.020574118942022324,0.007856547832489014,0.992012943814398,-0.005546417387830554,-0.10130237622945626,0.07494921799897919
1728062383999930000,1.10293017578125,-1.7513471841812134,-1.059433102607727,1.0873072147369385,-0.2100827842950821,0.04567723721265793,-0.9766160249710083,0.11531044542789459,0.0022200532257556915,0.0181962251663208,0.9909595893672,-0.014459231518042922,-0.10715844286138107,0.07941609387866606
1728062384009961200,1.112961181640625,-1.7263916730880737,-1.0369977951049805,1.1633013486862183,-0.2197800874710083,0.06510455161333084,-0.973374605178833,0.1141740083694458,0.03314673900604248,0.027528047561645508,0.9897536683323583,-0.02328569379708294,-0.11300654307363905,0.08411172499956002
1728062384019991000,1.122990966796875,-1.6681147813796997,-1.0591957569122314,1.328981637954712,-0.22881929576396942,0.08446960896253586,-0.9697971940040588,0.13567966222763062,0.05626215040683746,0.04784590005874634,0.9883761799015386,-0.03198686197128162,-0.11865177497745762,0.08950353322172605
1728062384030021000,1.133021240234375,-1.6550524234771729,-1.1551101207733154,1.3098912239074707,-0.23828473687171936,0.10366491973400116,-0.9656469225883484,0.16243331134319305,0.05919208377599716,0.05538386106491089,0.9867870575871415,-0.04049351932647166,-0.12464677106500868,0.09526102490451306
1728062384040052200,1.14305224609375,-1.6672742366790771,-1.2282732725143433,1.2204394340515137,-0.2483745664358139,0.12284675240516663,-0.9608427286148071,0.10275997221469879,0.041276730597019196,0.07041609287261963,0.9850274043773578,-0.048955464156770934,-0.13108013147648775,0.1007086328604712
1728062384050082000,1.15308203125,-1.6610187292099,-1.2601497173309326,1.2105237245559692,-0.25875377655029297,0.14191444218158722,-0.9554615616798401,0.049403250217437744,0.016731128096580505,0.07505995035171509,0.9831158023877782,-0.05733556714496688,-0.1377746870851259,0.1058954771799276
1728062384060113200,1.163113037109375,-1.6989730596542358,-1.2422986030578613,1.256799578666687,-0.26886412501335144,0.16122782230377197,-0.9495881199836731,0.036198168992996216,0.0008967369794845581,0.05150163173675537,0.9810380656923231,-0.06579938777341197,-0.1444865593407719,0.11116748204251078
1728062384070143000,1.17314306640625,-1.7441262006759644,-1.1763006448745728,1.306198000907898,-0.2781381607055664,0.18112432956695557,-0.9433096647262573,0.026291877031326294,0.008496582508087158,0.030391573905944824,0.9788022049891413,-0.07453660258315094,-0.1509618039210534,0.11662271611801625
1728062384080174000,1.183174072265625,-1.7457666397094727,-1.1340250968933105,1.3469382524490356,-0.2864513695240021,0.20139801502227783,-0.9366880059242249,0.024015486240386963,0.028780758380889893,0.019772112369537354,0.9764234613736731,-0.08345982035010191,-0.15713195343064426,0.12223408838505151
1728062384090204000,1.193203857421875,-1.710434913635254,-1.1233407258987427,1.3942275047302246,-0.2940838932991028,0.2215767502784729,-0.9297410249710083,0.04028448462486267,0.04894624650478363,0.0266953706741333,0.9738960706715618,-0.09231038816165306,-0.16312041717597622,0.12805052073956047
1728062384100235000,1.203235107421875,-1.689132571220398,-1.1299299001693726,1.4481348991394043,-0.3012515902519226,0.24160747230052948,-0.9224279522895813,0.067792147397995,0.06283581256866455,0.03726553916931152,0.971198013997019,-0.1010412795875445,-0.16904641291678776,0.13412085383173636
1728062384110265000,1.21326513671875,-1.6972025632858276,-1.1380467414855957,1.4888306856155396,-0.30800122022628784,0.2617011070251465,-0.914684534072876,0.08439892530441284,0.05858081579208374,0.06086373329162598,0.9683105371696596,-0.10976181828067107,-0.1749573591992961,0.1404172304736558
1728062384120296000,1.2232958984375,-1.7239974737167358,-1.1499961614608765,1.4945482015609741,-0.314357727766037,0.28201597929000854,-0.9064470529556274,0.08614727854728699,0.03522944450378418,0.09423691034317017,0.9652351323629538,-0.11858178141201624,-0.180872449003224,0.14678126269785552
1728062384130326000,1.233325927734375,-1.7528743743896484,-1.1810201406478882,1.4615322351455688,-0.3205481767654419,0.3024601638317108,-0.8976450562477112,0.0788489580154419,0.004958599805831909,0.11952310800552368,0.9619760442473718,-0.12747348783956655,-0.1868902636662574,0.15305043011332617
1728062384140357000,1.243357177734375,-1.7986451387405396,-1.224090576171875,1.4192824363708496,-0.3267820179462433,0.3230511248111725,-0.8881731033325195,0.06594827771186829,-0.01041385531425476,0.12946033477783203,0.9585284101681134,-0.13646296795838814,-0.1931095509229857,0.15909066682021403
1728062384150387000,1.253386962890625,-1.8568121194839478,-1.2519253492355347,1.4159913063049316,-0.3330223858356476,0.34394875168800354,-0.8779495358467102,0.05799797177314758,-0.0025028884410858154,0.13293910026550293,0.9548635821885469,-0.14563234768554728,-0.19954061308266982,0.16495561849378892
1728062384160418000,1.26341796875,-1.9160797595977783,-1.2475273609161377,1.4589494466781616,-0.3388751745223999,0.3653015196323395,-0.8670169711112976,0.0608447790145874,0.02269887924194336,0.12861359119415283,0.9509574348920593,-0.1550552219271616,-0.20603252334315592,0.17084608093896927
1728062384170448100,1.2734482421875,-1.9923409223556519,-1.1995275020599365,1.5076302289962769,-0.34385737776756287,0.38728126883506775,-0.8554386496543884,0.06793272495269775,0.05017286539077759,0.13035625219345093,0.9468115868732797,-0.164855745689395,-0.21237525924389627,0.1768252612179509
1728062384180479000,1.28347900390625,-2.056809425354004,-1.1832036972045898,1.562841773033142,-0.3478516638278961,0.4098914861679077,-0.8432011604309082,0.07081308960914612,0.06700661778450012,0.1492619514465332,0.9424101406553836,-0.1750503961503135,-0.2185332494415426,0.18293088201331922
1728062384190509000,1.293509033203125,-2.107463836669922,-1.1603708267211914,1.5998258590698242,-0.3510051369667053,0.43291640281677246,-0.8302883505821228,0.07657584547996521,0.06162083148956299,0.1560329794883728,0.9377467268156088,-0.18553128302626473,-0.2245750817761014,0.1891432213963031
1728062384200539100,1.3035390625,-2.184939384460449,-1.1240851879119873,1.754640817642212,-0.35275211930274963,0.4566271901130676,-0.8167358636856079,0.07884162664413452,0.0497661828994751,0.1766754388809204,0.9327837332472472,-0.19645971433351567,-0.23029466821069106,0.19565872913255225
1728062384210570000,1.313570068359375,-2.2030727863311768,-1.1796096563339233,1.749328851699829,-0.3539254367351532,0.4806736707687378,-0.8023026585578918,0.1172921359539032,0.047768622636795044,0.22309428453445435,0.9274482754008414,-0.20759188471182732,-0.23612341807290038,0.2024623358553538
1728062384220600000,1.32360009765625,-2.2594387531280518,-1.2230250835418701,1.6665031909942627,-0.35498932003974915,0.5045371651649475,-0.7870354652404785,0.08187225461006165,0.03403693437576294,0.24519580602645874,0.9218655567961649,-0.21875460501946623,-0.24213364085181818,0.20900135500314806
1728062384230631200,1.333631103515625,-2.341799020767212,-1.2655898332595825,1.5535681247711182,-0.3564072251319885,0.5282723307609558,-0.7706505656242371,0.043052732944488525,0.030214548110961914,0.2678123712539673,0.9160281385306699,-0.2300232345503724,-0.24852372590489671,0.2149831239685675
1728062384240661200,1.3436611328125,-2.403702735900879,-1.2323371171951294,1.494625210762024,-0.3577360212802887,0.5518791675567627,-0.7532956600189209,0.012689054012298584,0.03614872694015503,0.2738187313079834,0.9099790748733471,-0.24145698301083246,-0.25505037315209605,0.2204222465313541
1728062384250692000,1.353692138671875,-2.43485426902771,-1.1603198051452637,1.4968904256820679,-0.35821959376335144,0.5753340125083923,-0.7353022694587708,-0.004268169403076172,0.03547525405883789,0.24895888566970825,0.9037538312397961,-0.2530730261528304,-0.26134822894480975,0.22556601358061734
1728062384260722200,1.36372216796875,-2.4281389713287354,-1.1013425588607788,1.514975666999817,-0.3575558364391327,0.5985004305839539,-0.7169037461280823,-0.00490143895149231,0.03556317090988159,0.23150640726089478,0.8973659754704989,-0.26478719165039005,-0.2672748858081474,0.23062095650488404
1728062384270753000,1.3737529296875,-2.359105110168457,-1.0516469478607178,1.5063241720199585,-0.35590726137161255,0.6209372282028198,-0.6984031200408936,-0.0015145838260650635,0.039493560791015625,0.19838786125183105,0.8908896921276276,-0.276334628442995,-0.2728325766483609,0.2356204669128856
1728062384280783000,1.383783203125,-2.2114949226379395,-1.0378423929214478,1.4723060131072998,-0.35365378856658936,0.6420815587043762,-0.6801912784576416,-0.004225879907608032,0.02973228693008423,0.1633608341217041,0.8844316370905677,-0.28734650113735644,-0.2780941167980822,0.2405748521310664
1728062384290814200,1.393814208984375,-2.0376601219177246,-1.0159844160079956,1.413414716720581,-0.35114893317222595,0.6615078449249268,-0.6626474857330322,-0.020570427179336548,0.01943075656890869,0.1491740345954895,0.8781033038915712,-0.2975218275080007,-0.2831201500745312,0.245475367743053
1728062384300844300,1.40384423828125,-1.889985203742981,-0.9609084725379944,1.3717604875564575,-0.34828120470046997,0.6792879104614258,-0.6459628343582153,-0.04734867811203003,0.027682185173034668,0.13096344470977783,0.8719781079623785,-0.3069082756530173,-0.2877948552573206,0.2502708806506337
1728062384310875100,1.413875244140625,-1.7845935821533203,-0.8846995234489441,1.3424299955368042,-0.3448455333709717,0.6957565546035767,-0.6300827860832214,-0.07951667904853821,0.04374527931213379,0.12329256534576416,0.8660459600611606,-0.31571078925160556,-0.29203650262126984,0.2549620595057228
1728062384320905000,1.423905029296875,-1.7487964630126953,-0.7620271444320679,1.3227349519729614,-0.34059011936187744,0.7113582491874695,-0.6147907972335815,-0.10901007056236267,0.05667752027511597,0.10807693004608154,0.8602746009149033,-0.3242474343637414,-0.2957502263414695,0.25946651058020387
1728062384330936300,1.433936279296875,-1.7502721548080444,-0.6278884410858154,1.3032588958740234,-0.33535072207450867,0.7264735102653503,-0.5998132824897766,-0.13431477546691895,0.05976599454879761,0.09718871116638184,0.8546334940501208,-0.3328236293070863,-0.29886753588098947,0.26364366804334827
1728062384340966000,1.4439658203125,-1.7249059677124023,-0.4969312250614166,1.2909349203109741,-0.3291153609752655,0.7411525249481201,-0.585128903388977,-0.1494612693786621,0.04322540760040283,0.10137951374053955,0.8491155574270701,-0.3414733918579949,-0.3013825977256981,0.2675200499688099
1728062384350997000,1.4539970703125,-1.6756269931793213,-0.3960314989089966,1.2629202604293823,-0.3220742642879486,0.7552002668380737,-0.5709120631217957,-0.149513840675354,0.012637138366699219,0.10998976230621338,0.8437632770545758,-0.3500397561961167,-0.3033416379318104,0.27114462752280494
1728062384361027000,1.464027099609375,-1.636566400527954,-0.3369189202785492,1.2185724973678589,-0.3146366775035858,0.7685333490371704,-0.5570997595787048,-0.14154011011123657,-0.003381490707397461,0.12030160427093506,0.8385673261295022,-0.35842071642307255,-0.3049339637497842,0.2745079063888536
1728062384371058000,1.474057861328125,-1.5735499858856201,-0.31934791803359985,1.1695243120193481,-0.3071514964103699,0.7811428308486938,-0.5435749292373657,-0.12871581315994263,0.0077669620513916016,0.12090641260147095,0.8334903100650474,-0.366551051836963,-0.3063541223601624,0.2776351310119775
1728062384381088000,1.484087890625,-1.403953194618225,-0.31155309081077576,1.132631540298462,-0.29975831508636475,0.7927272915840149,-0.5307807922363281,-0.11520442366600037,0.04276758432388306,0.08920663595199585,0.828607712143466,-0.374132051862578,-0.3076277109906134,0.2807124769203192
1728062384391119000,1.494119140625,-1.0672281980514526,-0.2804238498210907,1.1039764881134033,-0.2923758029937744,0.8026123046875,-0.5199325084686279,-0.10511565208435059,0.08952325582504272,0.018391311168670654,0.8242055953664598,-0.3805993141248682,-0.30850915612036556,0.28399177128302133
1728062384401149000,1.50414892578125,-0.628016471862793,-0.2104426473379135,1.0685513019561768,-0.2848391830921173,0.8101938366889954,-0.5123013257980347,-0.10627409815788269,0.13847553730010986,-0.05848431587219238,0.820622048148358,-0.38546226139332523,-0.3086554621823512,0.287628391944279
1728062384411179000,1.514178955078125,-0.11149878799915314,-0.11530254036188126,1.0064458847045898,-0.2771967351436615,0.8150385618209839,-0.5087966918945312,-0.12217152118682861,0.18551063537597656,-0.10248571634292603,0.8181305066717492,-0.38836445409889536,-0.3078550125417053,0.2916518297040628
1728062384421210000,1.524210205078125,0.4063156247138977,0.012015944346785545,0.9309870600700378,-0.26951226592063904,0.8169391751289368,-0.5098758935928345,-0.15024176239967346,0.21762186288833618,-0.1307796835899353,0.8169120570800883,-0.3891727422615175,-0.3059519866936525,0.2959604271495852
1728062384431240200,1.534240234375,0.8654118180274963,0.14933449029922485,0.8501608967781067,-0.26178744435310364,0.8160204291343689,-0.5153424143791199,-0.17969506978988647,0.22032588720321655,-0.1183856725692749,0.8169522643237108,-0.38803127414686367,-0.30291997202500004,0.30043308608865005
1728062384441271000,1.54427099609375,1.2080632448196411,0.288561075925827,0.7856234312057495,-0.2539594769477844,0.8126766681671143,-0.5244626998901367,-0.20304125547409058,0.19357925653457642,-0.08765894174575806,0.8180708623464574,-0.3853053127311801,-0.29884522985038386,0.3049447732071921
1728062384451301000,1.554301025390625,1.3503742218017578,0.4272595942020416,0.7334311008453369,-0.2458852082490921,0.8077263236045837,-0.5358344316482544,-0.2194620817899704,0.1453527808189392,-0.04036802053451538,0.8199121167137318,-0.38169120272291335,-0.2939295944144101,0.3092914760997721
1728062384461332000,1.56433203125,1.3403300046920776,0.5557277798652649,0.7142384648323059,-0.23737305402755737,0.8021335005760193,-0.5479376912117004,-0.22257262468338013,0.08026689291000366,0.02005988359451294,0.8220761636595051,-0.37795128515354715,-0.28841632225244573,0.31330402356169357
1728062384471362000,1.574362060546875,1.2435609102249146,0.6711857318878174,0.7090535759925842,-0.2282397598028183,0.79660564661026,-0.559755265712738,-0.2206280529499054,-0.0033623576164245605,0.06459224224090576,0.8242791339983823,-0.3746040457308901,-0.28247863276561247,0.31692494308920527
1728062384481393200,1.58439306640625,1.079315185546875,0.7473379969596863,0.6923169493675232,-0.21861578524112701,0.7915648818016052,-0.5706418752670288,-0.2161071002483368,-0.09245306253433228,0.10041171312332153,0.8263357975026246,-0.37189294544829626,-0.2763597337298238,0.3201406438692735
1728062384491423200,1.59442333984375,0.7987236976623535,0.8160979747772217,0.6604847311973572,-0.20872655510902405,0.7875760793685913,-0.5797905921936035,-0.21166835725307465,-0.14904159307479858,0.11744922399520874,0.8280696759874914,-0.3701707508276759,-0.27033002387252286,0.3227937936095873
1728062384501454000,1.6044541015625,0.5023719072341919,0.8463504314422607,0.6226268410682678,-0.1987827718257904,0.785118818283081,-0.5865779519081116,-0.1975337415933609,-0.1515892744064331,0.10807758569717407,0.8293370341164806,-0.3697048252700009,-0.26463062948879973,0.3247904549919027
1728062384511484200,1.614484130859375,0.2790070176124573,0.9026601910591125,0.5875617861747742,-0.18885910511016846,0.7840374708175659,-0.5912845730781555,-0.17002762854099274,-0.1211499571800232,0.08312106132507324,0.8302072670481078,-0.3703361615640547,-0.25924668721764904,0.3261872370229002
1728062384521515000,1.624514892578125,0.17516933381557465,0.9444286823272705,0.597074031829834,-0.17870651185512543,0.7838304042816162,-0.5947047472000122,-0.13629591464996338,-0.08622920513153076,0.06151688098907471,0.8308368867907453,-0.37170635971954047,-0.2539330638377857,0.32720370433570684
1728062384531545000,1.634545166015625,0.1611539125442505,0.9902371764183044,0.6307457089424133,-0.16808952391147614,0.7839061617851257,-0.5976930260658264,-0.10325752198696136,-0.07173281908035278,0.05016183853149414,0.8313562499071228,-0.37337836908171607,-0.24847952515168104,0.3281664196300567
1728062384541576200,1.644576171875,0.12335985898971558,1.0150383710861206,0.6625784635543823,-0.15694759786128998,0.7840955853462219,-0.6004676818847656,-0.08601811528205872,-0.07276147603988647,0.03192514181137085,0.8317925508327155,-0.37522909861448167,-0.2428359133320587,0.32917304432041555
1728062384551606300,1.654606201171875,0.04389652982354164,1.0112056732177734,0.664094090461731,-0.14557097852230072,0.7846170663833618,-0.6026484370231628,-0.09289339184761047,-0.07206225395202637,0.039187073707580566,0.8320687486682552,-0.3773741350957764,-0.23720150756284653,0.3301298673511062
1728062384561637000,1.66463720703125,0.024610716849565506,0.97446209192276,0.6147699356079102,-0.13447102904319763,0.7853764891624451,-0.6042361855506897,-0.10669414699077606,-0.058447837829589844,0.025775432586669922,0.8322174572363737,-0.37968219858983915,-0.23178294840567645,0.33095652055286634
1728062384571667200,1.674667236328125,0.1492898017168045,0.9332383275032043,0.5522993803024292,-0.12407917529344559,0.7856782078742981,-0.6060643792152405,-0.1144767627120018,-0.024005353450775146,-0.01786750555038452,0.8324866632930304,-0.38162523996104575,-0.22656122380451335,0.33165943479511184
1728062384581697000,1.684697021484375,0.4846568703651428,0.8979882001876831,0.4906376302242279,-0.11441252380609512,0.7844564914703369,-0.6095389127731323,-0.11422517895698547,0.03608483076095581,-0.054233670234680176,0.8332291005732818,-0.38246967562243933,-0.22124078632521882,0.3324132847957301
1728062384591727900,1.694727783203125,0.9604974985122681,0.9278907775878906,0.4657413363456726,-0.10505791008472443,0.780444324016571,-0.6163354516029358,-0.11135751008987427,0.1096007227897644,-0.10510015487670898,0.8348495483921298,-0.3814315349253704,-0.21527249855627217,0.3334574646310101
1728062384601758000,1.704758056640625,1.2245675325393677,0.9649417400360107,0.5032410025596619,-0.09528982639312744,0.7742697596549988,-0.6256406307220459,-0.11520518362522125,0.16998982429504395,-0.13893163204193115,0.8370712446092393,-0.37905680338857967,-0.20855607124996092,0.3348611013704933
1728062384611789000,1.7147890625,1.5630090236663818,0.9346275925636292,0.3814232349395752,-0.08576987683773041,0.7657210230827332,-0.6374282240867615,-0.11502054333686829,0.1829177737236023,-0.0773392915725708,0.8399756552283714,-0.3751831384019751,-0.20130452632983772,0.3363849543323011
1728062384621819100,1.724819091796875,1.5813517570495605,0.8432087302207947,0.2391659915447235,-0.07764444500207901,0.7557826042175293,-0.6502029895782471,-0.14865869283676147,0.15683019161224365,-0.1454818844795227,0.8432869211133508,-0.37033596910527394,-0.1942930303895683,0.3375922398650967
1728062384631850000,1.73485009765625,1.567345380783081,0.7779943943023682,0.14212332665920258,-0.07096252590417862,0.745566725730896,-0.6626420617103577,-0.15694276988506317,0.13698625564575195,-0.09704732894897461,0.8466439938578812,-0.3652114389965626,-0.18788178258981536,0.33840046522617895
1728062384641880000,1.744880126953125,1.4548324346542358,0.7349036335945129,0.1201823428273201,-0.06500434130430222,0.7354768514633179,-0.6744243502616882,-0.13537409901618958,0.11431550979614258,-0.10101205110549927,0.8498867032542388,-0.36014592746727825,-0.1818865851480584,0.33897597967261883
1728062384651911000,1.754910888671875,1.2760964632034302,0.6964623332023621,0.13401080667972565,-0.05911017209291458,0.7262430787086487,-0.6848918795585632,-0.10447931289672852,0.09649544954299927,-0.11781203746795654,0.8527678624521167,-0.35566159882588666,-0.17623531360409467,0.33945954898877073
1728062384661941000,1.76494091796875,0.9501513838768005,0.6119386553764343,0.11656762659549713,-0.053648192435503006,0.718625009059906,-0.6933252811431885,-0.07145865261554718,0.08618450164794922,-0.1118963360786438,0.8550843005226727,-0.3521196166240035,-0.17131591186966552,0.3398431810602774
1728062384671972000,1.77497216796875,0.8838536739349365,0.6439092755317688,0.0050879730843007565,-0.048867013305425644,0.7122911214828491,-0.7001808881759644,-0.04830096662044525,0.05566829442977905,-0.12335127592086792,0.8571182136900124,-0.3493243809219542,-0.16697916487561723,0.33976265061572086
1728062384682002200,1.785002197265625,0.7396256327629089,0.5198425054550171,-0.009568734094500542,-0.04471540451049805,0.7065239548683167,-0.7062750458717346,-0.02976277843117714,0.039142489433288574,-0.21801090240478516,0.8590517598055735,-0.3468174015895355,-0.1630342513069401,0.339363476041104
1728062384692033000,1.795032958984375,0.5914353728294373,0.3686034083366394,0.031516917049884796,-0.04155348613858223,0.7019082903862,-0.7110542058944702,0.029819447547197342,0.07148337364196777,-0.23871392011642456,0.8605156294118651,-0.34476357424518583,-0.16003431741830484,0.3391752987357478
1728062384702063000,1.80506298828125,0.5004551410675049,0.31413882970809937,0.06507034599781036,-0.03879154846072197,0.698013186454773,-0.7150334715843201,0.07109438627958298,0.08204656839370728,-0.2236567735671997,0.861645727306896,-0.34301398334425703,-0.15755851363360684,0.33923936586596304
1728062384712094000,1.815093994140625,0.3526683747768402,0.28182482719421387,0.0916186049580574,-0.03607407957315445,0.6949687004089355,-0.7181345224380493,0.08134688436985016,0.07402843236923218,-0.24432891607284546,0.8624797323482122,-0.34173847319542217,-0.1553948453976667,0.33940534436674297
1728062384722124000,1.8251240234375,0.21197381615638733,0.23877085745334625,0.10199188441038132,-0.03350359946489334,0.6930047273635864,-0.7201541066169739,0.08893877267837524,0.0571783185005188,-0.2085721492767334,0.8629886647399282,-0.34106100720311083,-0.15362402133574662,0.33959903516607576
1728062384732155100,1.835155029296875,0.08547686040401459,0.1381198763847351,0.11417637765407562,-0.03135686740279198,0.691978394985199,-0.7212368249893188,0.09585574269294739,0.026328980922698975,-0.16424596309661865,0.8631982785263644,-0.34083494669681236,-0.1523585691486668,0.3398630993153858
1728062384742185200,1.845185302734375,-0.04248696193099022,0.052892327308654785,0.12062069028615952,-0.02984427660703659,0.6918616890907288,-0.7214129567146301,0.1010417714715004,0.0046103596687316895,-0.11763733625411987,0.8631014953837773,-0.3409947269589136,-0.1517106076139125,0.3402384408579066
1728062384752216000,1.855216064453125,-0.12827271223068237,-0.019992269575595856,0.11866540461778641,-0.0288898516446352,0.6925700306892395,-0.7207719087600708,0.09642524272203445,-0.0031017661094665527,-0.06366723775863647,0.8627496823904911,-0.3415170976844341,-0.15159198250361683,0.34065939775223736
1728062384762246100,1.86524609375,-0.18047519028186798,-0.07815970480442047,0.10751660913228989,-0.028499996289610863,0.6937379837036133,-0.7196633219718933,0.08485068380832672,-0.004559636116027832,-0.016786932945251465,0.8622442247777602,-0.3421887990608455,-0.15190508506313166,0.34112537999434434
1728062384772276200,1.875276123046875,-0.22839051485061646,-0.0495738610625267,0.09848450124263763,-0.028210164979100227,0.6952676773071289,-0.7181969881057739,0.07444427162408829,-0.004639744758605957,0.021099209785461426,0.8616614194115056,-0.3430637209213082,-0.1523443025982898,0.3415229240774467
1728062384782307000,1.88530712890625,-0.25998997688293457,-0.05777532979846001,0.09347642213106155,-0.02790723741054535,0.6970798969268799,-0.7164500951766968,0.06428417563438416,-0.008710265159606934,0.0509989857673645,0.861029366610946,-0.34412107259563435,-0.15282556701088704,0.34183806820097395
1728062384792337200,1.895337158203125,-0.2920435070991516,-0.050134457647800446,0.09274618327617645,-0.027662087231874466,0.6991068124771118,-0.7144819498062134,0.06603790074586868,-0.022394895553588867,0.0630689263343811,0.8603469822926614,-0.34530011925609755,-0.15338468408683084,0.3421169014468221
1728062384802368300,1.9053681640625,-0.3312873840332031,-0.05103157088160515,0.08982709050178528,-0.02738489955663681,0.7013806104660034,-0.7122607231140137,0.06916342675685883,-0.04357427358627319,0.07053709030151367,0.8596054237841,-0.3466382553954672,-0.15398553969771453,0.3423579305310085
1728062384812398000,1.915398193359375,-0.381018728017807,-0.08567450195550919,0.07019693404436111,-0.027277257293462753,0.7039605379104614,-0.7097150683403015,0.07229065150022507,-0.05813241004943848,0.07032597064971924,0.8587927665603884,-0.3481356313265337,-0.15473864634470952,0.3425383397268506
1728062384822429200,1.92542919921875,-0.4151242971420288,-0.10470694303512573,0.05152231454849243,-0.027540821582078934,0.7068313360214233,-0.706845760345459,0.07046375423669815,-0.06167459487915039,0.06828063726425171,0.8579090761562048,-0.34974453774596115,-0.15574301268726728,0.34265848562080753
1728062384832459000,1.935458984375,-0.42286020517349243,-0.1174805760383606,0.04012851417064667,-0.027981311082839966,0.7098378539085388,-0.7038091421127319,0.06945466995239258,-0.04734700918197632,0.06014758348464966,0.8569990497860591,-0.3514129284218494,-0.1568578316191919,0.34272033577523414
1728062384842490000,1.945489990234375,-0.40557044744491577,-0.1267494559288025,0.02480974607169628,-0.028605341911315918,0.7127907276153564,-0.7007932066917419,0.06644710153341293,-0.01180201768875122,0.05195891857147217,0.8561111737426715,-0.35302582689383877,-0.1580384729467982,0.34273931887889053
1728062384852520000,1.95552001953125,-0.3458659052848816,-0.13212279975414276,0.03383466601371765,-0.029291462153196335,0.7154678106307983,-0.6980313062667847,0.06083136051893234,0.02386617660522461,0.04431420564651489,0.8552827276179208,-0.3544613840046682,-0.15919009045772206,0.3427927812987352
1728062384862551000,1.965551025390625,-0.2757563292980194,-0.12257669121026993,0.038071222603321075,-0.029927708208560944,0.7176614999771118,-0.6957486867904663,0.05687471106648445,0.04475909471511841,0.02591836452484131,0.8545617338415407,-0.3556087600390094,-0.16021252675749145,0.3429264250412053
1728062384872581000,1.9755810546875,-0.2185410112142563,-0.1089862734079361,0.025622276589274406,-0.03048679791390896,0.7193976640701294,-0.6939290165901184,0.04621857777237892,0.053841352462768555,0.018040895462036133,0.8539693038387016,-0.35649918550653126,-0.16107085038022098,0.3430755755610888
1728062384882612000,1.985612060546875,-0.16556194424629211,-0.09109514951705933,0.016368059441447258,-0.031009024009108543,0.720748245716095,-0.692503035068512,0.0306427963078022,0.058014512062072754,0.020597457885742188,0.8535055097467,-0.35717549213237215,-0.16178430893195334,0.34319064342449884
1728062384892642000,1.99564208984375,-0.11847326904535294,-0.07003120332956314,0.013633258640766144,-0.03146420791745186,0.721750020980835,-0.6914382576942444,0.019684404134750366,0.06308567523956299,0.02031087875366211,0.8531530311739587,-0.3576612297804144,-0.16235554345617575,0.3432913903910415
1728062384902673000,2.0056728515625,-0.06872488558292389,-0.05347486212849617,0.009301627054810524,-0.031770575791597366,0.7224223017692566,-0.6907217502593994,0.011674720793962479,0.06653320789337158,0.02102869749069214,0.8529069840836021,-0.3579830799922363,-0.16274904874883647,0.3433807863912439
1728062384912703000,2.015702880859375,-0.018139610067009926,-0.03364448621869087,0.013345636427402496,-0.03195301443338394,0.722749650478363,-0.6903708577156067,0.0036479346454143524,0.06213182210922241,0.01721411943435669,0.8527621301727855,-0.3581215300435771,-0.16298325591629326,0.3434851899815217
1728062384922733600,2.025733642578125,0.031693994998931885,-0.019019467756152153,0.012615397572517395,-0.0320083312690258,0.7227228879928589,-0.6903963685035706,-0.0028122588992118835,0.05166059732437134,0.009259223937988281,0.8527226963555234,-0.358072285207141,-0.16305233381375375,0.34360174203873756
1728062384932763600,2.035763671875,0.059428151696920395,-0.012852758169174194,0.0038243033923208714,-0.0320466011762619,0.7224100232124329,-0.6907219290733337,-0.006344553083181381,0.03843885660171509,-0.0013557672500610352,0.8527798235057437,-0.35786039109401313,-0.16301837213762937,0.34369682143903296
1728062384942794500,2.04579443359375,0.06724798679351807,-0.011279363185167313,-0.005123385228216648,-0.03135263919830322,0.7223817706108093,-0.6907833218574524,-0.00549737736582756,0.019881904125213623,-0.005627870559692383,0.852728226262376,-0.3579489516925638,-0.16272950675316133,0.3438694891790388
1728062384952824300,2.05582421875,0.051033198833465576,-0.02009565383195877,-0.015982424840331078,-0.030870651826262474,0.7224359512329102,-0.6907483339309692,-0.004010973498225212,0.0037602782249450684,0.0015240311622619629,0.8526778199111686,-0.35805840753873264,-0.16254235474664713,0.34396883909309484
1728062384962854400,2.0658544921875,0.04889148473739624,-0.02399398759007454,-0.010843855328857899,-0.030621664598584175,0.7226853966712952,-0.6904984712600708,-0.004626160487532616,0.002381622791290283,0.010139524936676025,0.8525817996831451,-0.35824571999747457,-0.16251393223657393,0.3440252922998131
1728062384972885200,2.07588525390625,0.0573708601295948,-0.029316473752260208,0.0008937609381973743,-0.030435234308242798,0.7231676578521729,-0.6900016665458679,-0.004446391016244888,0.010902106761932373,0.013838887214660645,0.8524109101574169,-0.3585579963732571,-0.16258949747557674,0.3440878338176366
1728062384982915300,2.085915283203125,0.07531470060348511,-0.020695822313427925,0.005370001774281263,-0.030213717371225357,0.7240673899650574,-0.6890671849250793,-0.012358343228697777,0.013176202774047852,0.00931859016418457,0.8521171928598441,-0.3591287303590043,-0.16276654960338702,0.3441365342821154
1728062384992946400,2.095946533203125,0.08893777430057526,-0.006221594754606485,0.006828614976257086,-0.03015308827161789,0.7251445651054382,-0.6879361867904663,-0.023878324776887894,0.005736112594604492,0.0008633732795715332,0.8517949152871046,-0.35978750911170615,-0.1630486409312243,0.34411272203344423
1728062385002976500,2.1059765625,0.10466613620519638,0.015112722292542458,0.0032895407639443874,-0.030265118926763535,0.72575843334198,-0.6872835755348206,-0.03307415544986725,-0.0034990310668945312,-0.011492729187011719,0.8516331869130863,-0.3601455186304962,-0.16325877097343552,0.34403878965488005
1728062385013007400,2.11600732421875,0.11773933470249176,0.038973208516836166,-0.001992040779441595,-0.03042534366250038,0.7256717681884766,-0.6873680353164673,-0.03505014628171921,-0.008676588535308838,-0.02074664831161499,0.8516948987799082,-0.3600792532381369,-0.16327559733476268,0.3439473947577797
1728062385023037400,2.126037353515625,0.13213132321834564,0.05458678677678108,0.0017473041079938412,-0.030385224148631096,0.7249817252159119,-0.6880975961685181,-0.03090936318039894,-0.005987703800201416,-0.02302306890487671,0.851932229153682,-0.35968659652034085,-0.16302380302916164,0.34388998808394766
1728062385033068500,2.136068603515625,0.14688296616077423,0.06364020705223083,0.005734588485211134,-0.03015907295048237,0.7240169644355774,-0.6891224980354309,-0.02114100381731987,0.0021486878395080566,-0.023768186569213867,0.8522408693521053,-0.3591605287975772,-0.16261143400093508,0.34387011794713956
1728062385043098400,2.146098388671875,0.132329061627388,0.05224160850048065,-0.0024165483191609383,-0.029966285452246666,0.7232902646064758,-0.6898936629295349,-0.006975285708904266,0.0058203935623168945,-0.023882031440734863,0.8524859354499534,-0.3587750369002758,-0.16227646144285307,0.3438234146051272
1728062385053129500,2.15612939453125,0.09918694943189621,0.036924488842487335,-0.010235855355858803,-0.029930679127573967,0.723088800907135,-0.690106213092804,0.005226669833064079,-0.0077416300773620605,-0.01990056037902832,0.8525937685627873,-0.3586837462083954,-0.16215069784750386,0.3437104020362134
1728062385063159600,2.16615966796875,0.04834400862455368,0.004547109827399254,-0.02124163508415222,-0.03057127259671688,0.7232170701026917,-0.689943790435791,0.013481397181749344,-0.036556363105773926,-0.01241832971572876,0.8526403259728675,-0.3586767526605548,-0.16241641267111756,0.3434768098805789
1728062385073190400,2.1761904296875,0.004379613790661097,-0.022902676835656166,-0.021574530750513077,-0.03199461102485657,0.7232708930969238,-0.689822793006897,0.021023504436016083,-0.04846632480621338,0.00011026859283447266,0.8527273929098467,-0.35848332008912204,-0.16302852984366895,0.3431724175809262
1728062385083220500,2.186220458984375,-0.01631021872162819,-0.04230726882815361,-0.012519782409071922,-0.0341014638543129,0.7229846119880676,-0.6900219321250916,0.02732653170824051,-0.03809398412704468,0.008304953575134277,0.8529138997339657,-0.35795505198097033,-0.16388170916457268,0.3428538146245306
1728062385093251600,2.19625146484375,-0.02647257409989834,-0.04708343371748924,-0.004131358116865158,-0.036309294402599335,0.7223705053329468,-0.6905523538589478,0.03489020839333534,-0.019581317901611328,0.011032581329345703,0.8531669138673659,-0.3571984159865468,-0.1647213648878655,0.3426111815977284
1728062385103281400,2.206281494140625,-0.03094002604484558,-0.060705773532390594,0.010330140590667725,-0.03793112188577652,0.7219058871269226,-0.6909508109092712,0.039380695670843124,-0.006497681140899658,0.012850165367126465,0.8533182728154348,-0.35661784275961395,-0.16537323918496868,0.342524771306076
1728062385113312500,2.2163125,-0.041099317371845245,-0.06888939440250397,0.018506577238440514,-0.03879339620471001,0.7217627167701721,-0.6910525560379028,0.041951920837163925,-0.00138014554977417,0.01646137237548828,0.8533102034564057,-0.3563438509046099,-0.16580950889409296,0.34261920965370474
1728062385123342600,2.226342529296875,-0.05317329615354538,-0.08234501630067825,0.02523212321102619,-0.03905661776661873,0.7218006253242493,-0.6909981369972229,0.04323749989271164,-0.003706812858581543,0.016040802001953125,0.8531950878796813,-0.35626624021232983,-0.16605809873430338,0.3428661788912332
1728062385133373400,2.23637353515625,-0.05895109102129936,-0.08827102929353714,0.02949904091656208,-0.03895456716418266,0.7217807173728943,-0.691024661064148,0.038252633064985275,-0.005777418613433838,0.022720158100128174,0.8530616441475718,-0.3562062979506527,-0.16614676233336312,0.34321725305365924
1728062385143403500,2.246403564453125,-0.06169068440794945,-0.09054190665483475,0.033365681767463684,-0.03864366188645363,0.7214809060096741,-0.6913550496101379,0.03028181940317154,-0.001891791820526123,0.02591925859451294,0.8529796536617605,-0.35600351655856516,-0.16608418577397877,0.34366121140490685
1728062385153433600,2.25643359375,-0.05240510404109955,-0.08452412486076355,0.03646267205476761,-0.038044754415750504,0.7211340069770813,-0.691750168800354,0.021946709603071213,0.00902944803237915,0.024468064308166504,0.8528913697949544,-0.35581806397279875,-0.16588677757324222,0.34416752945374984
1728062385163464400,2.26646435546875,-0.041689611971378326,-0.0689355805516243,0.028672663494944572,-0.037016984075307846,0.7209681868553162,-0.6919786930084229,0.011382196098566055,0.010614335536956787,0.01938652992248535,0.8527421422734102,-0.3558202001190049,-0.16553741394771715,0.3447028520317125
1728062385173494500,2.27649462890625,-0.035606350749731064,-0.06294655054807663,0.016943568363785744,-0.03561714291572571,0.7211546301841736,-0.6918579339981079,0.0011780261993408203,0.003942906856536865,0.01105654239654541,0.8525020192339571,-0.3561117032615166,-0.16509234164378314,0.34520904979606476
1728062385183525600,2.286525634765625,-0.03487265110015869,-0.051552750170230865,-0.00040133437141776085,-0.03439602255821228,0.7216176390647888,-0.691436767578125,-0.005154799669981003,-0.003127157688140869,0.004562318325042725,0.8522249392627382,-0.35655711130940715,-0.16476845965333486,0.3455877775271541
1728062385193555500,2.296555419921875,-0.031266000121831894,-0.048486653715372086,-0.013145625591278076,-0.03344881534576416,0.7221560478210449,-0.6909209489822388,-0.0064682066440582275,-0.011523783206939697,0.0011015534400939941,0.8519732863136154,-0.35701843890986495,-0.16455198776624352,0.3458350522349121
1728062385203586300,2.30658642578125,-0.023132171481847763,-0.048772409558296204,-0.013883054256439209,-0.03275269269943237,0.7225563526153564,-0.6905356049537659,-0.007454242557287216,-0.012824416160583496,0.0006704330444335938,0.8517817020029942,-0.35735837735564446,-0.16439946102420783,0.3460282866574715
1728062385213616400,2.316616455078125,-0.004978600889444351,-0.03981310874223709,-0.010626008734107018,-0.032252002507448196,0.7229138612747192,-0.6901849508285522,-0.005101539194583893,-0.003050088882446289,0.0008844137191772461,0.8516146471977872,-0.3576406658921353,-0.1643187973045606,0.34618628684820085
1728062385223647200,2.326647216796875,0.015808437019586563,-0.024691151455044746,-0.012528836727142334,-0.03181800618767738,0.7232433557510376,-0.6898598670959473,-0.004574231803417206,0.006431877613067627,-0.00020366907119750977,0.8514720788590888,-0.3579012358925813,-0.16424608046292155,0.34630209654113103
1728062385233677300,2.33667724609375,0.0362551212310791,-0.008648639544844627,-0.008283758535981178,-0.03137855976819992,0.7236496210098267,-0.6894538402557373,-0.008736822754144669,0.011106729507446289,-0.004180252552032471,0.8513254657137429,-0.35821801527027586,-0.16417351430654376,0.3463695516607146
1728062385243708400,2.34670849609375,0.055113762617111206,0.005390213802456856,-0.004589155316352844,-0.031217172741889954,0.7238543033599854,-0.6892462968826294,-0.010195203125476837,0.004462897777557373,-0.009011149406433105,0.8512630007004406,-0.3583713970076368,-0.16415476003236093,0.3463733104356988
1728062385253738500,2.356738525390625,0.06372848898172379,0.010526278987526894,-0.004514320753514767,-0.031331904232501984,0.7236363887786865,-0.6894698143005371,-0.01139272004365921,-0.005206942558288574,-0.01020669937133789,0.8513384893800806,-0.3582234656107733,-0.1641372234633088,0.3463491249699491
1728062385263769300,2.366769287109375,0.06520787626504898,0.015194001607596874,-0.0032016485929489136,-0.031594302505254745,0.7231553196907043,-0.6899624466896057,-0.012183193117380142,-0.011943221092224121,-0.008691787719726562,0.8514961891222677,-0.3578910310999472,-0.16411213954814258,0.3463168941366142
1728062385273799400,2.37679931640625,0.0669439285993576,0.024047786369919777,0.000692692119628191,-0.03179815039038658,0.7224538326263428,-0.6906875967979431,-0.014893777668476105,-0.010234653949737549,-0.00540316104888916,0.85171928708954,-0.357438258703374,-0.1639941982653035,0.34629182296656275
1728062385283830500,2.38683056640625,0.06732422858476639,0.03638701140880585,0.0028908648528158665,-0.031906552612781525,0.7217625379562378,-0.6914048790931702,-0.01609763875603676,-0.0018377304077148438,-0.00830221176147461,0.8519429180812851,-0.35701245364919204,-0.16382813085472772,0.34625946050791423
1728062385293860400,2.3968603515625,0.06608112901449203,0.05101937800645828,-0.0013946937397122383,-0.031810544431209564,0.7213054299354553,-0.6918862462043762,-0.016926050186157227,-0.001517951488494873,-0.013237714767456055,0.8521085730247708,-0.3567720847331156,-0.16361714322269422,0.34619944523209906
1728062385303891500,2.406891357421875,0.05226464569568634,0.05699790641665459,-0.0017763245850801468,-0.03160984441637993,0.7210689783096313,-0.6921418309211731,-0.013083167374134064,-0.011993169784545898,-0.01980280876159668,0.85222711448743,-0.35669266251329934,-0.16339956074663858,0.34609238526023983
1728062385313921500,2.416921630859375,0.026301290839910507,0.05535223335027695,-0.0034266854636371136,-0.03152616322040558,0.7210018038749695,-0.6922156810760498,-0.002241574227809906,-0.022225677967071533,-0.018035292625427246,0.8523085005494521,-0.35669782365958946,-0.16327533928603033,0.34594513822869655
1728062385323951400,2.426951416015625,0.008746531791985035,0.04242551699280739,0.0004607303999364376,-0.03153642266988754,0.7208916544914246,-0.6923298835754395,0.008892357349395752,-0.020742177963256836,-0.009650766849517822,0.8523992604484263,-0.3566574782467025,-0.16318854847800632,0.34580400935035
1728062385333982500,2.436982421875,0.002657081466168165,0.026396162807941437,0.008284032344818115,-0.03167056292295456,0.7206833362579346,-0.6925406455993652,0.017907097935676575,-0.008906662464141846,0.000783383846282959,0.8524990216053375,-0.35652497818604845,-0.16315522886273048,0.3457103938631279
1728062385344012500,2.447012451171875,0.001368377823382616,0.017288949340581894,0.020140958949923515,-0.031847067177295685,0.7204117774963379,-0.6928149461746216,0.023744624108076096,0.0038923025131225586,0.008046269416809082,0.8525906391344104,-0.3563339331202967,-0.16315220152820342,0.3456827858527074
1728062385354043400,2.45704345703125,0.01072858925908804,0.028146497905254364,0.023090409114956856,-0.03205819055438042,0.720183253288269,-0.6930427551269531,0.020354662090539932,0.00825589895248413,0.011005401611328125,0.8526628179344521,-0.3561587846946491,-0.16318560670571972,0.3456694307899003
1728062385364073500,2.467073486328125,0.024396464228630066,0.04347219318151474,0.02286936715245247,-0.032166726887226105,0.7199441194534302,-0.693286120891571,0.009186964482069016,0.0074574947357177734,0.00928032398223877,0.852749023794755,-0.3560023649819763,-0.1631540579035786,0.34563281445469146
1728062385374104600,2.4771044921875,0.03960997238755226,0.06390300393104553,0.024846764281392097,-0.03217040002346039,0.719529390335083,-0.6937164068222046,-0.0008954331278800964,0.006910920143127441,0.0071318745613098145,0.8528968022689042,-0.35576614889168756,-0.16300995620675532,0.3455794521211256
1728062385384134700,2.487134765625,0.05699402466416359,0.0757700502872467,0.028571726754307747,-0.03189386427402496,0.7187408208847046,-0.6945461630821228,-0.0022858604788780212,0.005700588226318359,0.005077779293060303,0.8531403263707185,-0.3553547183778406,-0.1626343541099074,0.34557862312865406
1728062385394165500,2.49716552734375,0.07149813324213028,0.08052725344896317,0.023035548627376556,-0.03124944493174553,0.7177397608757019,-0.6956098079681396,-0.0008855890482664108,0.007968127727508545,0.005744636058807373,0.8534260012749599,-0.354879245762314,-0.16203646486691098,0.3456426681766508
1728062385404195600,2.507195556640625,0.07239855080842972,0.07638097554445267,0.012079570442438126,-0.03030754067003727,0.7168785929679871,-0.6965388655662537,-0.00010324642062187195,0.007623791694641113,0.006933152675628662,0.8536661177062612,-0.3545437068169354,-0.16133607758422852,0.34572147251976065
1728062385414226400,2.517226318359375,0.06118563562631607,0.05913908779621124,0.006756709422916174,-0.029263589531183243,0.716424822807312,-0.6970503330230713,0.0003023706376552582,0.003103315830230713,0.007368266582489014,0.8537891018376161,-0.3544719221153746,-0.1607000229029584,0.3457879894251328
1728062385424256500,2.527256591796875,0.04348307475447655,0.051686499267816544,-0.0024264021776616573,-0.028236212208867073,0.7163911461830139,-0.6971272826194763,0.002815043553709984,-0.008627533912658691,0.004958033561706543,0.8537956583869868,-0.3546503303192311,-0.16018580920127043,0.3458275134210877
1728062385434287600,2.53728759765625,0.018054146319627762,0.04018276184797287,-0.014845521189272404,-0.027480194345116615,0.7165969014167786,-0.6969459652900696,-0.0001229904592037201,-0.022108495235443115,0.005493879318237305,0.8537609676912414,-0.35493196661289694,-0.1598446666264029,0.3457818719405145
1728062385444317400,2.5473173828125,0.00574022252112627,0.029984453693032265,-0.018725480884313583,-0.02723308652639389,0.7168768644332886,-0.6966676712036133,-0.0012550987303256989,-0.024188995361328125,0.010403573513031006,0.8537374737492126,-0.35517379516329617,-0.15974272531264724,0.3456386966736983
1728062385454348500,2.5573486328125,0.003028592560440302,0.02318630740046501,-0.014039115980267525,-0.027329616248607635,0.7171351313591003,-0.6963980793952942,0.0034495871514081955,-0.010271847248077393,0.015520334243774414,0.8537289477910137,-0.3553397360047451,-0.15979561365403208,0.3454646946125121
1728062385464378400,2.56737841796875,0.0037018395960330963,0.010168243199586868,-0.009531183168292046,-0.027492452412843704,0.717318594455719,-0.6962026953697205,0.005245121195912361,0.001965343952178955,0.014699339866638184,0.8537267878121211,-0.35544112593423793,-0.15987576838468423,0.3453286375429287
1728062385474409200,2.5774091796875,0.010374789126217365,0.005606195889413357,-0.006226200610399246,-0.02762093022465706,0.7174850106239319,-0.696026086807251,0.005907651036977768,0.00530850887298584,0.011089563369750977,0.8537130557128357,-0.35553145673563885,-0.15995101635037176,0.3452347288610417
1728062385484439300,2.587439208984375,0.009758267551660538,0.004534273408353329,-0.002294575795531273,-0.0276950616389513,0.7176157236099243,-0.695888340473175,0.005096759647130966,0.0007069110870361328,0.007991552352905273,0.8536945590268837,-0.3556041086512314,-0.1600048000691746,0.3451807609898169
1728062385494470400,2.597470458984375,0.01630331762135029,0.006717320065945387,-0.0001970701850950718,-0.02770005352795124,0.7176512479782104,-0.6958515644073486,0.004003135487437248,-0.004852235317230225,0.007100343704223633,0.8536937698104022,-0.35562871749751895,-0.1600075653041947,0.3451561378743302
1728062385504500500,2.60750048828125,0.019890861585736275,0.012169609777629375,0.0013944352976977825,-0.027587857097387314,0.7174469828605652,-0.6960665583610535,0.0033568795770406723,-0.0031831860542297363,0.007773041725158691,0.8537487358656669,-0.35552662786890915,-0.15989847692532996,0.34517581550981974
1728062385514530300,2.6175302734375,0.02497430518269539,0.005781006067991257,0.005814483854919672,-0.027520913630723953,0.7170270681381226,-0.6965017914772034,0.00483107753098011,0.003935337066650391,0.006834983825683594,0.8538594535672728,-0.3552838467741493,-0.15975760428202326,0.3452171684563763
1728062385524561400,2.6275615234375,0.031151773408055305,0.0026581832207739353,0.0012253238819539547,-0.027516866102814674,0.7166287302970886,-0.6969118714332581,0.00920628011226654,0.0053255558013916016,0.007580757141113281,0.8539628178829731,-0.35504132266275823,-0.1596550471632781,0.34525851786958106
1728062385534591500,2.637591552734375,0.02904508076608181,-0.009766154922544956,-0.006215014960616827,-0.027465201914310455,0.7165111899375916,-0.6970347762107849,0.010329561308026314,0.0006670951843261719,0.007337450981140137,0.8539857495244517,-0.3549760988715169,-0.15960760967158483,0.3452909176120859
1728062385544622300,2.647622314453125,0.025166984647512436,-0.017651773989200592,-0.0061095538549125195,-0.027469120919704437,0.7165920734405518,-0.6969513297080994,0.010409768670797348,-0.007272124290466309,0.00902402400970459,0.8539523792046779,-0.35501911000701675,-0.15964260579001358,0.34531274239786847
1728062385554652400,2.65765234375,0.022815946489572525,-0.022241147235035896,-0.0007089297287166119,-0.027480628341436386,0.7166936993598938,-0.6968463659286499,0.010680675506591797,-0.01332467794418335,0.008201956748962402,0.8539051220066077,-0.35506924515352944,-0.1596954665261088,0.34535365806176266
1728062385564683500,2.66768359375,0.025116916745901108,-0.016754504293203354,-0.0004314281977713108,-0.027485912665724754,0.7166914343833923,-0.6968485116958618,0.010029830038547516,-0.011720240116119385,0.004450440406799316,0.8538807362130979,-0.3550552555563983,-0.15972321425540636,0.34541558680014406
1728062385574713300,2.67771337890625,0.02067316696047783,-0.014079410582780838,-0.0016242582350969315,-0.02752862684428692,0.7165969610214233,-0.696943998336792,0.009462205693125725,-0.007338047027587891,0.002714812755584717,0.8538894369367447,-0.3549819586944418,-0.15973672000413722,0.3454631454629181
1728062385584744400,2.687744384765625,0.027093781158328056,-0.01685815304517746,0.002358499448746443,-0.027540897950530052,0.7165162563323975,-0.6970264315605164,0.010740956291556358,-0.004419207572937012,0.002110600471496582,0.8538907220854368,-0.3549212798280076,-0.15974252670126404,0.3455194695506832
1728062385594774500,2.6977744140625,0.02701721526682377,-0.021380627527832985,0.011005517095327377,-0.027489127591252327,0.7165078520774841,-0.6970371603965759,0.015785619616508484,-0.008515417575836182,-0.0010524988174438477,0.8538548548063921,-0.3549086219077163,-0.1597538845536485,0.3456159082804642
1728062385604805400,2.707805419921875,0.015074002556502819,-0.029030555859208107,0.014226078987121582,-0.027321482077240944,0.7165504097938538,-0.6969999670982361,0.014717688784003258,-0.01278465986251831,0.005669951438903809,0.8537843509271118,-0.3549397825143185,-0.15974277764823086,0.34576327746253754
1728062385614835500,2.71783544921875,0.00285795028321445,-0.029056761413812637,0.019416047260165215,-0.027132870629429817,0.7166092991828918,-0.6969467997550964,0.010622840374708176,-0.015361249446868896,0.01011812686920166,0.8536972681854392,-0.354979407593102,-0.15973799089620494,0.3459396473594371
1728062385624866600,2.727866455078125,-0.0013343978207558393,-0.016994772478938103,0.019059183076024055,-0.02689206786453724,0.7166387438774109,-0.6969258785247803,0.002676328644156456,-0.013345956802368164,0.009013831615447998,0.8536220822672494,-0.3550132211881051,-0.15969556572883187,0.34611000498307
1728062385634896600,2.737896728515625,0.007865026593208313,0.00032392237335443497,0.018027475103735924,-0.02653787098824978,0.7165635824203491,-0.6970167756080627,-0.006787365302443504,-0.0055651068687438965,0.0018110275268554688,0.8535874777354765,-0.35501162393175856,-0.15955677001518176,0.34626112801685205
1728062385644926500,2.747926513671875,0.018695037811994553,0.016302090138196945,0.01337173581123352,-0.026130441576242447,0.7163913249969482,-0.6972091794013977,-0.014168033376336098,0.00023758411407470703,-0.008677661418914795,0.8535927889145359,-0.35496821953809454,-0.15935177179604704,0.3463867923335479
1728062385654957600,2.75795751953125,0.03248342126607895,0.03215082734823227,0.010749055072665215,-0.02563658356666565,0.7161588668823242,-0.697466254234314,-0.014204144477844238,0.0008820295333862305,-0.01777428388595581,0.8536380544761861,-0.3549163256668189,-0.159063772362252,0.3464608079103328
1728062385664987600,2.767987548828125,0.03634793311357498,0.034180689603090286,0.004270649049431086,-0.02511606179177761,0.715901255607605,-0.697749674320221,-0.012222224846482277,-0.004490792751312256,-0.019032001495361328,0.8537058402473682,-0.35486174399460424,-0.15873976226156675,0.3464984142627317
1728062385675018500,2.7780185546875,0.028156183660030365,0.03906865790486336,-0.0027012405917048454,-0.024501319974660873,0.715576171875,-0.6981049180030823,-0.007542157545685768,-0.006927549839019775,-0.0157470703125,0.853795660333423,-0.3547868289612869,-0.15834723703562303,0.3465335053469192
1728062385685048300,2.78804833984375,0.02727467752993107,0.04244927316904068,-0.0034466590732336044,-0.023903435096144676,0.71532142162323,-0.6983866095542908,-0.004050690680742264,-0.008091866970062256,-0.013603806495666504,0.8538755329361153,-0.35475553064104987,-0.157972186187109,0.34653967863439883
1728062385695079700,2.79807958984375,0.024558985605835915,0.04186476022005081,-0.0050730518996715546,-0.023445582017302513,0.7151130437850952,-0.6986154913902283,-0.0019145440310239792,-0.008997440338134766,-0.011253893375396729,0.8539599425630753,-0.35473249456073397,-0.15766136307901793,0.34649686662407037
1728062385705109200,2.808109130859375,0.0154416523873806,0.03696321323513985,-0.0004415484145283699,-0.023232748731970787,0.7149565815925598,-0.698782742023468,0.0016110241413116455,-0.009970128536224365,-0.005837678909301758,0.8540402968774361,-0.354697207390806,-0.1574754865963702,0.3464195207294427
1728062385715140400,2.818140380859375,0.012875230982899666,0.024544732645154,0.0005773776210844517,-0.02329578436911106,0.714853048324585,-0.698886513710022,0.004893656820058823,-0.014657855033874512,-0.00036281347274780273,0.8541073847180246,-0.3546401282932828,-0.15743927007113026,0.3463289710118822
1728062385725170400,2.82817041015625,0.005235686898231506,0.023003561422228813,-0.00727175734937191,-0.023573728278279305,0.7147043347358704,-0.699029266834259,0.005110554397106171,-0.017423570156097412,0.002984285354614258,0.8541950574644671,-0.3545173549867254,-0.15748904309359954,0.3462157680599358
1728062385735201300,2.838201171875,-0.0046127489767968655,0.02114930935204029,-0.013937916606664658,-0.023916596546769142,0.7145065665245056,-0.6992197632789612,-0.0008179433643817902,-0.01908731460571289,0.0036172866821289062,0.8543115042930056,-0.3543594152621728,-0.15754208602158523,0.34606592311482537
1728062385745231400,2.8482314453125,-0.012046962976455688,0.0218726247549057,-0.003909250255674124,-0.024178823456168175,0.7142799496650696,-0.6994422078132629,-0.0020358022302389145,-0.018555641174316406,0.0025580525398254395,0.8544263632047033,-0.3541958048397207,-0.15755709104597448,0.34594289166611675
1728062385755262500,2.858262451171875,-0.017193788662552834,0.021760080009698868,0.0006178575567901134,-0.02424217015504837,0.7140970230102539,-0.6996269226074219,0.0017354246228933334,-0.01776224374771118,0.0016745924949645996,0.8545079419661887,-0.3540875701909289,-0.1575072664712976,0.345875243938575
1728062385765292300,2.868292236328125,-0.018225762993097305,0.013432107865810394,0.00504988944157958,-0.024199288338422775,0.713958740234375,-0.6997694969177246,0.005110526457428932,-0.011184751987457275,0.004731595516204834,0.8545600135752122,-0.35401933854250955,-0.15743432838149202,0.34584957364832325
1728062385775323400,2.878323486328125,-0.02050749398767948,0.006905445363372564,0.007630226667970419,-0.024106767028570175,0.7138527035713196,-0.6998807787895203,0.010297540575265884,-0.002503335475921631,0.006033122539520264,0.854589448591187,-0.3539739598020957,-0.15735956147445582,0.3458571856466588
1728062385785353500,2.888353515625,-0.023283040151000023,-0.00723194470629096,0.007049391511827707,-0.023997386917471886,0.7138249278068542,-0.699912965297699,0.010096613317728043,0.0033228397369384766,0.0093764066696167,0.854583470246297,-0.35397246758712414,-0.1573118685802821,0.3458953469541121
1728062385795384300,2.89838427734375,-0.023013193160295486,-0.014169372618198395,0.014307038858532906,-0.023846108466386795,0.7138131260871887,-0.6999301314353943,0.012508800253272057,0.0043111443519592285,0.012643694877624512,0.8545523982298526,-0.35397944546852317,-0.157268845920303,0.3459845379929999
1728062385805414400,2.908414306640625,-0.026507526636123657,-0.02581670694053173,0.007238476071506739,-0.02377447485923767,0.7138241529464722,-0.6999213099479675,0.011887837201356888,0.0030183792114257812,0.015198349952697754,0.8545095539539885,-0.35398202729758266,-0.15727703928108225,0.34608394274831367
1728062385815444500,2.918444580078125,-0.021606314927339554,-0.019945716485381126,0.0061228773556649685,-0.023907307535409927,0.7138065695762634,-0.699934720993042,0.007504083216190338,0.0009913444519042969,0.018065214157104492,0.8544862430383072,-0.3539326164367491,-0.15736687085054846,0.34615112373121
1728062385825475300,2.928475341796875,-0.011400814168155193,-0.01575416699051857,0.0078952107578516,-0.024055063724517822,0.7137227058410645,-0.7000151872634888,0.005179906263947487,0.0029978156089782715,0.01639091968536377,0.8544863950227443,-0.35384287294543487,-0.15744086118245873,0.3462088715692085
1728062385835505400,2.93850537109375,0.0020512123592197895,-0.011028707027435303,0.008760472759604454,-0.024061115458607674,0.7135511636734009,-0.7001898288726807,0.005857363343238831,0.006602585315704346,0.013651072978973389,0.854506883528386,-0.35372664400954945,-0.1574247612424853,0.3462843024322356
1728062385845536500,2.94853662109375,0.007629202678799629,-0.013447923585772514,0.00402803486213088,-0.02396656759083271,0.7134454846382141,-0.7003006935119629,0.008417835459113121,0.006647169589996338,0.01399087905883789,0.8545046567991502,-0.35366762812411623,-0.15738125900894848,0.34636965670403613
1728062385855566600,2.958566650390625,0.0035803993232548237,-0.02762770839035511,0.002827481832355261,-0.023819876834750175,0.7134632468223572,-0.7002875804901123,0.011948499828577042,0.0024179816246032715,0.01332157850265503,0.8544631229591917,-0.35369044017762086,-0.15735082878093673,0.3464626933410051
1728062385865597400,2.968597412109375,-0.002154451794922352,-0.03983351215720177,0.004851484205573797,-0.023767014965415,0.7136282920837402,-0.700121283531189,0.014535415917634964,-0.00668865442276001,0.01463538408279419,0.8543724225551333,-0.3537791865038727,-0.15741555803657678,0.3465664697449229
1728062385875627500,2.97862744140625,-0.010409384965896606,-0.04558907821774483,0.0013257251121103764,-0.023740552365779877,0.7138901352882385,-0.6998551487922668,0.013242477551102638,-0.014290034770965576,0.01157689094543457,0.8542463887347862,-0.35391698705547775,-0.15752840500828685,0.3466852383946379
1728062385885658600,2.98865869140625,-0.007485767360776663,-0.04677285626530647,0.0015971013344824314,-0.023734204471111298,0.7141961455345154,-0.6995430588722229,0.008444882929325104,-0.009896337985992432,0.007831573486328125,0.8541068908117676,-0.35407678153195926,-0.15766448369346875,0.3468039310036676
1728062385895688400,2.9986884765625,-0.020615417510271072,-0.04056486859917641,-0.011528021655976772,-0.023886200040578842,0.714531421661377,-0.6991954445838928,0.0039429496973752975,-0.0041738152503967285,0.002997875213623047,0.8539800776287908,-0.35423254867513837,-0.15786568382136976,0.34686549552581314
1728062385905719600,3.008719482421875,-0.06630247831344604,-0.039775505661964417,-0.029911555349826813,-0.024149341508746147,0.7150524258613586,-0.6986535787582397,-0.00014266744256019592,-0.005000054836273193,-0.0014807581901550293,0.8538368487291851,-0.35449397198374294,-0.15813674985265497,0.34682765677758337
1728062385915749600,3.01874951171875,-0.16648061573505402,-0.07351434230804443,-0.08868512511253357,-0.02479131519794464,0.716051459312439,-0.6976071000099182,-0.005512656643986702,-0.015520572662353516,-0.009943008422851562,0.8536200298309817,-0.35499559660179875,-0.15866497323477796,0.34660695097950067
1728062385925782500,3.028782470703125,-0.36973145604133606,-0.054161958396434784,-0.147288516163826,-0.02587219327688217,0.7180361747741699,-0.6955247521400452,-0.013388704508543015,-0.031100809574127197,-0.01014852523803711,0.8532412726663061,-0.3560580990010463,-0.1595626534564834,0.3460371916435344
1728062385935812400,3.038812255859375,-0.6167625784873962,-0.028300104662775993,-0.15416958928108215,-0.026876075193285942,0.7214707136154175,-0.6919231414794922,-0.011194627732038498,-0.043446481227874756,-0.014406204223632812,0.8525546507761004,-0.35806449861935463,-0.1607116642117831,0.3451261983432277
1728062385945843500,3.048843505859375,-0.8834033012390137,-0.029020225629210472,-0.11716470122337341,-0.027608070522546768,0.7264562845230103,-0.6866579055786133,0.010670779272913933,-0.05615299940109253,-0.047091543674468994,0.851433937076922,-0.3610870087970119,-0.16213337033451453,0.344077232090346
1728062385955873500,3.05887353515625,-1.168511152267456,-0.06726247072219849,-0.05025278031826019,-0.028038812801241875,0.732972264289856,-0.6796804070472717,0.04184798151254654,-0.06636166572570801,-0.07636213302612305,0.8497778448656474,-0.3650953749499536,-0.16390598777331694,0.3431001288474623
1728062385965904400,3.068904296875,-1.5471487045288086,-0.17709974944591522,-0.006179062649607658,-0.029041994363069534,0.7421625852584839,-0.6695902943611145,0.08021994680166245,-0.07376670837402344,-0.07813620567321777,0.8472144369513983,-0.37065149331208436,-0.16680027750280674,0.34208578315736765
1728062385975934200,3.078934326171875,-1.8955665826797485,-0.3419698178768158,-0.0112404003739357,-0.030797716230154037,0.7535703778266907,-0.6566454172134399,0.10918209701776505,-0.08186334371566772,-0.08050674200057983,0.8437834865333664,-0.3774766900864082,-0.1708468570163815,0.3411042384747807
1728062385985964300,3.08896435546875,-2.4021708965301514,-0.43510136008262634,-0.07322121411561966,-0.03365583345293999,0.7674404978752136,-0.6402361392974854,0.1246897429227829,-0.08760052919387817,-0.11212897300720215,0.8394236374118691,-0.385780032192377,-0.17622623113890293,0.339832381046127
1728062385995995400,3.098995361328125,-2.974057674407959,-0.5049852728843689,-0.1436421126127243,-0.03747810050845146,0.7844229340553284,-0.6190929412841797,0.12040959298610687,-0.08172529935836792,-0.09906208515167236,0.8339124814737106,-0.3961961867718961,-0.1829812012428736,0.33784084978385925
1728062386006025200,3.109025146484375,-3.3899784088134766,-0.6368088126182556,-0.1789226084947586,-0.04227671027183533,0.8037641644477844,-0.5934440493583679,0.13727790117263794,-0.0928572416305542,-0.11657798290252686,0.8272017043859418,-0.4083592328463582,-0.1911038917487662,0.33534961145175346
1728062386016056300,3.119056396484375,-3.79180908203125,-0.6986532807350159,-0.25046923756599426,-0.04790253937244415,0.8244845867156982,-0.5638532042503357,0.17532864212989807,-0.11092269420623779,-0.17239868640899658,0.8194367894736434,-0.42183827653973716,-0.20031440603326386,0.3323399785256895
1728062386026086400,3.12908642578125,-4.103842735290527,-0.7700313329696655,-0.3102843761444092,-0.05429103225469589,0.8460873365402222,-0.5302721858024597,0.1918795257806778,-0.06338787078857422,-0.14320504665374756,0.8106244790132824,-0.4365336842802222,-0.21048099667135564,0.3286700135746332
1728062386036117200,3.1391171875,-4.159275054931641,-0.9380944967269897,-0.32530486583709717,-0.06140618398785591,0.8671943545341492,-0.4941692054271698,0.21602346003055573,0.01599949598312378,-0.08674824237823486,0.8010031917192554,-0.45154345443674054,-0.22141343323959597,0.324774444367253
1728062386046147300,3.149147216796875,-4.0565948486328125,-1.1091610193252563,-0.30412688851356506,-0.06908700615167618,0.8866320848464966,-0.45728611946105957,0.2397565245628357,0.07345092296600342,-0.07924354076385498,0.7908710129924822,-0.4659491227128234,-0.2329127644653598,0.32119483601563514
1728062386056178400,3.159178466796875,-3.807807445526123,-1.2188102006912231,-0.2934334874153137,-0.07692147046327591,0.9037806391716003,-0.42102667689323425,0.2456073760986328,0.10557281970977783,-0.09249266982078552,0.7806061378954675,-0.4792525268629643,-0.24454791306253343,0.31806794706597974
1728062386066208300,3.169208251953125,-3.448945999145508,-1.2838975191116333,-0.2547292113304138,-0.08451808989048004,0.918273389339447,-0.38682109117507935,0.23188747465610504,0.08621257543563843,-0.1411789059638977,0.7706309084875581,-0.49104008280161887,-0.25586929850348705,0.3154971462236854
1728062386076239400,3.1792392578125,-3.150174617767334,-1.263824462890625,-0.26284387707710266,-0.09166502952575684,0.9302840828895569,-0.35520273447036743,0.21048519015312195,0.045316994190216064,-0.16921144723892212,0.7611708190297487,-0.5013103845301758,-0.2666205806321679,0.31340122842698215
1728062386086269400,3.18926953125,-2.9387378692626953,-1.1999704837799072,-0.30643850564956665,-0.09853238612413406,0.9403982758522034,-0.32548800110816956,0.1588960886001587,0.02307218313217163,-0.127972811460495,0.7522189600288153,-0.5105378660405625,-0.27677984843780057,0.311304741185589
1728062386096300300,3.19930029296875,-2.6983113288879395,-1.1274067163467407,-0.3038533627986908,-0.10514722764492035,0.9489008188247681,-0.297542005777359,0.10262951999902725,0.028775453567504883,-0.041844069957733154,0.7437731870301176,-0.5188741144125163,-0.28635406334743657,0.3091479316387177
1728062386106330400,3.209330322265625,-2.3099770545959473,-1.0666536092758179,-0.23369929194450378,-0.11085544526576996,0.9558054804801941,-0.27229946851730347,0.10479769110679626,0.06754046678543091,0.041082948446273804,0.7359949033316531,-0.5261316361998155,-0.29501824166668905,0.3073455185278712
1728062386116361500,3.219361572265625,-1.6264517307281494,-1.0261032581329346,-0.18718932569026947,-0.11558163166046143,0.9607945084571838,-0.25202158093452454,0.14114007353782654,0.13388627767562866,0.07575193047523499,0.7294835157423588,-0.5315184485177809,-0.3024522199632136,0.30637335686791967
1728062386126391300,3.229391357421875,-0.6745185852050781,-1.033700942993164,-0.18629662692546844,-0.11990535259246826,0.9634474515914917,-0.23956552147865295,0.15048393607139587,0.21553802490234375,0.03724914789199829,0.7250758116433794,-0.5338974415119525,-0.30849758944335,0.30667212331041366
1728062386136421400,3.23942138671875,0.5780127048492432,-0.984810471534729,-0.16868488490581512,-0.1240919679403305,0.9633691906929016,-0.23774150013923645,0.13545973598957062,0.2693578004837036,0.025751054286956787,0.7236077086997402,-0.5322604316014311,-0.3127748136382091,0.30864642867489006
1728062386146452500,3.249452392578125,1.888857364654541,-0.8104704022407532,-0.09540028870105743,-0.12758667767047882,0.9601742029190063,-0.2485702484846115,0.11194638907909393,0.3228609561920166,-0.10370951890945435,0.7256953295208008,-0.5261410495878175,-0.31446855032613763,0.3124922821249115
1728062386156482600,3.259482666015625,2.9354188442230225,-0.6195439696311951,0.004773719701915979,-0.12990476191043854,0.9537726640701294,-0.2710023820400238,0.08998773992061615,0.34505534172058105,-0.17641592025756836,0.7309984382593746,-0.516043855124534,-0.31336488824485137,0.31802890613813656
1728062386166513400,3.269513427734375,3.67551326751709,-0.40285053849220276,0.08201604336500168,-0.1309221088886261,0.9442756175994873,-0.30199816823005676,0.0850236564874649,0.27738869190216064,-0.1071205735206604,0.7386246995564477,-0.5030378986230168,-0.3097640948829379,0.3247038751635723
1728062386176543500,3.27954345703125,4.022895812988281,-0.2533314526081085,0.10906843096017838,-0.13104455173015594,0.9319544434547424,-0.33806532621383667,0.09877218306064606,0.13130837678909302,-0.1005333662033081,0.747602570290021,-0.48820092336280485,-0.3043471575069617,0.33184787823266504
1728062386186574300,3.28957421875,3.884431838989258,-0.11166886985301971,0.12897050380706787,-0.1305997669696808,0.9178709387779236,-0.3747754395008087,0.12182596325874329,-0.035256922245025635,-0.03159672021865845,0.7567309799926675,-0.47305309618575103,-0.2980487354016992,0.3387417394063095
1728062386196604400,3.2996044921875,3.3574304580688477,-0.05836746096611023,0.1622333973646164,-0.12959636747837067,0.903784453868866,-0.40789514780044556,0.14755593240261078,-0.15375393629074097,0.1175965666770935,0.7648666465673156,-0.4592546054927943,-0.29178354250495486,0.3448573343174174
1728062386206635500,3.309635498046875,2.774656295776367,-0.05921008437871933,0.2552706301212311,-0.12803584337234497,0.8911338448524475,-0.43530136346817017,0.14823848009109497,-0.18118828535079956,0.2757553458213806,0.7713762394063994,-0.4476852803268523,-0.28622929679289455,0.3501847480875157
1728062386216665300,3.319665283203125,2.543027639389038,-0.11088691651821136,0.41155293583869934,-0.12546981871128082,0.8796992897987366,-0.4586789309978485,0.14121687412261963,-0.14918488264083862,0.32974207401275635,0.7765345064157785,-0.4377389933277388,-0.2811496150458941,0.35543433496480686
1728062386226696400,3.329696533203125,2.464097738265991,0.03861255943775177,0.5240017175674438,-0.12155619263648987,0.8685267567634583,-0.48050516843795776,0.12411964684724808,-0.0865902304649353,0.3152676820755005,0.7810402520965876,-0.4285620015471262,-0.2758297147111402,0.360871972990532
1728062386236726300,3.339726318359375,2.473482370376587,0.23371154069900513,0.5648711323738098,-0.1161290630698204,0.8569881916046143,-0.5020808577537537,0.05031788349151611,0.017294585704803467,0.2804621458053589,0.7854900966626148,-0.4198431680915632,-0.2696132139615064,0.3661223771755022
1728062386246757400,3.34975732421875,2.3706204891204834,0.4248705804347992,0.5594720840454102,-0.10955533385276794,0.8451437950134277,-0.5231916904449463,-0.04033175855875015,0.11335217952728271,0.248731791973114,0.7899487270277586,-0.4116256693736041,-0.2626184892534202,0.37091339406082907
1728062386256787200,3.359787109375,2.1750307083129883,0.568924069404602,0.4992694854736328,-0.10242805629968643,0.8335113525390625,-0.5429247617721558,-0.09950678795576096,0.15400683879852295,0.3048723340034485,0.7942739041174499,-0.4041872084682927,-0.25528479491131423,0.3749550173202484
1728062386266818300,3.369818359375,1.8366140127182007,0.6444401741027832,0.46126002073287964,-0.09507904946804047,0.8228453397750854,-0.5602548718452454,-0.12742462754249573,0.1221771240234375,0.3366677761077881,0.7981964989804462,-0.3979071318811981,-0.2480775434503804,0.3781663820982941
1728062386276848400,3.379848388671875,1.3856686353683472,0.6707077026367188,0.45122790336608887,-0.0876573696732521,0.8140465617179871,-0.5741466283798218,-0.13831007480621338,0.03965204954147339,0.3204997181892395,0.8013562056614587,-0.3932122052520274,-0.24147637737853475,0.38065936797547956
1728062386286878500,3.38987841796875,0.9968181252479553,0.7041764259338379,0.47163596749305725,-0.07991847395896912,0.8075875639915466,-0.5843076109886169,-0.14569799602031708,-0.06832987070083618,0.34504973888397217,0.8036119310716963,-0.39033606790979497,-0.23555033704186243,0.3825724484716127
1728062386296909300,3.399909423828125,0.8012865781784058,0.7219321131706238,0.4616187512874603,-0.07193467020988464,0.8026648163795471,-0.5920764207839966,-0.14857010543346405,-0.14255446195602417,0.3314867615699768,0.8052964488149323,-0.38864518424965044,-0.23003631420999585,0.3841038031288138
1728062386306939400,3.409939453125,0.6597480773925781,0.7283707857131958,0.4409558176994324,-0.06398908793926239,0.7986723780632019,-0.5983542203903198,-0.1733003556728363,-0.11550599336624146,0.26885586977005005,0.8066550503164512,-0.3876461144077008,-0.22484079880468869,0.38533708368864894
1728062386316970200,3.41997021484375,0.7461878061294556,0.8186586499214172,0.4461231529712677,-0.05581021308898926,0.7947480082511902,-0.6043680310249329,-0.20026281476020813,-0.009210407733917236,0.23104643821716309,0.8080096834271366,-0.3868184345876153,-0.21951645533732353,0.3863991511310324
1728062386327000300,3.430000244140625,0.8794345855712891,0.9406833052635193,0.4488885700702667,-0.046919386833906174,0.7900184392929077,-0.6112849116325378,-0.2362685203552246,0.06520599126815796,0.18976086378097534,0.8096643955465894,-0.3857002444795571,-0.21352485047111544,0.3874090773554696
1728062386337031400,3.440031494140625,0.950467586517334,1.0976794958114624,0.3994363248348236,-0.03722290322184563,0.7845013737678528,-0.6190089583396912,-0.29180240631103516,0.09821951389312744,0.1884516477584839,0.8116926281379375,-0.3843869547398005,-0.2067418394356945,0.3881489030392506
1728062386347061500,3.4500615234375,0.8643835783004761,1.1924786567687988,0.32496345043182373,-0.027203019708395004,0.7788909077644348,-0.6265691518783569,-0.354861855506897,0.07450252771377563,0.19553887844085693,0.8139185608852116,-0.38325408379672365,-0.19957885604271317,0.38835705106290197
1728062386357092400,3.46009228515625,0.6868892312049866,1.2599607706069946,0.23321515321731567,-0.017299577593803406,0.7740240693092346,-0.6329197883605957,-0.3940621614456177,0.0078057050704956055,0.2539524435997009,0.8160798525722925,-0.38272228415371434,-0.19251949580677305,0.3879091956094813
1728062386367122400,3.470122314453125,0.429703027009964,1.348531723022461,0.13147121667861938,-0.007567048538476229,0.7704969644546509,-0.6373987793922424,-0.40945568680763245,-0.07710707187652588,0.2990807890892029,0.8180330506446276,-0.3831479151775241,-0.1857371543747961,0.386679923907009
1728062386377153300,3.4801533203125,0.1785399615764618,1.3728716373443604,0.051062386482954025,0.0018313785549253225,0.7685476541519165,-0.639789879322052,-0.42112767696380615,-0.15338969230651855,0.3355295658111572,0.8196950697627892,-0.38460983492303324,-0.17938877314245333,0.38470098470418057
1728062386387183400,3.490183349609375,-0.13816794753074646,1.3940671682357788,0.017750238999724388,0.010967984795570374,0.7684089541435242,-0.6398651003837585,-0.41994935274124146,-0.21160054206848145,0.37008965015411377,0.8209013283700287,-0.38721452414637725,-0.1735867332679807,0.3821694769799997
1728062386397214500,3.50021435546875,-0.4185903072357178,1.3939849138259888,-0.015917442739009857,0.019913777709007263,0.7702247500419617,-0.6374615430831909,-0.41148486733436584,-0.23882228136062622,0.37066155672073364,0.8215378509369979,-0.3910445832259487,-0.16838454931320931,0.3792180635146104
1728062386407244500,3.51024462890625,-0.5866658091545105,1.370648980140686,-0.0849127545952797,0.02838721312582493,0.7734934091567993,-0.6331682801246643,-0.39909952878952026,-0.23865771293640137,0.29234790802001953,0.821780195547354,-0.39574052650703795,-0.1637232480558336,0.3758476065010172
1728062386417275400,3.520275390625,-0.6213092803955078,1.2752400636672974,-0.14686453342437744,0.035867489874362946,0.7773840427398682,-0.6280028223991394,-0.3733156621456146,-0.20656806230545044,0.16466963291168213,0.8218545883065994,-0.4006428712144112,-0.15963672140222498,0.3722315516445924
1728062386427305500,3.530305419921875,-0.6015622019767761,1.1970025300979614,-0.17325566709041595,0.04234101250767708,0.7813091278076172,-0.6227063536643982,-0.32594090700149536,-0.12638676166534424,0.06107604503631592,0.821885870461094,-0.40534345037263847,-0.1560240816300385,0.36858741337609613
1728062386437336300,3.54033642578125,-0.463018536567688,1.141103744506836,-0.17801234126091003,0.048213180154561996,0.7847195863723755,-0.6179729104042053,-0.2864639461040497,-0.03287339210510254,-0.016075611114501953,0.8220203608478686,-0.40955956954731026,-0.1525598084351229,0.3650601034372072
1728062386447366400,3.550366455078125,-0.3360121250152588,1.1225193738937378,-0.15016046166419983,0.053893886506557465,0.7872962951660156,-0.6142148375511169,-0.27214038372039795,0.009883761405944824,-0.06634241342544556,0.8223492558011861,-0.41315922596204224,-0.14896993776224696,0.3617304195611175
1728062386457396200,3.560396240234375,-0.24579593539237976,0.9853470325469971,-0.13993605971336365,0.05930665135383606,0.7891096472740173,-0.6113824844360352,-0.26395758986473083,-0.016542017459869385,-0.09142208099365234,0.8228042321537307,-0.416138126330316,-0.14538845477738951,0.3587259918487244
1728062386467427600,3.570427490234375,-0.30315083265304565,0.7162439227104187,-0.13746491074562073,0.06343207508325577,0.7908199429512024,-0.608752965927124,-0.23549020290374756,-0.10519689321517944,-0.12853652238845825,0.8231208797977133,-0.41866728683618226,-0.1426226343985299,0.3561580028718854
1728062386477457400,3.58045751953125,-0.3371129631996155,0.3035508096218109,-0.21670512855052948,0.06515073776245117,0.792966902256012,-0.6057713031768799,-0.20522643625736237,-0.17181211709976196,-0.1323574185371399,0.8230831697826507,-0.42082615460737527,-0.14149092654387022,0.35414663711399075
1728062386487488300,3.59048828125,0.0458056814968586,-0.07941842079162598,-0.27622121572494507,0.06375447660684586,0.7942355871200562,-0.6042559742927551,-0.13811060786247253,-0.10832256078720093,-0.31088995933532715,0.8232494950883487,-0.4215907094769598,-0.14189186499832895,0.3526871971138691
1728062386497518300,3.600518310546875,1.0719597339630127,-0.2722714841365814,-0.1335497945547104,0.06089448556303978,0.7910807728767395,-0.6086732149124146,-0.023159537464380264,0.08304935693740845,-0.6405792236328125,0.8246082778368488,-0.4188581249473442,-0.1422015324586334,0.35264399718873884
1728062386507549200,3.610549072265625,1.8685705661773682,-0.189662903547287,-0.0639888346195221,0.058649782091379166,0.7818831205368042,-0.6206600666046143,0.11691780388355255,0.25879669189453125,-1.0347201824188232,0.8277365632295897,-0.41214332287243133,-0.1407403473948504,0.3538109559159889
1728062386517579300,3.620579345703125,2.0323619842529297,-0.1162366196513176,-0.10962529480457306,0.057137634605169296,0.7693683505058289,-0.6362449526786804,0.10021096467971802,0.3409983515739441,-0.9778450727462769,0.8318667165480261,-0.4035480271323442,-0.13793660874949162,0.355134164095512
1728062386527610400,3.6306103515625,1.7216124534606934,-0.3055282533168793,-0.17244260013103485,0.05470921844244003,0.757169783115387,-0.650922954082489,0.05208700895309448,0.2232683300971985,-0.6595629453659058,0.8357998367043765,-0.3951314548567073,-0.13568218975379567,0.3562302106046581
1728062386537640400,3.640640380859375,1.0026932954788208,-0.46845749020576477,-0.1570250242948532,0.05082601308822632,0.7481485605239868,-0.6615816950798035,0.056382209062576294,-0.023234128952026367,-0.35904818773269653,0.8385579689551765,-0.388498810719231,-0.1351955308315355,0.3572270808902149
1728062386547671300,3.65067138671875,0.25678902864456177,-0.5820858478546143,-0.09319598972797394,0.04634188488125801,0.7441354990005493,-0.6664193868637085,0.0641469806432724,-0.1718241572380066,-0.117043137550354,0.8396200449128866,-0.3848892246174169,-0.1365671332850555,0.3581171828410428
1728062386557701400,3.660701416015625,-0.16676382720470428,-0.6517565846443176,-0.03993010148406029,0.04163562133908272,0.7439755201339722,-0.6669084429740906,0.054342128336429596,-0.19963353872299194,0.0217515230178833,0.8393631387419943,-0.38359355067604445,-0.13929020999545091,0.3590594196619489
1728062386567732200,3.670732177734375,-0.28403425216674805,-0.5347269177436829,-0.00516732782125473,0.03739834949374199,0.7455909848213196,-0.6653535962104797,0.022049859166145325,-0.14979642629623413,0.08246779441833496,0.8385190135496081,-0.3834943830861862,-0.142321000225883,0.3599480077259365
1728062386577762300,3.68076220703125,-0.13300953805446625,-0.4175999164581299,0.021839523687958717,0.03428560867905617,0.747087299823761,-0.6638411283493042,-0.05361851304769516,-0.07258784770965576,0.10340100526809692,0.8377273311557634,-0.38358447794860345,-0.14471481469566624,0.36074024910302244
1728062386587793400,3.69079345703125,0.0840735137462616,-0.27286937832832336,0.028303546831011772,0.03213938698172569,0.7472425103187561,-0.663773775100708,-0.11894667148590088,-0.04010450839996338,0.08682364225387573,0.8373820312704913,-0.3830723511514935,-0.14618030610944469,0.36149425957333864
1728062386597823500,3.700823486328125,0.3722498416900635,-0.09282626211643219,-0.0036732940934598446,0.03103017434477806,0.7457543611526489,-0.6654979586601257,-0.15062858164310455,-0.03539681434631348,0.04548752307891846,0.8376474848051939,-0.38181640613830353,-0.14651707735942285,0.3620712627616037
1728062386607853300,3.710853271484375,0.6710610389709473,-0.002288105897605419,-0.0352136455476284,0.030601628124713898,0.742266058921814,-0.6694061160087585,-0.11162584275007248,-0.043093204498291016,-0.04209601879119873,0.838656929298932,-0.37953479927281336,-0.14577476514424753,0.36243272366876356
1728062386617884400,3.720884521484375,0.8817611336708069,-0.0278320275247097,-0.008856072090566158,0.030307777225971222,0.7369822859764099,-0.6752321124076843,-0.006931334733963013,-0.03671079874038696,-0.07577502727508545,0.8401798407833518,-0.3761850311551795,-0.14446027961554048,0.362923806426963
1728062386627914500,3.73091455078125,0.9864404201507568,-0.0711589977145195,0.033981937915086746,0.030037710443139076,0.7305538654327393,-0.6821939945220947,0.1286536604166031,0.0012880563735961914,-0.08880209922790527,0.8418979531128055,-0.3721198425133433,-0.14293291963328597,0.3637370864634852
1728062386637945300,3.7409453125,0.9416584372520447,-0.10372402518987656,0.06268921494483948,0.0297834575176239,0.7238188982009888,-0.6893467903137207,0.2156083583831787,0.02441096305847168,-0.0733637809753418,0.8435532637226993,-0.3678613714380194,-0.14143762990456793,0.36481651446730884
1728062386647975400,3.750975341796875,0.7146737575531006,-0.13846895098686218,0.052932191640138626,0.029378991574048996,0.7180365920066833,-0.6953849196434021,0.223810076713562,0.0075797438621521,-0.036090970039367676,0.8448736360942486,-0.36416510926611223,-0.14032573479618374,0.3658972425758519
1728062386658006500,3.761006591796875,0.33236268162727356,-0.1672171801328659,-0.00034514162689447403,0.028352519497275352,0.7143316268920898,-0.6992327570915222,0.16886727511882782,-0.02385622262954712,0.01626455783843994,0.8456966999840587,-0.36163537554352687,-0.14001243298448485,0.3666242889174808
1728062386668036400,3.771036376953125,0.1304553896188736,-0.1385599821805954,0.024129310622811317,0.02735339291393757,0.7127818465232849,-0.7008521556854248,0.1103876531124115,-0.01840031147003174,0.07035893201828003,0.845974767333325,-0.3604291308179096,-0.14023115888862994,0.36708664039906325
1728062386678067500,3.7810673828125,-0.0064687058329582214,-0.126461923122406,0.09227320551872253,0.02680744044482708,0.7123541235923767,-0.701308012008667,0.11633522808551788,0.01082080602645874,0.04859799146652222,0.8458817234295781,-0.35997131398527266,-0.14059391078122213,0.3676113483143932
1728062386688097500,3.79109765625,0.04268419370055199,-0.11979763954877853,0.1273832619190216,0.026725105941295624,0.7123907804489136,-0.7012739181518555,0.11217561364173889,0.041469573974609375,0.04781627655029297,0.8455672933844055,-0.3598582884937682,-0.14094343422830827,0.36831084648219437
1728062386698128400,3.80112841796875,0.22479107975959778,-0.11915789544582367,0.02788090519607067,0.026356244459748268,0.711302638053894,-0.7023915648460388,0.0783342719078064,0.039734840393066406,-0.009324193000793457,0.8455982311415046,-0.35902528783563714,-0.1410852791274462,0.3689979218759963
1728062386708158500,3.811158447265625,0.32447347044944763,-0.0716652125120163,0.059259332716464996,0.02586393989622593,0.7094631791114807,-0.7042676210403442,0.005614897236227989,0.07018452882766724,0.0006390810012817383,0.845931913210733,-0.3577574924353636,-0.14098140525020603,0.3695034840823194
1728062386718189600,3.821189453125,0.790598452091217,-0.058522455394268036,0.10595386475324631,0.02609901875257492,0.705623209476471,-0.7081063985824585,0.0344935841858387,0.12225759029388428,-0.004234969615936279,0.8466943622390073,-0.35543051106632817,-0.14005695846810734,0.3703535357651037
1728062386728219400,3.831219482421875,1.3161338567733765,-0.1419217437505722,0.05127863585948944,0.025885935872793198,0.6980245113372803,-0.7156057953834534,0.08506068587303162,0.07172024250030518,-0.0871896743774414,0.8483503191780017,-0.35077358262298464,-0.13840155950651667,0.3716242652155864
1728062386738250500,3.84125048828125,1.6563009023666382,-0.13741865754127502,-0.005822731647640467,0.024948930367827415,0.6871119141578674,-0.726123034954071,0.036788083612918854,-0.0010616183280944824,-0.12046509981155396,0.8508532697636884,-0.34408718542232763,-0.13617077829288682,0.3729747070314807
1728062386748280300,3.8512802734375,1.5113208293914795,-0.09706510603427887,-0.050205111503601074,0.023884223774075508,0.6751408576965332,-0.7373020648956299,-0.08368346095085144,-0.04631096124649048,-0.09298974275588989,0.8536180945434163,-0.3368722100157413,-0.1336640901586132,0.37414839717823256
1728062386758311200,3.861311279296875,1.0370577573776245,-0.005827712826430798,-0.008226767182350159,0.023152055218815804,0.6657785773277283,-0.7457900643348694,-0.19879600405693054,-0.0036082863807678223,0.03027486801147461,0.8557581632256499,-0.3313261584031269,-0.13163564297796515,0.37493056570759453
1728062386768341200,3.87134130859375,0.7816044092178345,0.025622356683015823,0.03748639300465584,0.023345505818724632,0.6588988900184631,-0.7518690824508667,-0.19694477319717407,0.035620033740997314,0.0652083158493042,0.8572602022688847,-0.32743050010919755,-0.12982573296949498,0.37555202531754084
1728062386778371300,3.881371337890625,0.42192205786705017,-0.00002484489232301712,0.05277267098426819,0.023786267265677452,0.6542352437973022,-0.755916953086853,-0.09020781517028809,0.0017399787902832031,0.04015761613845825,0.8581869249730043,-0.32484617774969166,-0.1285165137112137,0.37612979359770576
1728062386788402400,3.89140234375,0.017263786867260933,-0.10206705331802368,0.06559445708990097,0.023788465186953545,0.6526390314102173,-0.7572954297065735,0.037429749965667725,-0.017522573471069336,0.05514693260192871,0.8583763655469497,-0.3238892009993715,-0.12825004206038906,0.3766134746862031
1728062386798432300,3.901432373046875,-0.2543729245662689,-0.15023276209831238,0.03299976512789726,0.023118218407034874,0.6535569429397583,-0.7565242052078247,0.12650944292545319,-0.014625787734985352,0.04439646005630493,0.8580042193747108,-0.3242022050508506,-0.12896058861924012,0.3769494375051429
1728062386808463400,3.91146337890625,-0.2963448762893677,-0.2194661796092987,0.020129773765802383,0.02188497595489025,0.6557890772819519,-0.7546268701553345,0.1627616137266159,0.019351184368133545,0.023608744144439697,0.8573637723313273,-0.32514245239025347,-0.13026492300110934,0.3771482713361649
1728062386818493400,3.921493408203125,-0.1234341412782669,-0.27171099185943604,0.008720524609088898,0.020064370706677437,0.6574300527572632,-0.753248393535614,0.18005460500717163,0.06951385736465454,-0.006440997123718262,0.856816782177957,-0.3256076056361161,-0.131740287232892,0.37747728279564663
1728062386828524300,3.931524169921875,0.1456436663866043,-0.2513173222541809,0.015157917514443398,0.018104424700140953,0.6573517918586731,-0.7533662915229797,0.1611557900905609,0.11291176080703735,-0.020254313945770264,0.8566413631348626,-0.325064646377901,-0.13285261569761958,0.37795330667539895
1728062386838554400,3.941554443359375,0.44091975688934326,-0.14354804158210754,0.05079607293009758,0.01679130829870701,0.6550525426864624,-0.7553967237472534,0.12452031672000885,0.12190967798233032,0.011240780353546143,0.8569368258809092,-0.3234005644169234,-0.13309287744979587,0.37862593957905327
1728062386848585500,3.95158544921875,0.5652468204498291,-0.14047926664352417,0.07061052322387695,0.016162656247615814,0.6511362195014954,-0.7587887048721313,0.0915491133928299,0.07278639078140259,-0.016495108604431152,0.8575657268814313,-0.3209737171228834,-0.13259528984267557,0.37944073712720683
1728062386858615300,3.961615234375,0.5348274111747742,-0.11962612718343735,0.03778306767344475,0.015536963008344173,0.6468374133110046,-0.7624695897102356,0.039974477142095566,-0.02830725908279419,0.06828618049621582,0.858265258271764,-0.3183411640072557,-0.13200038892684826,0.38028330276429295
1728062386868646400,3.971646484375,0.3830229938030243,-0.1382906138896942,0.07305370271205902,0.014845610596239567,0.6434224843978882,-0.7653672695159912,0.004975519143044949,-0.10950225591659546,0.10336470603942871,0.8587961458333364,-0.3162088742749187,-0.13163699768564976,0.3809891544821074
1728062386878676500,3.981676513671875,0.3207526206970215,-0.1689474880695343,0.16026611626148224,0.014348127879202366,0.6406890749931335,-0.7676663398742676,0.017527438700199127,-0.1144898533821106,0.1200832724571228,0.8590265714893571,-0.31445395210574284,-0.13147451975653085,0.3819769758764041
1728062386888707300,3.991707275390625,0.2688300311565399,-0.14216089248657227,0.14130893349647522,0.014184960164129734,0.6384143829345703,-0.7695621252059937,0.032995179295539856,-0.11526691913604736,0.08819609880447388,0.8590751378697034,-0.31300416896280514,-0.131329120534049,0.3831069172726462
1728062386898737400,4.0017373046875,0.14711391925811768,-0.13743649423122406,0.10331173986196518,0.013811011798679829,0.6367366909980774,-0.7709576487541199,-0.003511352464556694,-0.09761321544647217,0.0695873498916626,0.8591085855899955,-0.31188130774998346,-0.13134397590510163,0.38394171193342697
1728062386908768500,4.0117685546875,0.13237333297729492,-0.14199742674827576,0.19847820699214935,0.013646702282130718,0.6357565522193909,-0.7717689275741577,0.0024818042293190956,-0.03074568510055542,0.08933484554290771,0.8589286999766736,-0.3111702971325325,-0.1314860369162352,0.3848711884045572
1728062386918797800,4.0217978515625,0.16516909003257751,-0.12887805700302124,0.23409612476825714,0.014030699618160725,0.6345405578613281,-0.7727621793746948,0.07231876999139786,0.0004233717918395996,0.03643399477005005,0.8586430275388368,-0.3103980311715558,-0.13142289836498428,0.3861516276806763
1728062386928827600,4.03182763671875,0.08835261315107346,-0.17148330807685852,0.1800379604101181,0.01418799627572298,0.6335127353668213,-0.7736021280288696,0.0849941074848175,-0.0013411641120910645,-0.012652754783630371,0.8583496430838585,-0.3096924316693228,-0.13148964048804349,0.3873458691779228
1728062386938858800,4.041858642578125,0.07180160284042358,-0.22177022695541382,0.1870865374803543,0.013772287406027317,0.6328976154327393,-0.7741129994392395,0.06441370397806168,0.009131133556365967,0.024250268936157227,0.8579855294224813,-0.3090937912126796,-0.1319262632492992,0.38848068817993414
1728062386948888800,4.051888916015625,0.07784644514322281,-0.2455677092075348,0.22825634479522705,0.013274312019348145,0.6323269605636597,-0.774587869644165,0.06224139407277107,0.005673408508300781,0.03618454933166504,0.8575307701993112,-0.3084739169763643,-0.13247609068571625,0.3897881580871351
1728062386958919700,4.061919677734375,0.11567831039428711,-0.24878282845020294,0.22668242454528809,0.012802284210920334,0.6315414309501648,-0.7752363681793213,0.032028015702962875,-0.0019485950469970703,0.07780289649963379,0.8570595265550844,-0.30772094398283945,-0.1330023378395037,0.3912377916895177
1728062386968949800,4.07194970703125,0.10854076594114304,-0.20623058080673218,0.1849951595067978,0.012299788184463978,0.6305544972419739,-0.7760474681854248,-0.03230408579111099,-0.012024343013763428,0.08308476209640503,0.8566976910191381,-0.30687408401376687,-0.13343377056822625,0.3925463362931188
1728062386978980900,4.08198095703125,0.12326405197381973,-0.18160438537597656,0.18650810420513153,0.011948227882385254,0.6296761631965637,-0.7767658233642578,-0.07202212512493134,0.016686081886291504,0.06761354207992554,0.8563828411547609,-0.3061449070832057,-0.1337624307699215,0.3936892676897971
