time,seconds_elapsed,rotationRateX,rotationRateY,rotationRateZ,gravityX,gravityY,gravityZ,accelerationX,accelerationY,accelerationZ,quaternionW,quaternionX,quaternionY,quaternionZ
1729874921383556000,0.07155615234375,-0.15216490626335144,-0.0659019947052002,-0.1001409962773323,0.0032611587084829807,-0.21926814317703247,-0.975659191608429,-0.007045340724289417,0.001952528953552246,0.013027966022491455,0.9938962025491107,0.11030736272879262,0.0016405931856098125,-1.8591830561750058e-17
1729874921393586200,0.081586181640625,-0.14251095056533813,-0.06487614661455154,-0.1281164288520813,0.00204697297886014,-0.2186731994152069,-0.9757959842681885,-0.0024131822865456343,0.005294352769851685,0.014492273330688477,0.9939304126962631,0.11000481536218226,0.0009689354154205573,-0.000549358362069478
1729874921403617000,0.091616943359375,-0.16361896693706512,-0.042320616543293,-0.19734397530555725,0.0007337263086810708,-0.21798355877399445,-0.9759521484375,0.009596472606062889,0.005398184061050415,0.00933837890625,0.9939690204600167,0.10965339312517353,0.00022444436672918125,-0.0013111533778254825
1729874921413647000,0.101647216796875,-0.21161019802093506,-0.05989694595336914,-0.23875212669372559,-0.00016481395869050175,-0.21683023869991302,-0.9762093424797058,0.011364761739969254,0.000002905726432800293,0.004956841468811035,0.9940316050707285,0.10906521962902554,-0.0003480932577242857,-0.002416982420784745
1729874921423678200,0.11167822265625,-0.2484220564365387,-0.04725417494773865,-0.2302931249141693,-0.000713007349986583,-0.21524307131767273,-0.9765602350234985,-0.009678225964307785,-0.0020572692155838013,0.012067437171936035,0.9941163089273125,0.10825577648724996,-0.0007503985780088674,-0.0035977736298561254
1729874921433708300,0.121708251953125,-0.16682280600070953,-0.03771313279867172,-0.16853734850883484,-0.00076992844697088,-0.2138156145811081,-0.9768737554550171,-0.01525180134922266,0.0030002743005752563,0.01204526424407959,0.9941909040216271,0.10752834788664282,-0.0008872896545741445,-0.004623628114632478
1729874921443739100,0.1317392578125,-0.1674077808856964,-0.027651231735944748,-0.1032976433634758,-0.0006548945093527436,-0.2126176506280899,-0.9771352410316467,-0.005158707033842802,0.024995654821395874,-0.0008921027183532715,0.994253265896099,0.1069184818882097,-0.0008999235513057069,-0.00530595513487108
1729874921453769200,0.141769287109375,-0.21653005480766296,0.005565311759710312,-0.14930586516857147,-0.00045299192424863577,-0.2109912484884262,-0.9774878621101379,0.002604477107524872,0.013786733150482178,-0.01814812421798706,0.9943384695302767,0.10609116969883696,-0.0008596545594750845,-0.005922185907359864
1729874921463799300,0.15179931640625,-0.1880836933851242,-0.01419193483889103,-0.17632097005844116,-0.00026402572984807193,-0.20921699702739716,-0.9778692126274109,-0.01246180571615696,-0.007305160164833069,-0.0031335949897766113,0.9944290158870587,0.1051887721140949,-0.0008476784068986563,-0.006758735940759806
1729874921473830100,0.161830078125,-0.17564301192760468,-0.03400798141956329,-0.15780721604824066,-0.0001310904190177098,-0.207689568400383,-0.9781947731971741,-0.041769545525312424,-0.005216255784034729,0.008376657962799072,0.9945047326433855,0.10441199448276234,-0.0008635419890968033,-0.007597320460025083
1729874921483860200,0.171860107421875,-0.18763966858386993,-0.05622279644012451,-0.15643754601478577,0.00001701100518403109,-0.20609812438488007,-0.9785313606262207,-0.024263229221105576,-0.004778265953063965,-0.011260569095611572,0.9945828697129873,0.10360300306097074,-0.0008673035822557421,-0.008408161569128802
1729874921493891300,0.181891357421875,-0.16373008489608765,-0.07656881213188171,-0.17520937323570251,0.000011949096915486734,-0.20465748012065887,-0.9788336753845215,0.016299692913889885,-0.0020990222692489624,-0.009508609771728516,0.9946510333437535,0.10287011884621097,-0.0009549312726985493,-0.009291307681437957
1729874921503921200,0.191921142578125,-0.13111287355422974,-0.08492644876241684,-0.12867356836795807,-0.0007312900270335376,-0.20357845723628998,-0.9790583848953247,0.022902309894561768,0.014506861567497253,0.0034876465797424316,0.9946996178756665,0.10231734895428078,-0.0014062536320569963,-0.010097553714007987
1729874921513952300,0.2019521484375,-0.09988866001367569,-0.054331790655851364,-0.08388319611549377,-0.0016261768760159612,-0.20270180702209473,-0.9792391657829285,0.008813063614070415,0.023945167660713196,-0.0010769963264465332,0.994739494195862,0.10186654188239605,-0.0019050371771588684,-0.01062102670553853
1729874921523982300,0.211982421875,-0.09372370690107346,-0.028943877667188644,-0.10880772024393082,-0.001929352874867618,-0.2014208287000656,-0.9795029163360596,-0.006112031638622284,0.028340458869934082,-0.005436718463897705,0.9948003751948512,0.10121333306153722,-0.00210080131422003,-0.011117127277501446
1729874921534012400,0.222012451171875,-0.11121401190757751,-0.015374003909528255,-0.11134864389896393,-0.0018146962393075228,-0.20025381445884705,-0.9797423481941223,-0.026703987270593643,0.025433942675590515,-0.009622275829315186,0.9948538871834502,0.10062019219768129,-0.002095506113023376,-0.011701172780324298
1729874921544043300,0.232043212890625,-0.16452117264270782,-0.023591987788677216,-0.07319140434265137,-0.002090808702632785,-0.19925081729888916,-0.9799463152885437,-0.039260510355234146,0.012361258268356323,-0.010562717914581299,0.994899518891191,0.10010831713217669,-0.002275468358174554,-0.01217139609603258
1729874921554073000,0.242072998046875,-0.22605404257774353,-0.05520370975136757,-0.04792466387152672,-0.0033196089789271355,-0.19767585396766663,-0.9802618026733398,-0.02126230299472809,-0.008531346917152405,-0.006707191467285156,0.9949753604290621,0.09930064490689636,-0.0029105533484131995,-0.01244830137097759
1729874921564104200,0.252104248046875,-0.27041324973106384,-0.06150474771857262,-0.0418475940823555,-0.0043079969473183155,-0.1954764425754547,-0.9806989431381226,-0.0025737197138369083,-0.027500182390213013,-0.0014787912368774414,0.9950822123707493,0.09817771519058423,-0.0034158977582986667,-0.012682111101468519
1729874921574134000,0.262134033203125,-0.2583470046520233,-0.06667421013116837,-0.05423875153064728,-0.004361534956842661,-0.19303496181964874,-0.9811821579933167,-0.004564862232655287,-0.03824242949485779,0.0007134675979614258,0.9951998307769957,0.09693796815620324,-0.003455138925869665,-0.012975166146384496
1729874921584165000,0.2721650390625,-0.1906270682811737,-0.0642310231924057,-0.059045758098363876,-0.004293079487979412,-0.19075268507003784,-0.9816287159919739,-0.01578749343752861,-0.031110018491744995,0.004898428916931152,0.9953074198187328,0.09577996884638265,-0.0034390608769710226,-0.013326200099847725
1729874921594195200,0.2821953125,-0.12098301947116852,-0.050359152257442474,-0.059689443558454514,-0.004478753544390202,-0.18897077441215515,-0.9819725155830383,-0.01628846488893032,-0.0034119635820388794,0.0008476376533508301,0.9953892152257277,0.09487428530763212,-0.003552350508700855,-0.013666448152162324
1729874921604225300,0.292225341796875,-0.06586038321256638,-0.0323396734893322,-0.04287557676434517,-0.004859869368374348,-0.18771381676197052,-0.9822117686271667,-0.0027695316821336746,0.029022499918937683,-0.007351279258728027,0.9954452015325551,0.09423363866283811,-0.003761860925165112,-0.013952467546069588
1729874921614256000,0.302256103515625,-0.04082220792770386,-0.041760288178920746,0.020944684743881226,-0.005599414464086294,-0.1870054304599762,-0.9823428988456726,0.0070032221265137196,0.037896618247032166,-0.0034359097480773926,0.9954772616415252,0.09386928215625659,-0.004134719593735822,-0.0140228205720478
1729874921624286200,0.3122861328125,-0.0712767168879509,-0.04055733606219292,0.07973742485046387,-0.006653711665421724,-0.18646006286144257,-0.9824399948120117,0.011002464219927788,0.01919327676296234,-0.0005617141723632812,0.995505366570544,0.09358693401637799,-0.004634641756514928,-0.013751437146093975
1729874921634317000,0.322317138671875,-0.11564818024635315,-0.05140145868062973,0.08540862798690796,-0.007543313317000866,-0.1858169287443161,-0.9825554490089417,0.017385227605700493,0.0020554065704345703,0.006618499755859375,0.9955398827496119,0.09325713686239705,-0.005038991083929008,-0.01334868212057889
1729874921644347100,0.33234716796875,-0.1395329385995865,-0.058148737996816635,0.11080266535282135,-0.008261822164058685,-0.185164213180542,-0.9826728701591492,0.016272684559226036,-0.0037395209074020386,0.02515333890914917,0.9955753378761776,0.0929242660249251,-0.005352483216055398,-0.012891025263195464
1729874921654378200,0.342378173828125,-0.16961440443992615,-0.060566890984773636,0.14747093617916107,-0.00908832810819149,-0.18443386256694794,-0.9828029274940491,0.01479511521756649,-0.0090932697057724,0.027206003665924072,0.9956157949216756,0.09255266226961695,-0.005705381716679576,-0.012276298129376601
1729874921664408300,0.352408203125,-0.182366281747818,-0.06351511925458908,0.19223815202713013,-0.010199864394962788,-0.1833060085773468,-0.9830029606819153,0.029593784362077713,-0.007779732346534729,0.015656769275665283,0.9956758540938438,0.09197993131373769,-0.0061804698027306875,-0.011456981744808045
1729874921674438100,0.362438232421875,-0.1949787586927414,-0.06983133405447006,0.2630574703216553,-0.011473806574940681,-0.18157346546649933,-0.9833104610443115,0.048979904502630234,0.006601020693778992,0.014133214950561523,0.9957650777200445,0.09110311917699378,-0.006708172834742577,-0.010349382456577036
1729874921684469200,0.37246923828125,-0.21935845911502838,-0.07133708894252777,0.2989504635334015,-0.012623950839042664,-0.17913326621055603,-0.9837438464164734,0.06395450979471207,0.011683389544487,0.014490246772766113,0.9958872907593896,0.08987209766291678,-0.00714796896988233,-0.0089749350141942
1729874921694499300,0.382499267578125,-0.28434091806411743,-0.06430953741073608,0.30279234051704407,-0.013675822876393795,-0.17629702389240265,-0.9842420220375061,0.07358182966709137,0.012310892343521118,0.018375933170318604,0.9960244301991087,0.0884435249630815,-0.007532429073840288,-0.007514082050666775
1729874921704530200,0.3925302734375,-0.416208416223526,-0.0904865488409996,0.32642656564712524,-0.014734429307281971,-0.17268586158752441,-0.984866738319397,0.0721379891037941,0.007524803280830383,0.03157389163970947,0.996191104686953,0.08662492647451642,-0.00792172249816356,-0.006052932508810305
1729874921714560300,0.402560302734375,-0.5781751871109009,-0.09196624904870987,0.4184257388114929,-0.0159350223839283,-0.16790586709976196,-0.985674262046814,0.078587606549263,0.010786205530166626,0.052400946617126465,0.9964029578982048,0.08421999467904862,-0.008359089452399424,-0.004292453251149988
1729874921724591400,0.41259130859375,-0.7362543344497681,-0.17287378013134003,0.5790207386016846,-0.01799389347434044,-0.1613054871559143,-0.9867404699325562,0.11674878001213074,0.010365620255470276,0.04521214962005615,0.9966778543056205,0.0809040611556547,-0.009181275513261302,-0.0019013562146813388
1729874921734621200,0.42262109375,-0.7667648196220398,-0.20783548057079315,0.7251302599906921,-0.02100495807826519,-0.15352702140808105,-0.9879211783409119,0.14930085837841034,0.00124436616897583,0.043753087520599365,0.9969749595353143,0.0770098364645131,-0.01043537824199346,0.0012812465316429582
1729874921744651300,0.4326513671875,-0.9704907536506653,0.8290257453918457,-0.24750886857509613,-0.02032322622835636,-0.14545691013336182,-0.9891558289527893,0.14871066808700562,-0.022969529032707214,0.029881536960601807,0.9972792920804118,0.07296134167907488,-0.009936183091688876,0.0034602303969229757
1729874921754682400,0.442682373046875,-0.877562940120697,-0.34307992458343506,-1.3276660442352295,-0.017052706331014633,-0.13653746247291565,-0.9904881119728088,0.06479746103286743,-0.14120294153690338,-0.017385423183441162,0.9976187646634082,0.06842361685226521,-0.008610808948463148,-0.0009346452826360851
1729874921764712200,0.452712158203125,-0.9620376229286194,-0.3584378957748413,-0.7836077213287354,-0.018968936055898666,-0.1278076022863388,-0.9916175603866577,-0.025312073528766632,-0.3905181288719177,0.015451788902282715,0.9978789798428807,0.06397183043347163,-0.009940930806633962,-0.006805777469283502
1729874921774743000,0.462742919921875,-1.0518609285354614,-0.5466458797454834,0.42151954770088196,-0.023546045646071434,-0.11758910864591599,-0.9927831292152405,0.265367329120636,-0.23729974031448364,0.08699089288711548,0.9981631278143176,0.0588060196512306,-0.012258722982001154,-0.007876438444415124
1729874921784773000,0.472773193359375,-1.0912261009216309,0.165736123919487,2.279226779937744,-0.02577991597354412,-0.10629680007696152,-0.9940001964569092,0.4739915728569031,-0.021175049245357513,0.09362483024597168,0.9984984041449226,0.053215034347941094,-0.012963913268091147,-0.001023940936378042
1729874921794804200,0.48280419921875,-0.8842300176620483,0.047669410705566406,2.7645506858825684,-0.02763468399643898,-0.09575521945953369,-0.9950212240219116,0.6121531128883362,0.03302641212940216,0.07236802577972412,0.99868223772032,0.048100361353872204,-0.013256560330691282,0.012021744973454401
1729874921804834000,0.492833984375,-0.776253879070282,-0.3047431707382202,2.0288572311401367,-0.030934283509850502,-0.0867619588971138,-0.9957486987113953,0.7137650847434998,-0.042907148599624634,0.09134501218795776,0.9986437700155967,0.04378931699148125,-0.014427616177880357,0.02418610580336747
1729874921814864100,0.502864013671875,-0.8284494280815125,-0.5685034394264221,0.9572186470031738,-0.036794181913137436,-0.07835563272237778,-0.9962462186813354,0.38728857040405273,-0.22533994913101196,0.10583490133285522,0.9985674000463096,0.03977409880322902,-0.01717259627185643,0.03140474287175371
1729874921824895200,0.512895263671875,-0.9000086784362793,-0.4781249761581421,0.6083703637123108,-0.04268614575266838,-0.06934894621372223,-0.9966787695884705,0.16193358600139618,-0.3389151394367218,0.13167333602905273,0.9985632436724243,0.03542619107903933,-0.020139220438696183,0.03479877956017249
1729874921834925000,0.522925048828125,-0.8958073258399963,-0.2273939549922943,1.08610200881958,-0.04677058383822441,-0.05997361242771149,-0.9971036314964294,0.10325862467288971,-0.35961249470710754,0.13612645864486694,0.9985254132467258,0.030892701204837097,-0.022222026798537922,0.03871572582702663
1729874921844956200,0.5329560546875,-0.9195790886878967,-0.022135399281978607,1.7129828929901123,-0.04867669939994812,-0.05024055764079094,-0.9975502490997314,0.21099969744682312,-0.3048466444015503,0.11696553230285645,0.9983442337986234,0.02622187738816737,-0.02317966774949845,0.04565127410218927
1729874921854986200,0.542986328125,-0.9181918501853943,0.03139626979827881,2.068848133087158,-0.04941575974225998,-0.04006087779998779,-0.9979745745658875,0.2968522906303406,-0.21561531722545624,0.12048739194869995,0.9979716635390548,0.021373716975818885,-0.023577268211129,0.05513470558252251
1729874921865017000,0.55301708984375,-0.9232828617095947,0.013911872170865536,2.077341318130493,-0.049905043095350266,-0.02981751225888729,-0.9983087778091431,0.30906033515930176,-0.1589488834142685,0.13704168796539307,0.9974292769985132,0.01651858177207718,-0.02393221546721758,0.06549168769479408
1729874921875047200,0.563047119140625,-1.0027693510055542,0.005236092489212751,1.9818663597106934,-0.05031096935272217,-0.019205093383789062,-0.9985489249229431,0.28744781017303467,-0.16153518855571747,0.1464676856994629,0.9967803695821539,0.011479703181974773,-0.02436699046681064,0.07552004463866666
1729874921885077200,0.5730771484375,-1.107424259185791,0.0011214022524654865,1.9725273847579956,-0.050541430711746216,-0.007613800931721926,-0.9986929297447205,0.2676282227039337,-0.1816713958978653,0.16296905279159546,0.9960323644253561,0.005949799311319239,-0.02486218906443149,0.08524157274097921
1729874921895108000,0.583108154296875,-1.1987501382827759,-0.016727369278669357,2.048269271850586,-0.05063615366816521,0.004988367669284344,-0.998704731464386,0.2670820951461792,-0.17928943037986755,0.182847797870636,0.9951398400647358,-0.00007367276612030935,-0.025448769579955868,0.09512715399904198
1729874921905138200,0.59313818359375,-1.207383155822754,-0.025303812697529793,2.146787405014038,-0.05061300843954086,0.018164504319429398,-0.9985531568527222,0.26330527663230896,-0.13553503155708313,0.19299590587615967,0.9940613971843648,-0.006364472992335734,-0.026132799381550297,0.10544508662169164
1729874921915169300,0.603169189453125,-1.152022361755371,0.016319796442985535,2.2251641750335693,-0.05010785534977913,0.031132489442825317,-0.9982584714889526,0.24619856476783752,-0.07342977076768875,0.18617045879364014,0.9927884542812999,-0.012553857214660697,-0.026705168356596847,0.1161917460971057
1729874921925199400,0.613199462890625,-1.040151834487915,0.0833640769124031,2.2905893325805664,-0.048776041716337204,0.043262675404548645,-0.9978723526000977,0.2219633162021637,-0.005970112979412079,0.17151737213134766,0.9913304877584954,-0.018359251519243572,-0.026958486608299737,0.1272790884664429
1729874921935230200,0.623230224609375,-0.9528059959411621,0.17470517754554749,2.364194869995117,-0.046312592923641205,0.05431610718369484,-0.9974492192268372,0.202989861369133,0.05362464487552643,0.15104418992996216,0.989692271565207,-0.023696889121938017,-0.02671812361599801,0.13868585540778386
1729874921945260300,0.63326025390625,-0.9286441802978516,0.24746981263160706,2.4442453384399414,-0.04275623708963394,0.06475221365690231,-0.9969849586486816,0.19450491666793823,0.09032294154167175,0.13469552993774414,0.9878534666996696,-0.02880974924597102,-0.02602897161408221,0.1504591818199283
1729874921955290400,0.643290283203125,-1.000295639038086,0.2843538224697113,2.495570421218872,-0.038326963782310486,0.07534875720739365,-0.9964203834533691,0.18943478167057037,0.09927289187908173,0.16231399774551392,0.9857958729989429,-0.03408557136365203,-0.025059431688979728,0.16253217406785786
1729874921965321200,0.6533212890625,-1.1709166765213013,0.29839950799942017,2.5149431228637695,-0.033354755491018295,0.08706963062286377,-0.995643675327301,0.16871550679206848,0.0953187420964241,0.2088547945022583,0.9835102778643414,-0.03999005209354682,-0.024061482504938954,0.1747268922487573
1729874921975351000,0.66335107421875,-1.3468412160873413,0.3028717637062073,2.5234580039978027,-0.027973903343081474,0.1004740372300148,-0.9945463538169861,0.1329086273908615,0.08983366191387177,0.2517027258872986,0.9809867798245009,-0.046795030228007815,-0.02317440188580841,0.1869179235182533
1729874921985382100,0.673382080078125,-1.443268895149231,0.3355589807033539,2.533937454223633,-0.022084545344114304,0.11506769061088562,-0.9931121468544006,0.09554038941860199,0.07212720811367035,0.29314571619033813,0.9782188487589234,-0.054268977969031885,-0.022334134451740432,0.19910819623943152
1729874921995412200,0.683412109375,-1.5268748998641968,0.4211939871311188,2.5399014949798584,-0.015225729905068874,0.13031268119812012,-0.9913560152053833,0.06371819227933884,0.04855091869831085,0.3066025972366333,0.9752169556055384,-0.06220212143407841,-0.02128097631085425,0.21125813384294223
1729874922005443000,0.693443115234375,-1.7234619855880737,0.5269123315811157,2.563610315322876,-0.006898083258420229,0.14675307273864746,-0.9891490936279297,0.032181933522224426,0.039388954639434814,0.32578855752944946,0.9719396935394077,-0.07093188661312695,-0.01985232938347136,0.2234005899987424
1729874922015473200,0.70347314453125,-1.8469336032867432,0.498649001121521,2.4083266258239746,0.0021326683927327394,0.16448447108268738,-0.9863773584365845,0.016803523525595665,0.030522897839546204,0.32672470808029175,0.9684362703381304,-0.08044510988583961,-0.018436415190598843,0.2352017097299674
1729874922025504000,0.71350390625,-1.9762803316116333,0.4326319396495819,2.0994746685028076,0.010727010667324066,0.18326570093631744,-0.9830048680305481,-0.0032043885439634323,0.004356443881988525,0.31828629970550537,0.9649346168991377,-0.09050700126363581,-0.017493953988823134,0.24577134094780406
1729874922035534000,0.7235341796875,-2.06769061088562,0.3351147174835205,1.8322153091430664,0.0182866919785738,0.20280425250530243,-0.9790485501289368,-0.061026521027088165,0.05726662278175354,0.33938485383987427,0.9615467522329046,-0.10089002583482762,-0.017231809455440103,0.25485706620934273
1729874922045564200,0.733564208984375,-2.065253734588623,0.2739562690258026,1.8618783950805664,0.025115851312875748,0.222786545753479,-0.9745436310768127,-0.062331996858119965,0.21033425629138947,0.22913658618927002,0.9580972131112607,-0.11145052349045904,-0.017519999534234817,0.2632898181307337
1729874922055595300,0.74359521484375,-1.8224514722824097,0.44296687841415405,2.2826621532440186,0.03328423202037811,0.24132174253463745,-0.9698742032051086,-0.005345351994037628,0.3847464323043823,0.21518981456756592,0.9542204633685994,-0.12150667499611228,-0.01729224322686404,0.2727646703109885
1729874922065625000,0.753625,-1.4293475151062012,0.7074463963508606,2.756121873855591,0.04516879841685295,0.2560722529888153,-0.9656018018722534,0.09118378162384033,0.47169578075408936,0.22111022472381592,0.949709691984347,-0.1302592586438011,-0.01521966245210436,0.28434569517460734
1729874922075656200,0.76365625,-1.2127110958099365,0.9569265246391296,2.921445608139038,0.06085346266627312,0.267225980758667,-0.961710512638092,0.10899216681718826,0.41316351294517517,0.20019018650054932,0.9447103438925388,-0.13791121346108293,-0.011190788879501297,0.2972839144797952
1729874922085686300,0.773686279296875,-1.205767273902893,1.09528648853302,2.7910940647125244,0.07859082520008087,0.2767285704612732,-0.9577289819717407,0.00989493727684021,0.2631427049636841,0.19842112064361572,0.9395444419651535,-0.14525226539186456,-0.0061068568665238855,0.3100335556680387
1729874922095717000,0.783717041015625,-1.3626989126205444,1.1467336416244507,2.6232028007507324,0.09701360017061234,0.28657975792884827,-0.953131914138794,-0.10622985661029816,0.0848802924156189,0.25475239753723145,0.9343246369367556,-0.15307965336458076,-0.0008195136955890135,0.32187485704472973
1729874922105747200,0.793747314453125,-1.6325191259384155,1.1614841222763062,2.5069851875305176,0.11554808169603348,0.2980705499649048,-0.9475244283676147,-0.1468895822763443,-0.04974895715713501,0.348815381526947,0.9289236541481267,-0.16192752264999177,0.004153729579237381,0.33296095607060977
1729874922115777300,0.80377734375,-1.9629391431808472,1.1420305967330933,2.4156386852264404,0.1340177357196808,0.3120679557323456,-0.9405598640441895,-0.11973544955253601,-0.1117810308933258,0.37046098709106445,0.9232055677938725,-0.17218427998083016,0.008523325309354155,0.3434697187596947
1729874922125808000,0.81380810546875,-2.18621563911438,1.1106914281845093,2.3413548469543457,0.15221306681632996,0.3281805217266083,-0.9322707056999207,-0.08379259705543518,-0.0916387140750885,0.35319972038269043,0.9171318688187381,-0.18361880102365175,0.012197063214004007,0.3535597385360476
1729874922135838200,0.823838134765625,-2.400052785873413,1.1540050506591797,2.3272459506988525,0.17058444023132324,0.3457717001438141,-0.9226824641227722,-0.04392117261886597,-0.007881015539169312,0.2952410578727722,0.9106841743692001,-0.19600957493144858,0.015460476852668333,0.3633118735951188
1729874922145869300,0.833869384765625,-2.466820240020752,1.1978175640106201,2.446911096572876,0.18992924690246582,0.36404234170913696,-0.9118114113807678,-0.013781726360321045,0.1250019073486328,0.2543407678604126,0.9036971734474718,-0.20914989007861334,0.0187246202086093,0.37314501059817157
1729874922155899400,0.8438994140625,-2.243171453475952,1.2328977584838867,2.5739405155181885,0.2103569209575653,0.3804512619972229,-0.9005591869354248,0.010483592748641968,0.22245407104492188,0.2332465648651123,0.8962471046870762,-0.2218484250392684,0.022442975681537133,0.3834329973631333
1729874922165930200,0.85393017578125,-2.048602342605591,1.3463770151138306,2.582200050354004,0.23194003105163574,0.39393240213394165,-0.88939368724823,0.015389755368232727,0.2520179748535156,0.09564679861068726,0.8886080187942281,-0.23361342140292007,0.026980074322537947,0.39379287940286867
1729874922175960300,0.863960205078125,-1.8727772235870361,1.500554084777832,2.5267345905303955,0.2548009753227234,0.4050661027431488,-0.8780648708343506,-0.03141224384307861,0.27214953303337097,0.014249622821807861,0.8809262931176524,-0.24477600491061444,0.0324385934031961,0.4037343224613903
1729874922185990100,0.873990234375,-1.7857325077056885,1.663931131362915,2.4038262367248535,0.278810977935791,0.4143604040145874,-0.8663544058799744,-0.07733386754989624,0.2755810618400574,0.01373910903930664,0.8733026214663588,-0.25557541448001597,0.0387815599257437,0.41294056458055606
1729874922196021000,0.88402099609375,-1.7217642068862915,1.8662523031234741,2.3822021484375,0.3041084408760071,0.42245298624038696,-0.8538451790809631,-0.11015388369560242,0.2421741485595703,0.02509462833404541,0.8656458058562647,-0.26639044030368003,0.04597333352706257,0.4214024714336599
1729874922206051000,0.894051025390625,-1.8646031618118286,2.0091874599456787,2.3740737438201904,0.3308233320713043,0.4299422800540924,-0.8400628566741943,-0.13314566016197205,0.17548075318336487,0.07266789674758911,0.8576481611966736,-0.27761449238019814,0.053840201914524564,0.42950106277713895
1729874922216082200,0.904082275390625,-2.136094093322754,2.114450693130493,2.3294107913970947,0.3583168089389801,0.4385221600532532,-0.8242010474205017,-0.12984690070152283,0.0990145206451416,0.15026617050170898,0.8490839753687128,-0.289991947132254,0.06167775723309051,0.43721491556491
1729874922226112000,0.914112060546875,-2.4492177963256836,2.1880264282226562,2.2090420722961426,0.3859827220439911,0.4487321674823761,-0.8060129284858704,-0.1623498499393463,0.04716327786445618,0.25126445293426514,0.8399510294552348,-0.3036759015026802,0.06909765487414253,0.4443971749900261
1729874922236143000,0.92414306640625,-2.7709550857543945,2.220130443572998,2.0800905227661133,0.41345351934432983,0.4611085057258606,-0.7851338386535645,-0.16722238063812256,0.018307417631149292,0.26447349786758423,0.8302349817105225,-0.3188774939643738,0.07583020964723278,0.4508623979694394
1729874922246173200,0.934173095703125,-2.796426773071289,2.2341365814208984,2.028398275375366,0.4403058588504791,0.47404637932777405,-0.7625029683113098,-0.16128358244895935,0.02364957332611084,0.2850402593612671,0.8201095336083901,-0.33469694985782833,0.0820150282208979,0.4568061387754329
1729874922256203300,0.944203369140625,-2.6725077629089355,2.273574113845825,2.052785634994507,0.4671182930469513,0.48541197180747986,-0.739037036895752,-0.10405057668685913,0.06454533338546753,0.20566612482070923,0.8097449343396556,-0.3502308431948404,0.08842982833836599,0.46241940140678567
1729874922266232800,0.95423291015625,-2.5406596660614014,2.3362255096435547,2.122675895690918,0.4941783845424652,0.4943344295024872,-0.7151371836662292,-0.028129130601882935,0.13487699627876282,0.1624029278755188,0.799146237010948,-0.3651447744134793,0.09539752801532313,0.4679037651245471
1729874922276262700,0.9642626953125,-2.4681034088134766,2.4360358715057373,2.2271969318389893,0.5218560099601746,0.5008693933486938,-0.6905041933059692,0.01867133378982544,0.21014434099197388,0.14459067583084106,0.7881549282574134,-0.3796413520568592,0.10305504238064363,0.4733537795886234
1729874922286293800,0.974293701171875,-2.5282175540924072,2.5401647090911865,2.290560007095337,0.5502128601074219,0.5056203007698059,-0.6645404100418091,0.0424996018409729,0.25676989555358887,0.13707470893859863,0.7765825551627236,-0.3941409177396862,0.11127768920799955,0.4787376977412639
1729874922296323800,0.98432373046875,-2.764648199081421,2.5879359245300293,2.287036418914795,0.5786805152893066,0.5098116397857666,-0.6365696787834167,0.039575159549713135,0.2406308650970459,0.1323431134223938,0.7642479686817089,-0.40919511050559526,0.11947605548382242,0.4839522948835881
1729874922306354700,0.994354736328125,-3.033859968185425,2.528959274291992,2.239506721496582,0.6062870025634766,0.5144811272621155,-0.6064034700393677,0.019170820713043213,0.17097419500350952,0.11624550819396973,0.7510506759803186,-0.42509743708048364,0.12684803059126903,0.48900369384796133
1729874922316384800,1.004384765625,-3.1821835041046143,2.500664710998535,2.172930955886841,0.6326183080673218,0.5192350745201111,-0.57462078332901,0.014079749584197998,0.09049087762832642,0.06999742984771729,0.7372066753802539,-0.44148368389776965,0.1333483128107371,0.4937983116723451
1729874922326414800,1.014414794921875,-3.0834834575653076,2.374067783355713,2.0705413818359375,0.6574447154998779,0.5231187343597412,-0.542322039604187,0.049632370471954346,0.04234147071838379,-0.022985517978668213,0.7231223299913047,-0.45765543022972677,0.13924977402381322,0.4982520297361533
1729874922336445700,1.02444580078125,-2.8208096027374268,2.273008346557617,1.9083538055419922,0.6802137494087219,0.5253781080245972,-0.5111625790596008,0.11063408851623535,0.06837189197540283,-0.0681983232498169,0.7095832922019613,-0.4726913361585441,0.14485033047497747,0.5020686380746013
1729874922346475800,1.034475830078125,-2.461294412612915,2.034775733947754,1.845777988433838,0.700840950012207,0.5256465673446655,-0.48220089077949524,0.16199785470962524,0.2045627236366272,-0.10523185133934021,0.6968832009851164,-0.4861261882550227,0.15026936930304655,0.5054248924790848
1729874922356507000,1.0445068359375,-2.04815936088562,1.7674802541732788,1.882828712463379,0.7195703387260437,0.5230000019073486,-0.4568256735801697,0.20831674337387085,0.38566088676452637,-0.06223249435424805,0.6851353246937347,-0.49733575273883,0.15570585748958712,0.5089229443407982
1729874922366537000,1.054536865234375,-1.8073352575302124,1.6414023637771606,1.9319126605987549,0.7371039390563965,0.5175643563270569,-0.4345169961452484,0.2446008324623108,0.4879745841026306,-0.08005505800247192,0.6740960764281585,-0.5066480873569069,0.16139768205789168,0.512691982725263
1729874922376567800,1.06456787109375,-1.8853802680969238,1.6418417692184448,1.8650270700454712,0.7539160251617432,0.5110607743263245,-0.41282889246940613,0.19637101888656616,0.4608325958251953,-0.07241582870483398,0.6631378062259362,-0.5154349094361554,0.16707006416812392,0.5163940665232547
1729874922386598000,1.074597900390625,-2.1248536109924316,1.6129969358444214,1.7320719957351685,0.7696651816368103,0.5053950548171997,-0.39011716842651367,0.08546793460845947,0.3326634168624878,-0.023411214351654053,0.6518340734602722,-0.5247687277731995,0.171927885521903,0.5197796981232785
1729874922396628000,1.0846279296875,-2.041194438934326,1.5078963041305542,1.5191993713378906,0.7838139533996582,0.5006425976753235,-0.36741358041763306,-0.006088674068450928,0.1645795702934265,0.010541081428527832,0.6406279730260788,-0.5342133953038104,0.17581031098864738,0.5227835489721249
1729874922406658800,1.094658935546875,-1.9853698015213013,1.5282716751098633,1.3125159740447998,0.7962854504585266,0.49669352173805237,-0.3452901244163513,-0.01004570722579956,0.039301931858062744,-0.0865182876586914,0.6301535677919751,-0.5433677664183914,0.17918262258429307,0.5249301945190505
1729874922416689000,1.10468896484375,-1.7572280168533325,1.4167180061340332,1.2785345315933228,0.807635486125946,0.49270740151405334,-0.32398226857185364,0.0036438703536987305,0.08837780356407166,-0.1037520170211792,0.6202202638336001,-0.5520435671330383,0.18236436846714485,0.526610018554436
1729874922426720000,1.114719970703125,-1.3181010484695435,1.2397828102111816,1.371909499168396,0.8183351755142212,0.4867895841598511,-0.3055543005466461,0.08954751491546631,0.25924304127693176,-0.06204506754875183,0.6112037760584849,-0.5591007247585574,0.1860893179860386,0.528400459082585
1729874922436749800,1.124749755859375,-1.0615019798278809,1.050136923789978,1.4630417823791504,0.828647255897522,0.47852152585983276,-0.29044920206069946,0.20328938961029053,0.35544753074645996,-0.1800859272480011,0.6030587245064135,-0.564348766438985,0.19048848638521693,0.5306078309024516
1729874922446781000,1.134781005859375,-1.2262181043624878,0.8643637895584106,1.4228531122207642,0.8382844924926758,0.46955350041389465,-0.27712586522102356,0.23392021656036377,0.33382174372673035,-0.19266164302825928,0.5950847540214551,-0.5688580720062173,0.19451879227750954,0.5333264683318958
1729874922456810800,1.144810791015625,-1.7381035089492798,0.6908327341079712,1.2963085174560547,0.8467421531677246,0.4620230197906494,-0.26374709606170654,0.18075424432754517,0.21005034446716309,-0.16410928964614868,0.5864689640248956,-0.5739396979027691,0.19677316530290576,0.5365889887901005
1729874922466840800,1.1548408203125,-2.4295036792755127,0.6404646635055542,1.2105411291122437,0.8541994690895081,0.4566820561885834,-0.24856585264205933,0.09743034839630127,0.0462629497051239,-0.12019321322441101,0.5764232648429238,-0.5805390345013435,0.1967015562653779,0.5403880910298495
1729874922476871700,1.16487158203125,-3.049309730529785,0.6607635021209717,1.1469703912734985,0.8611564040184021,0.4531288743019104,-0.23039990663528442,0.04927468299865723,-0.07596206665039062,-0.10585799813270569,0.5644976985710168,-0.5890270905653766,0.19454340034016943,0.5445571521373415
1729874922486901800,1.17490185546875,-3.4045870304107666,0.6505009531974792,1.0564138889312744,0.8676114678382874,0.4507145881652832,-0.21001648902893066,0.030658364295959473,-0.14682048559188843,-0.11246266961097717,0.5511738284440834,-0.5988300626833384,0.19077293912716833,0.5488312981667219
1729874922496932900,1.184932861328125,-3.4891185760498047,0.5770559906959534,1.0003314018249512,0.8734884262084961,0.4486944377422333,-0.188921719789505,0.02237039804458618,-0.15331479907035828,-0.11375153064727783,0.5372507443942941,-0.6090486272976263,0.18600781920478615,0.5530123022889859
1729874922506962700,1.194962646484375,-3.3807663917541504,0.3501642048358917,0.9911912679672241,0.8788145184516907,0.4461165964603424,-0.16930752992630005,0.043914973735809326,-0.0863296389579773,-0.0775032490491867,0.5234303512764872,-0.6186107057207626,0.180740228588386,0.5573818004453059
1729874922516993800,1.204993896484375,-3.299485445022583,0.09470019489526749,0.9535182118415833,0.8835254907608032,0.44282251596450806,-0.15261369943618774,0.09317433834075928,0.01689431071281433,-0.01714026927947998,0.5101043825842669,-0.6269476976374155,0.17501352821503147,0.5622280597822971
1729874922527023900,1.21502392578125,-3.040982246398926,-0.06013966724276543,0.9290583729743958,0.8877236843109131,0.4389893710613251,-0.1386900693178177,0.12329316139221191,0.10780927538871765,0.02556152641773224,0.4974738497275621,-0.634078754725093,0.1691126881977008,0.5673312719256628
1729874922537053700,1.2250537109375,-3.1386160850524902,-0.1711873561143875,0.8216546773910522,0.8914456963539124,0.43516647815704346,-0.1263113170862198,0.13771378993988037,0.16006356477737427,-0.05183492600917816,0.485257202451035,-0.6405528007275083,0.16290013419918556,0.5724342882419184
1729874922547084800,1.235084716796875,-3.2144243717193604,-0.2842232584953308,0.7573910355567932,0.8946051597595215,0.4318963587284088,-0.11466171592473984,0.11273437738418579,0.1910894811153412,-0.0495685338973999,0.4729489837318162,-0.6468427000772212,0.15576798450125567,0.5776246358702571
1729874922557115000,1.245114990234375,-3.4771645069122314,-0.28858309984207153,0.6518533825874329,0.8973598480224609,0.42912814021110535,-0.10292934626340866,0.08649641275405884,0.22527548670768738,-0.05112332105636597,0.46023153557032864,-0.6532388817633908,0.14769661726009703,0.5827964074340386
1729874922567145700,1.255145751953125,-3.3998169898986816,-0.29208865761756897,0.5993963479995728,0.8997610807418823,0.4268507659435272,-0.09071125090122223,0.07556551694869995,0.2544999122619629,-0.08214020729064941,0.44726213032710954,-0.6597925890925445,0.13898961745504082,0.5876327930738422
1729874922577175800,1.26517578125,-3.261422872543335,-0.32277438044548035,0.5412123799324036,0.9018837809562683,0.42467883229255676,-0.07908111065626144,0.050524234771728516,0.29814526438713074,-0.09084070473909378,0.434608375985155,-0.6659651436511579,0.13019166882941913,0.5921623949763061
1729874922587207000,1.27520703125,-2.577061653137207,-0.26674553751945496,0.5631949305534363,0.904026985168457,0.42180559039115906,-0.06939183175563812,0.05349254608154297,0.29151225090026855,-0.10616045445203781,0.4233420627200417,-0.6710041550071753,0.12270903766191138,0.5962192565257622
1729874922597237000,1.285237060546875,-2.1269896030426025,-0.19090613722801208,0.48079776763916016,0.9061198234558105,0.4185025095939636,-0.06166665628552437,0.06519383192062378,0.23057588934898376,-0.19460463523864746,0.41399468983948673,-0.6748897205882486,0.11700657114398866,0.5995347089467099
1729874922607266800,1.295266845703125,-1.7786858081817627,-0.01804552786052227,0.34657207131385803,0.9077860713005066,0.4158906936645508,-0.05440236255526543,0.025823116302490234,0.19032573699951172,-0.13048827648162842,0.4061931694876455,-0.6783667638171047,0.11232698571752027,0.601837515018483
1729874922617298000,1.3052978515625,-1.576927900314331,-0.003074302338063717,0.3323092460632324,0.9091712236404419,0.4137040376663208,-0.04750458896160126,-0.00986391305923462,0.22461682558059692,-0.07741904258728027,0.39950747548125914,-0.6815367080905664,0.10842241771233115,0.6034451845157753
1729874922627328000,1.315327880859375,-1.4666682481765747,-0.02242392487823963,0.35533758997917175,0.9105957746505737,0.4112272560596466,-0.041322361677885056,0.007281482219696045,0.2389039397239685,-0.04344010353088379,0.3932507308888779,-0.6843398142998992,0.1049658911645484,0.6049917989846613
1729874922637358800,1.32535888671875,-1.2136894464492798,0.003545357845723629,0.36336567997932434,0.9120640158653259,0.4084761440753937,-0.035864584147930145,0.04351752996444702,0.28018343448638916,0.012778110802173615,0.38749013652967434,-0.6867725204582807,0.10203535135716067,0.6064516512380628
1729874922647389000,1.335388916015625,-0.8138257265090942,0.12923158705234528,0.3807140588760376,0.9136064648628235,0.40540698170661926,-0.031119581311941147,0.04846024513244629,0.34144967794418335,-0.04567784070968628,0.3828020769242301,-0.6887475362971344,0.10033464324038967,0.6074721013604014
1729874922657420000,1.345419921875,-0.3611437678337097,0.2722119092941284,0.42028728127479553,0.9152910709381104,0.4018944799900055,-0.02689347043633461,0.037910282611846924,0.3866644501686096,-0.11316686868667603,0.379463168590137,-0.69027930017256,0.10033818896134443,0.6078277219523999
1729874922667449600,1.35544970703125,-0.11447132378816605,0.34226152300834656,0.40771690011024475,0.9170677065849304,0.3980599045753479,-0.02313925512135029,0.02249234914779663,0.3416250944137573,-0.1217275857925415,0.3772594029421788,-0.6914335481890604,0.10173505377199447,0.6076554080131913
1729874922677479700,1.365479736328125,-0.1761498749256134,0.34604641795158386,0.326409250497818,0.918603777885437,0.3947008550167084,-0.019449852406978607,-0.0018557310104370117,0.18134889006614685,-0.06479382514953613,0.3755044085268292,-0.6925406568676308,0.10325944191648698,0.6072242963152943
1729874922687510800,1.3755107421875,-0.4827183485031128,0.2742021679878235,0.19313403964042664,0.9196939468383789,0.3923381268978119,-0.015295908786356449,-0.03019803762435913,-0.006977438926696777,0.014014244079589844,0.37344217856940354,-0.6939579871294437,0.1037996031873629,0.6067857462476829
1729874922697540900,1.385540771484375,-0.9344580769538879,0.2591920495033264,0.04267954081296921,0.920208752155304,0.39129772782325745,-0.010115519165992737,-0.04275190830230713,-0.16836684942245483,0.058226585388183594,0.37049166734566413,-0.6960017708045135,0.1025854541847834,0.6064601162311815
1729874922707571700,1.39557177734375,-1.2513703107833862,0.3132379651069641,-0.1694641411304474,0.919995903968811,0.3919159471988678,-0.0031336210668087006,-0.05857604742050171,-0.2343384027481079,0.08565324544906616,0.36662845716150766,-0.6989496962332654,0.09951136419806857,0.6059295134251459
1729874922717601800,1.405601806640625,-1.2520695924758911,0.21441897749900818,-0.238607257604599,0.919121265411377,0.3939483165740967,0.004596729762852192,-0.07001525163650513,-0.1670043170452118,0.10276424884796143,0.36259301458583587,-0.7022935624734138,0.09530014211847526,0.6051678041721167
1729874922727632600,1.415632568359375,-0.779251217842102,0.09900253266096115,-0.1369836926460266,0.918372392654419,0.3955928087234497,0.009932588785886765,-0.03688734769821167,0.031119197607040405,0.0874032974243164,0.3594739971608838,-0.7046580736620842,0.09177850235279017,0.6048241237355858
1729874922737662700,1.425662841796875,-0.20845088362693787,0.1397893726825714,-0.12071844190359116,0.9178195595741272,0.39677894115448,0.013179711066186428,0.0606350302696228,0.18201738595962524,-0.09128940105438232,0.3579516973514988,-0.706049221892933,0.08991302293922822,0.6043845783252031
1729874922747692800,1.43569287109375,0.40400058031082153,0.21396496891975403,-0.02740287408232689,0.9174880981445312,0.3975067138671875,0.014288131147623062,0.038124144077301025,0.30236807465553284,-0.11812412738800049,0.3584947436975393,-0.7063963353094643,0.09026784041788143,0.6036037824182934
1729874922757724000,1.445723876953125,0.9116963148117065,0.3129378855228424,0.10969425737857819,0.917624831199646,0.39719733595848083,0.014103020541369915,0.013878464698791504,0.299061119556427,-0.16168594360351562,0.3606292788214673,-0.7059817270122888,0.09295865472366865,0.6024076803630997
1729874922767753700,1.455753662109375,0.9904334545135498,0.2900143563747406,0.13770459592342377,0.9181284308433533,0.39606964588165283,0.012999968603253365,0.010643541812896729,0.11860924959182739,-0.13812196254730225,0.36353953106238096,-0.7050532557260398,0.0969530349643662,0.6011148255494833
1729874922777784800,1.465784912109375,0.6317453384399414,0.2557418644428253,0.05753278732299805,0.9184924364089966,0.3952500522136688,0.012210607528686523,-0.020146489143371582,-0.06297475099563599,-0.05710184574127197,0.3660637027858101,-0.7042994407490284,0.10033743930015865,0.5999100454834291
1729874922787815000,1.47581494140625,0.04630184546113014,0.2052026391029358,0.05978742241859436,0.9186747074127197,0.39480018615722656,0.013019059784710407,-0.060291588306427,-0.1355382204055786,0.02373945526778698,0.3669740644836728,-0.7043525760586522,0.10196557529041264,0.5990162347085497
1729874922797845800,1.485845703125,-0.44048166275024414,0.18347150087356567,0.08980657160282135,0.9189673662185669,0.39402511715888977,0.015599546022713184,-0.04155641794204712,-0.14779406785964966,0.05121874809265137,0.3658966272980403,-0.7052665207201763,0.10197503453813234,0.5985983428498195
1729874922807875800,1.495875732421875,-0.7515751719474792,0.2051970362663269,0.06108970195055008,0.9192435145378113,0.3931933641433716,0.0197670366615057,0.02400916814804077,-0.1426897943019867,-0.040991902351379395,0.3634097068101966,-0.7069139603015775,0.10077782793102531,0.5983728532873757
1729874922817907000,1.505906982421875,-0.8932614922523499,0.23417994379997253,0.05001521483063698,0.9194093346595764,0.39250242710113525,0.02507053129374981,0.03749990463256836,-0.07969731092453003,-0.0850985050201416,0.36019135816299347,-0.7090535322200869,0.09888556249851706,0.598102836362502
1729874922827936800,1.515936767578125,-0.9546920657157898,0.19680903851985931,0.08271670341491699,0.9196003079414368,0.3916495144367218,0.030760306864976883,0.03270089626312256,-0.015321999788284302,-0.04426419362425804,0.35659210078932707,-0.7113521792855116,0.09673794597029187,0.5978812908185157
1729874922837966800,1.525966796875,-0.9467238783836365,0.09317824989557266,0.14662565290927887,0.920007586479187,0.39025482535362244,0.0358794629573822,0.042684733867645264,0.0012856721878051758,0.013223409652709961,0.35275633218238744,-0.7134420767607708,0.09455228624511788,0.5980161577450959
1729874922847998000,1.535998046875,-0.8878740072250366,-0.010769132524728775,0.15988287329673767,0.920609712600708,0.38844916224479675,0.03981328010559082,0.04054147005081177,-0.02463388442993164,0.04740607738494873,0.3489795721998403,-0.7150962979110003,0.09243335732725322,0.598587215786935
1729874922858028000,1.546028076171875,-0.7849422693252563,-0.003967419732362032,0.12713584303855896,0.9211874008178711,0.3867391347885132,0.04297753423452377,0.018265902996063232,-0.041936248540878296,0.03253829851746559,0.3455164117468928,-0.7164601636137137,0.09040796528916092,0.5992744425149266
1729874922868059000,1.556058837890625,-0.6594666242599487,0.051349736750125885,0.08436466753482819,0.9215878248214722,0.38544076681137085,0.04594966396689415,-0.008639156818389893,-0.002445220947265625,-0.008535027503967285,0.34259838040973667,-0.7177151282249032,0.08865566513490343,0.5997095583360065
1729874922878088700,1.566088623046875,-0.4761993885040283,0.13904790580272675,0.05105305090546608,0.9218193888664246,0.3845064640045166,0.049027591943740845,-0.015554189682006836,0.06449854373931885,-0.053788311779499054,0.3402892163444444,-0.7189445781857946,0.08736412291505866,0.5997411053507257
1729874922888118800,1.576118896484375,-0.32893356680870056,0.18281742930412292,0.013994364999234676,0.9218505620956421,0.384022980928421,0.05213246867060661,0.008996546268463135,0.13862097263336182,-0.06458354741334915,0.3386628469329155,-0.7201232980622679,0.0865371055648373,0.5993673287268025
1729874922898149600,1.586149658203125,-0.04997275769710541,0.15475329756736755,0.08937273919582367,0.9219323992729187,0.38349542021751404,0.05451352894306183,0.04608511924743652,0.1824987232685089,-0.056069858372211456,0.3377464069894699,-0.7209636836810738,0.08641834858601274,0.5988910582732565
1729874922908179700,1.5961796875,0.046128205955028534,0.13853076100349426,0.1655077338218689,0.922376811504364,0.3822464644908905,0.055755287408828735,0.08989125490188599,0.12884661555290222,-0.037505749613046646,0.3373552045136454,-0.7212974752612229,0.08722153799760461,0.5985932142225192
1729874922918210800,1.6062109375,-0.002908312249928713,0.15894602239131927,0.1589829921722412,0.9229190349578857,0.38073739409446716,0.05708939582109451,0.11226755380630493,0.002288639545440674,0.023446548730134964,0.3368362436324494,-0.7216535035484114,0.0880960775249025,0.5983281124796784
1729874922928241000,1.616240966796875,0.19439484179019928,0.15670381486415863,0.20923443138599396,0.923521101474762,0.37909215688705444,0.05829006806015968,0.051484882831573486,-0.03537282347679138,0.1473831981420517,0.3364928414128199,-0.7219268069478018,0.08925647713413146,0.5980196223653697
1729874922938271700,1.626271728515625,0.5469752550125122,0.14805173873901367,0.2602193355560303,0.9243392944335938,0.377095103263855,0.05827467888593674,0.0152205228805542,-0.013432472944259644,0.11640797555446625,0.3370609063064322,-0.7216407175923317,0.09149870718376879,0.5977060136169939
1729874922948301800,1.6363017578125,0.91010582447052,0.2114916890859604,0.2772694230079651,0.9252752065658569,0.37496697902679443,0.057148825377225876,0.013048946857452393,0.05615481734275818,0.023249872028827667,0.33878144685414574,-0.720802892398828,0.09496106275829701,0.5972042607263667
1729874922958332000,1.646331787109375,1.0700790882110596,0.26441147923469543,0.2119857519865036,0.9260807037353516,0.3732074797153473,0.05559417977929115,0.0047359466552734375,0.14401963353157043,-0.03514731302857399,0.3415721224835341,-0.719676156527536,0.09931424997293906,0.5962645351820385
1729874922968362800,1.65636279296875,0.9943111538887024,0.36087989807128906,0.09285535663366318,0.926482081413269,0.3723556697368622,0.05460835620760918,-0.005354821681976318,0.14467307925224304,-0.04043281450867653,0.34467664154856903,-0.7187466256336553,0.10347688749765542,0.5948897302240148
1729874922978392800,1.666392822265625,0.926725447177887,0.35963353514671326,-0.00775061035528779,0.9264384508132935,0.3724888563156128,0.054440464824438095,-0.015061497688293457,0.10169318318367004,-0.01621711626648903,0.3478386669553592,-0.7181490129329465,0.10715515892634461,0.5931171713680173
1729874922988424000,1.676423828125,0.8002435564994812,0.31696078181266785,-0.07132825255393982,0.9260908365249634,0.37336719036102295,0.054341141134500504,-0.016987383365631104,-0.006713777780532837,0.00744175910949707,0.3508936776464985,-0.7176608814194101,0.11015184727386457,0.591357047669839
1729874922998453800,1.686453857421875,0.7348901033401489,0.32154250144958496,-0.02933260053396225,0.9257168769836426,0.3742820918560028,0.0544193759560585,-0.03738051652908325,-0.030867785215377808,0.10973478108644485,0.3536119160703823,-0.7172820276599706,0.11276604270325588,0.5897025329383164
1729874923008484900,1.69648486328125,0.7315031886100769,0.3868943452835083,0.038391582667827606,0.9255586862564087,0.37459632754325867,0.054942380636930466,-0.03070700168609619,0.023139208555221558,0.08107459545135498,0.3560279334772699,-0.7170124076847011,0.11560448729168059,0.5880245568384118
1729874923018515000,1.706514892578125,0.6182889938354492,0.43072250485420227,-0.009746916592121124,0.9254164695739746,0.3747609257698059,0.05620091035962105,0.0007767081260681152,0.04705294966697693,0.003552548587322235,0.3581731088021474,-0.7169889756296208,0.11843675188338101,0.5861838623202196
1729874923028545800,1.7165458984375,0.4169404208660126,0.4083671271800995,-0.09808290749788284,0.9249607920646667,0.37557899951934814,0.05820857360959053,0.018658161163330078,0.047455668449401855,-0.022487632930278778,0.3599461625041976,-0.7173411209022332,0.12052386941540903,0.5842384802243068
1729874923038575900,1.726575927734375,0.22068876028060913,0.28042110800743103,-0.08939247578382492,0.9243776202201843,0.3766974210739136,0.06020940840244293,0.02732837200164795,0.03577813506126404,-0.04264640808105469,0.36118530589858805,-0.7178343745642425,0.12173132054830957,0.5826152354461861
1729874923048606000,1.73660595703125,-0.025638125836849213,0.08054804801940918,-0.0028831511735916138,0.9240933060646057,0.37717896699905396,0.0615418441593647,0.06434047222137451,-0.032422006130218506,-0.029254205524921417,0.36156833118791415,-0.7182189402447654,0.1221985130625294,0.5818052229675723
1729874923058636800,1.74663671875,-0.21520540118217468,-0.07764105498790741,0.02837543562054634,0.9241609573364258,0.37694162130355835,0.06198028847575188,0.12626934051513672,-0.13121414184570312,0.015671726316213608,0.3610543582438979,-0.7184273537348743,0.12186994022973283,0.5819361043687596
1729874923068667000,1.7566669921875,-0.25611022114753723,-0.12621071934700012,0.09694038331508636,0.9244406819343567,0.37626123428344727,0.06194252893328667,0.1793038249015808,-0.19628390669822693,-0.052543047815561295,0.36007812325411237,-0.718530280769864,0.12118374673087784,0.582556850448977
1729874923078698000,1.766697998046875,-0.27711084485054016,-0.12707863748073578,0.2671571373939514,0.9251965284347534,0.374433308839798,0.06173604354262352,0.1863606572151184,-0.19268590211868286,-0.17030227184295654,0.3586747757143243,-0.7185200850850789,0.12081766655151703,0.5835105104501311
1729874923088727800,1.776727783203125,-0.23476816713809967,-0.09913671016693115,0.36492016911506653,0.9265011548995972,0.371202290058136,0.06168133392930031,0.1776401400566101,-0.13864311575889587,-0.17293310165405273,0.3568451265051854,-0.718460359935013,0.12105939902762244,0.5846545440041425
1729874923098757600,1.786757568359375,-0.27136266231536865,-0.03762247785925865,0.28375208377838135,0.9277808666229248,0.3679504096508026,0.061930201947689056,0.12852412462234497,-0.08830264210700989,-0.11361157894134521,0.35500770321519654,-0.7184909882555742,0.12139110389808211,0.5856658725263499
1729874923108788700,1.796788818359375,-0.2131618857383728,0.058702245354652405,0.16681455075740814,0.9285967350006104,0.3657081127166748,0.06297336518764496,0.04436469078063965,-0.030533641576766968,-0.0781710222363472,0.3534212146978431,-0.7188415401628435,0.12146408164446759,0.5861797906715758
1729874923118818800,1.80681884765625,-0.0027551138773560524,0.10069897025823593,0.040737297385931015,0.9289416074752808,0.36462438106536865,0.0641591027379036,-0.0013141632080078125,-0.0031437575817108154,-0.08350719511508942,0.35265252569450756,-0.7192171837065086,0.12168071239582869,0.5861369839307562
1729874923128849700,1.816849609375,0.1303384155035019,0.08000343292951584,-0.11441793292760849,0.9287376999855042,0.36503130197525024,0.06479605287313461,0.01907724142074585,-0.03747093677520752,-0.10947371274232864,0.35295501961098524,-0.719399877537481,0.12190915617270279,0.5856831799345246
1729874923138879700,1.826879638671875,0.3049640357494354,0.01887030526995659,-0.15438957512378693,0.9281784892082214,0.36650964617729187,0.0644611269235611,0.05235123634338379,-0.012688934803009033,-0.09943414479494095,0.35412555840711796,-0.7192491796430464,0.12211134478319147,0.5851191834506131
1729874923148910800,1.836910888671875,0.49448123574256897,-0.016225097700953484,-0.046399202197790146,0.9277893304824829,0.3677469789981842,0.06300349533557892,0.10565811395645142,0.052617400884628296,-0.11596667021512985,0.3558771382206412,-0.7186064437999014,0.12290861227818586,0.5846792744141773
1729874923158940700,1.846940673828125,0.5558585524559021,-0.02377857081592083,0.07542683184146881,0.9278843998908997,0.3678821325302124,0.06077444925904274,0.14480853080749512,0.04282340407371521,-0.08376932144165039,0.3577713389636398,-0.7175528428331458,0.1245196447440892,0.584476310082492
1729874923168970800,1.856970703125,0.41245919466018677,-0.003984410781413317,0.098033607006073,0.9282438158988953,0.36729010939598083,0.05883552506566048,0.129571795463562,-0.06527295708656311,-0.026563048362731934,0.3592880456235667,-0.7165649902356126,0.12630272422448383,0.5843752530806979
1729874923179001900,1.867001953125,0.04879602789878845,0.05178670957684517,0.03840809687972069,0.9285113215446472,0.36672231554985046,0.058154210448265076,0.08181905746459961,-0.20223253965377808,0.014386184513568878,0.3599221839687369,-0.7161454925783312,0.1273292518488683,0.5842765747742127
1729874923189032000,1.877031982421875,-0.4013020396232605,0.09712276607751846,-0.08442515134811401,0.9283700585365295,0.3668536841869354,0.05955960974097252,0.03609222173690796,-0.2571125626564026,0.10351109504699707,0.3592717766083541,-0.7167261698631584,0.12682035720248314,0.5840753043877087
1729874923199062800,1.887062744140625,-0.5345325469970703,0.023884238675236702,-0.021862436085939407,0.9280900359153748,0.3671524226665497,0.062030475586652756,0.028513848781585693,-0.17794349789619446,0.14411580562591553,0.3576585911543226,-0.717856040074995,0.12529143134166584,0.5840077201886708
1729874923209092900,1.8970927734375,-0.5570211410522461,-0.04665070027112961,0.0879245176911354,0.9282512068748474,0.3664393723011017,0.06381210684776306,0.07727247476577759,-0.08598285913467407,0.1051027700304985,0.35561244178633217,-0.7187318169839015,0.12381691026869979,0.5844944538850512
1729874923219124000,1.9071240234375,-0.6804932951927185,-0.027548113837838173,0.10859277844429016,0.9286676645278931,0.3650403916835785,0.06573990732431412,0.13744860887527466,-0.05963578820228577,0.06777452677488327,0.35308855861062144,-0.7196577664664854,0.12232192768923862,0.5851995073674704
1729874923229153800,1.91715380859375,-0.8408322334289551,-0.057679757475852966,0.022483989596366882,0.9289575219154358,0.3638601303100586,0.06814753264188766,0.12196123600006104,-0.050597190856933594,0.06472612172365189,0.3501650044908562,-0.7208356409234555,0.12029025516754589,0.5859273664202981
1729874923239184000,1.927183837890625,-1.0508403778076172,-0.0937458798289299,-0.0967009887099266,0.9288870096206665,0.36352482438087463,0.0708448588848114,0.06319385766983032,-0.05633494257926941,0.09321773797273636,0.3469155935496796,-0.7222673737094963,0.11727007678998087,0.586708877771761
1729874923249215000,1.937215087890625,-1.326913833618164,-0.04425417631864548,-0.1944272816181183,0.9284182190895081,0.36398595571517944,0.07452482730150223,-0.0026979446411132812,-0.03761577606201172,0.07493507862091064,0.3430485079716593,-0.7242017544506669,0.11311159600225511,0.5874141247003838
1729874923259244800,1.947244873046875,-1.6133445501327515,0.0007697576656937599,-0.3072797954082489,0.9275268912315369,0.36517587304115295,0.07962838560342789,-0.054128944873809814,-0.030184417963027954,0.051002152264118195,0.33848505721153394,-0.7267602637130967,0.107859689410112,0.58788926624367
1729874923269276400,1.9572763671875,-1.8184419870376587,0.028276484459638596,-0.33188313245773315,0.9262982606887817,0.3667863607406616,0.08625376224517822,-0.09016221761703491,-0.09330311417579651,0.045261867344379425,0.3330805937031831,-0.7299395285408228,0.10156360726140373,0.5881586598672722
1729874923279306500,1.967306396484375,-1.4864147901535034,-0.17963597178459167,-0.36167752742767334,0.9251460433006287,0.3683375418186188,0.09182940423488617,-0.09209233522415161,-0.1714533567428589,0.009992606937885284,0.32794482713112355,-0.7326861463240796,0.0953190005811384,0.588674510871655
1729874923289337300,1.97733740234375,-1.078249216079712,-0.21099288761615753,-0.5582813620567322,0.9236351847648621,0.3714141845703125,0.09460257738828659,-0.034078240394592285,-0.23043829202651978,-0.11933696269989014,0.3246571923899733,-0.7343710478374226,0.08944525665926518,0.5893186221774908
1729874923299367400,1.987367431640625,-0.6903649568557739,-0.2071419507265091,-0.5074310302734375,0.9217291474342346,0.3757506012916565,0.09605863690376282,-0.03783309459686279,-0.032687216997146606,-0.24612866342067719,0.32317722103953384,-0.7354530864035015,0.08448712755928335,0.5895144970628068
1729874923309397200,1.997397216796875,-0.34795570373535156,-0.22610428929328918,-0.035995032638311386,0.9208700060844421,0.37785306572914124,0.09605076164007187,-0.0009022951126098633,0.2006838619709015,-0.24178731441497803,0.32213053095687116,-0.7357872993255478,0.08150110552538586,0.5900903812784045
1729874923319428000,2.007427978515625,0.11165395379066467,-0.31201282143592834,0.3209913372993469,0.9217647314071655,0.37618982791900635,0.09397446364164352,0.12523239850997925,0.21563750505447388,-0.13717198371887207,0.3213461827303178,-0.7350954034259206,0.0813755410275963,0.5913962183967848
1729874923329458200,2.017458251953125,0.2384469211101532,-0.2778588831424713,0.257180392742157,0.9232348799705505,0.37342312932014465,0.09051341563463211,0.14791691303253174,0.09563198685646057,-0.13946354389190674,0.3212156725204464,-0.7337780112951345,0.08262286921316049,0.5929282022542882
1729874923339489300,2.0274892578125,0.2448054850101471,-0.20193402469158173,-0.09816785901784897,0.9238051176071167,0.3727737069129944,0.08731433004140854,-0.037025392055511475,0.09446561336517334,-0.10673869401216507,0.32195215785473075,-0.7326090078177286,0.08331390597858335,0.5938767493609828
1729874923349519400,2.037519287109375,0.16085705161094666,0.1520487666130066,-0.2880810499191284,0.923012912273407,0.37499406933784485,0.08617857098579407,-0.2381221055984497,0.17767921090126038,-0.08135676383972168,0.3233190977388486,-0.7322595315582198,0.08297749002578302,0.5936122875772534
1729874923359550200,2.04755029296875,0.4036928713321686,0.5099525451660156,-0.03305889666080475,0.9220514893531799,0.37683650851249695,0.088404580950737,-0.34116464853286743,0.22034668922424316,0.046589963138103485,0.32467811493838517,-0.7329359236981375,0.08370914608209666,0.5919306129203918
1729874923369580300,2.057580322265625,0.550031840801239,0.6941290497779846,0.0936785414814949,0.9217130541801453,0.376777708530426,0.09210547804832458,-0.27344346046447754,0.09426099061965942,0.18008089065551758,0.3260886098918759,-0.7338886868589671,0.08637207688352302,0.5895874541768867
1729874923379610400,2.0676103515625,0.4364621043205261,0.7562922835350037,-0.02548513188958168,0.9211664795875549,0.3768625557422638,0.0970940887928009,-0.1357201337814331,-0.0845194160938263,0.18450690805912018,0.327489305617456,-0.735244252567277,0.08923527386853784,0.5866889077354589
1729874923389641200,2.07764111328125,0.2254333198070526,0.4655206501483917,-0.10200787335634232,0.9202601313591003,0.3778650164604187,0.10168222337961197,-0.015642821788787842,-0.13180190324783325,0.20100641250610352,0.32862511615615614,-0.7365915508019799,0.0909615245134686,0.5840927894390566
1729874923399671300,2.08767138671875,0.06342071294784546,-0.11180232465267181,-0.031715866178274155,0.9197855591773987,0.378702849149704,0.10285335779190063,0.1554403305053711,-0.13048818707466125,0.26766061782836914,0.32930376913017045,-0.736930968790172,0.09142990209018362,0.5832087395529036
1729874923409702400,2.097702392578125,-0.13678263127803802,-0.5930275917053223,0.1196446344256401,0.9203371405601501,0.37823721766471863,0.09958035498857498,0.25768715143203735,-0.053148746490478516,0.3185105323791504,0.3291915745886603,-0.7358890084217213,0.0908710261354398,0.5846732369800738
1729874923419732200,2.107732177734375,-0.12231526523828506,-0.7082833051681519,0.20680883526802063,0.9216424822807312,0.37650808691978455,0.09389866888523102,0.20416629314422607,0.10690554976463318,0.24165749549865723,0.32844560912238363,-0.73406952374651,0.0899514900891183,0.5875152782318871
1729874923429763300,2.117763427734375,0.16219408810138702,-0.48576995730400085,0.18095406889915466,0.9229680895805359,0.3746437728404999,0.08815798163414001,0.051259756088256836,0.20950832962989807,0.03858160227537155,0.3281630242856394,-0.7321412431728945,0.08971171568861332,0.5901101477887436
1729874923439793400,2.12779345703125,0.49425166845321655,0.0066863433457911015,0.059628427028656006,0.9236510396003723,0.373769074678421,0.08464901149272919,-0.09569388628005981,0.17569983005523682,-0.1718987226486206,0.32909615859458996,-0.7308171666684253,0.09072361924307935,0.5910763301420816
1729874923449823500,2.137823486328125,0.7947022318840027,0.42987382411956787,-0.00028257444500923157,0.9235498905181885,0.3740822970867157,0.08436719328165054,-0.15841329097747803,0.11270347237586975,-0.26663339138031006,0.3313201264903741,-0.7304141702202227,0.0931597322671498,0.5899519377641796
1729874923459854300,2.147854248046875,0.8246217966079712,0.5910283923149109,-0.00042611872777342796,0.9230957627296448,0.37479346990585327,0.08616158366203308,-0.09066790342330933,0.061485737562179565,-0.2982128858566284,0.3341005302363391,-0.7305967200486604,0.09648433030754135,0.5876188817585207
1729874923469884400,2.157884521484375,0.7748343348503113,0.4338560402393341,0.04023848474025726,0.9226941466331482,0.3753248453140259,0.08812903612852097,0.0712633728981018,0.05073097348213196,-0.2803133726119995,0.33671186824871574,-0.7308238170844605,0.09980514261115915,0.5852867584659464
1729874923479915300,2.167915283203125,0.5915641188621521,0.040033113211393356,0.10405847430229187,0.9227625131607056,0.37524446845054626,0.0877567008137703,0.20293956995010376,0.048492103815078735,-0.18193387985229492,0.3388972059611663,-0.7303225137676628,0.10250549512721549,0.5841835745573343
1729874923489945300,2.1779453125,0.5150183439254761,-0.16319802403450012,0.12703357636928558,0.923288106918335,0.37460410594940186,0.08491731435060501,0.24651169776916504,0.03338533639907837,-0.10544025897979736,0.34057278795460216,-0.7290835606309165,0.10438303464971363,0.5844241574662052
1729874923499976400,2.1879765625,0.49142858386039734,0.0560791939496994,0.08912400156259537,0.9237808585166931,0.373965322971344,0.0823335349559784,0.1668715476989746,0.005246013402938843,-0.04534614831209183,0.3421283972288577,-0.7279394344897243,0.10616471809370782,0.5846206924467372
1729874923510006500,2.198006591796875,0.3170163631439209,0.3259176015853882,0.026841185986995697,0.9238307476043701,0.3737645149230957,0.08268561959266663,0.04383593797683716,-0.07028254866600037,0.08110225200653076,0.3433641444409096,-0.7277972837248738,0.10795334075557593,0.5837450451511843
1729874923520036000,2.2080361328125,0.12712977826595306,0.26706308126449585,0.014675336889922619,0.9236543774604797,0.3737255334854126,0.08480587601661682,0.0048583149909973145,-0.1315532922744751,0.28903448581695557,0.34390709751675935,-0.7283376238198319,0.10921191463630035,0.5825161784129306
1729874923530067200,2.218067138671875,0.043363045901060104,0.05314497649669647,0.004944412037730217,0.9235616326332092,0.373668909072876,0.0860564261674881,0.12017011642456055,-0.13026073575019836,0.25715959072113037,0.3440523993801457,-0.7286837958881633,0.10976401852744254,0.5818933193856612
1729874923540097300,2.22809716796875,0.09982019662857056,-0.15969112515449524,-0.03951945900917053,0.923570990562439,0.3738230764865875,0.08528273552656174,0.2595803141593933,-0.06402391195297241,0.15577566623687744,0.3443495300005944,-0.7284109786791649,0.10981263492752244,0.582049944920358
1729874923550128000,2.238128173828125,0.11391045153141022,-0.20989400148391724,-0.10804685205221176,0.923467218875885,0.3745808005332947,0.08305242657661438,0.31449365615844727,0.00014448165893554688,0.05020260810852051,0.3450689328998746,-0.7276872614082625,0.10953292829263815,0.5825815943583673
1729874923560158200,2.248158203125,0.12219341099262238,-0.18742439150810242,-0.14200374484062195,0.9231595993041992,0.3758378028869629,0.08076083660125732,0.2681856155395508,0.02823016047477722,-0.03737998753786087,0.34597813966887386,-0.7269677507169052,0.1090793683636812,0.5830254866945406
1729874923570189300,2.258189208984375,0.10530450940132141,-0.08443168550729752,-0.16189463436603546,0.9227105379104614,0.3773016333580017,0.07904863357543945,0.1857793927192688,0.008043736219406128,-0.0465473011136055,0.34690311155627196,-0.726445687413381,0.1086323175948133,0.5832099795866548
1729874923580219400,2.268219482421875,0.0715140551328659,0.025870848447084427,-0.21844951808452606,0.922025203704834,0.3790949285030365,0.07846195995807648,0.13231122493743896,-0.03751176595687866,-0.0831768587231636,0.3477880148315118,-0.7263129023568363,0.10816907649893191,0.5829343050879544
1729874923590249200,2.278249267578125,0.07964994758367538,0.0703405812382698,-0.235038623213768,0.9211153984069824,0.38125500082969666,0.07868307083845139,0.08680391311645508,-0.05036821961402893,-0.060311444103717804,0.3486740133165942,-0.7264692215600848,0.10762901276606276,0.5823099457393496
1729874923600280300,2.2882802734375,0.18475453555583954,0.10399361699819565,-0.21586784720420837,0.9202004075050354,0.38339105248451233,0.0790095180273056,0.0731315016746521,-0.0010516941547393799,-0.04072511941194534,0.349736344111898,-0.726622036880371,0.10735536006611315,0.5815322228001758
1729874923610310400,2.298310302734375,0.305000901222229,0.10625719279050827,-0.2186173051595688,0.9192940592765808,0.3855493366718292,0.07905756682157516,0.10310584306716919,0.058939129114151,-0.07133651524782181,0.3512001510869474,-0.7266181616994389,0.1074933900298702,0.5806286551364601
1729874923620341200,2.30834130859375,0.32220521569252014,0.06283967941999435,-0.19832001626491547,0.9184169173240662,0.3877192437648773,0.07863929122686386,0.10529524087905884,0.09465676546096802,-0.020350582897663116,0.35293006650301906,-0.7264238970653125,0.10783306052714979,0.579759205780955
1729874923630371300,2.318371337890625,0.21103467047214508,-0.011248023249208927,-0.15988101065158844,0.9177062511444092,0.3895600736141205,0.07783415168523788,0.08835148811340332,0.08163124322891235,0.06536971777677536,0.35441799895787424,-0.7261178876304681,0.10802725754097922,0.5791983909540483
1729874923640402400,2.32840234375,0.03238130360841751,-0.11479971557855606,-0.1268698126077652,0.9172105193138123,0.3909301161766052,0.07680217176675797,0.08825218677520752,0.023162841796875,0.12977135181427002,0.35529764368751837,-0.7258007184453729,0.10777014483121322,0.579104957342626
1729874923650432300,2.338432373046875,-0.08566071093082428,-0.22684933245182037,-0.1096937507390976,0.9168872237205505,0.3919626772403717,0.0753859356045723,0.09161186218261719,-0.029749631881713867,0.13950371742248535,0.35558560413435597,-0.7254362564850027,0.10693551621259408,0.5795393901548295
1729874923660462300,2.34846240234375,-0.04408371075987816,-0.31042441725730896,-0.10733526200056076,0.9166848063468933,0.3928537964820862,0.0731784999370575,0.08365106582641602,-0.03808695077896118,0.07239044457674026,0.3557601981151787,-0.7248329295259929,0.10586063984957277,0.5803839328574134
1729874923670493400,2.358493408203125,0.07850965112447739,-0.2548719644546509,-0.12056850641965866,0.91646808385849,0.39385658502578735,0.07045137882232666,0.052907586097717285,-0.01850569248199463,-0.01190328598022461,0.3562820245558597,-0.7240179706215476,0.10499365752883712,0.5812379065819241
1729874923680523500,2.3685234375,0.24463896453380585,-0.055521853268146515,-0.09762164205312729,0.9161527156829834,0.39495617151260376,0.0683669000864029,-0.007934272289276123,0.03550943732261658,-0.07512640953063965,0.35724518250859943,-0.7233303078190697,0.10476981446053822,0.5815432286120505
1729874923690554400,2.378554443359375,0.3829859793186188,0.10936020314693451,-0.038026224821805954,0.9158626198768616,0.3957933783531189,0.06740321218967438,-0.05938678979873657,0.09807252883911133,-0.09975171834230423,0.35859897493651555,-0.7228857417528133,0.1055358288975598,0.5811240082058207
1729874923700584400,2.38858447265625,0.373596727848053,0.13551829755306244,0.006696239113807678,0.9157371520996094,0.396136999130249,0.06708720326423645,-0.054683804512023926,0.12505733966827393,-0.08109475672245026,0.3599465366392106,-0.7225823311062792,0.10685680439981557,0.5804263878573667
1729874923710615300,2.398615234375,0.293829083442688,0.07760525494813919,0.03124925121665001,0.9157602190971375,0.39613765478134155,0.0667688250541687,-0.009281337261199951,0.1243090033531189,-0.04114926606416702,0.36103523399339543,-0.7222833063242059,0.10812602399554191,0.5798871417810078
1729874923720645400,2.408645263671875,0.20562519133090973,-0.018164943903684616,0.05752959102392197,0.9159203171730042,0.39588260650634766,0.06608284264802933,0.03447335958480835,0.08995714783668518,0.0014679357409477234,0.3617840816980727,-0.721903277184075,0.10907373918222046,0.5797161745225935
1729874923730675200,2.41867529296875,0.11398342251777649,-0.19215624034404755,0.07606066763401031,0.9162776470184326,0.3953145146369934,0.06451208144426346,0.05943042039871216,0.021937042474746704,0.09837555885314941,0.3621927316581691,-0.7212789243092629,0.109602701726694,0.5801382829424521
1729874923740706300,2.428706298828125,0.056541964411735535,-0.273023396730423,0.07354903966188431,0.9167329668998718,0.3946681022644043,0.06195260211825371,0.0638275146484375,-0.04139658808708191,0.15945255756378174,0.3624101872967622,-0.720378706036092,0.10968509732155103,0.5811047336465259
1729874923750736100,2.438736083984375,0.06473185122013092,-0.14535197615623474,0.13227388262748718,0.9172782301902771,0.39373302459716797,0.05979213863611221,0.031482815742492676,-0.052485495805740356,0.12418317794799805,0.36239154271957236,-0.7196096142147693,0.10980925470167861,0.5820449866448044
1729874923760767200,2.448767333984375,0.2061515748500824,-0.09262405335903168,0.15879736840724945,0.9179598093032837,0.3923717141151428,0.058260612189769745,0.002908170223236084,-0.024573862552642822,0.06895196437835693,0.36249369801998804,-0.7189582321357989,0.11058647050311722,0.5826388611504475
1729874923770797300,2.45879736328125,0.18502384424209595,-0.05980543792247772,0.11671461910009384,0.9185506105422974,0.3912080228328705,0.05675486475229263,-0.007310986518859863,-0.03277909755706787,0.05020928010344505,0.36286059420466216,-0.7182870466745107,0.11153990763906886,0.5830564302955524
1729874923780828200,2.468828125,0.20014047622680664,-0.0796142965555191,0.14209401607513428,0.9191004037857056,0.39009958505630493,0.05546792224049568,-0.013903319835662842,0.0021122395992279053,0.03997587412595749,0.3631690505960841,-0.7176993296433019,0.11243501767502032,0.5834160239922555
1729874923790858200,2.478858154296875,0.25668099522590637,-0.130092591047287,0.14927469193935394,0.9197672605514526,0.38879120349884033,0.05357123166322708,0.01976233720779419,0.040789514780044556,0.03190863877534866,0.3636078803875183,-0.7168741781235105,0.11347699706841163,0.5839553185735948
1729874923800888300,2.488888427734375,0.2136102169752121,-0.1116374284029007,0.14570260047912598,0.9204106330871582,0.3875405788421631,0.0515417642891407,0.0571436882019043,0.04777735471725464,0.007128354161977768,0.36408744813979316,-0.7160058736919171,0.1144834992465069,0.5845249897595756
1729874923810919200,2.498919189453125,0.23967677354812622,-0.14148665964603424,0.17867998778820038,0.9211177825927734,0.3861146569252014,0.049575403332710266,0.06243330240249634,0.0794462263584137,-0.010894298553466797,0.3644533901345553,-0.7151555107865901,0.11550020494659564,0.5851376921844984
1729874923820949200,2.50894921875,0.27179768681526184,-0.1350942701101303,0.18122704327106476,0.9219122529029846,0.3845047950744629,0.04726577550172806,0.07140445709228516,0.08447402715682983,-0.02982485294342041,0.3649040602989666,-0.714158490167209,0.11666421051277674,0.5858431658290575
1729874923830980400,2.51898046875,0.27352774143218994,-0.15938545763492584,0.1621316373348236,0.9226595163345337,0.3829953968524933,0.04487886279821396,0.053506314754486084,0.05476394295692444,-0.027010679244995117,0.3654603891217917,-0.7131271257064123,0.11785216836601832,0.5865145869400987
1729874923841010400,2.529010498046875,0.1933005452156067,-0.12354196608066559,0.1527288258075714,0.9233295321464539,0.38163691759109497,0.04261374846100807,0.021281123161315918,0.019135117530822754,0.017795920372009277,0.36590881792718694,-0.7121717094357756,0.11882057841110043,0.5872000587298741
1729874923851040300,2.539040283203125,0.2512464225292206,-0.06415187567472458,0.19052013754844666,0.9240471720695496,0.38008055090904236,0.04093552008271217,0.01124030351638794,0.012177109718322754,-0.008769869804382324,0.36621568328362325,-0.7113965801830746,0.11992775013230385,0.58772305737475
1729874923861071400,2.5490712890625,0.2694728374481201,-0.04971648007631302,0.1614927500486374,0.9247714281082153,0.3784717619419098,0.039457861334085464,0.009051203727722168,-0.0036549270153045654,0.008912559598684311,0.36665936240633057,-0.7106455521293153,0.12129233161968682,0.5880748162510866
1729874923871101400,2.559101318359375,0.2208755761384964,-0.13230495154857635,0.13594983518123627,0.9253783226013184,0.3771594762802124,0.03775697946548462,0.007055699825286865,-0.019859790802001953,0.05202579125761986,0.3671304248646998,-0.7098575168584673,0.12239605695189079,0.5885038146430869
1729874923881132300,2.56913232421875,0.21987131237983704,-0.1780945360660553,0.17518752813339233,0.9260398149490356,0.3757546842098236,0.03547927737236023,0.01184171438217163,0.006142228841781616,0.06937921047210693,0.367512322596496,-0.7088984986606472,0.12329865228318906,0.5892326405200188
1729874923891162400,2.579162353515625,0.26742368936538696,-0.15562671422958374,0.16407255828380585,0.926780104637146,0.37414857745170593,0.033038534224033356,0.035088181495666504,0.027615278959274292,0.02161860093474388,0.3679499072771134,-0.7078494577752517,0.1243720690923851,0.5899946147214138
1729874923901193500,2.589193359375,0.26386091113090515,-0.22260254621505737,0.09638910740613937,0.927353024482727,0.37295854091644287,0.030306633561849594,0.027862489223480225,0.011746019124984741,0.024319887161254883,0.3686224898592891,-0.7067160172641971,0.1253227330329262,0.5907319350572054
1729874923911223300,2.599223388671875,0.22133570909500122,-0.28780505061149597,0.0811704695224762,0.9277592897415161,0.3722001314163208,0.02701782062649727,-0.0004978775978088379,-0.0064775049686431885,0.04573619365692139,0.36937123269326566,-0.705453467175499,0.12587420675181982,0.5916553833260284
1729874923921253400,2.60925341796875,0.17650379240512848,-0.29611653089523315,0.11048175394535065,0.9282122850418091,0.371304452419281,0.023561252281069756,0.006174981594085693,-0.0036897361278533936,-0.0009933710098266602,0.3699449641594825,-0.7041567029315621,0.12626941128904007,0.592756422901172
1729874923931284500,2.619284423828125,0.1320296674966812,-0.22235168516635895,0.09981446713209152,0.9286853075027466,0.37029850482940674,0.02055409364402294,0.013483822345733643,0.006196796894073486,-0.0415043830871582,0.37031124662509124,-0.7030244948692087,0.12662387908350184,0.5937949745797274
1729874923941314300,2.629314208984375,0.14757747948169708,-0.12161841243505478,0.11463628709316254,0.9291328191757202,0.3692830502986908,0.01849873550236225,-0.004907965660095215,0.01716095209121704,-0.06056714057922363,0.37055084593942184,-0.7022072963234615,0.12709949308551377,0.5945104669719072
1729874923951345200,2.63934521484375,0.21692192554473877,-0.06451774388551712,0.09519441425800323,0.9295738339424133,0.3682439625263214,0.01699163392186165,-0.020516276359558105,0.023037075996398926,-0.052208784967660904,0.3709301770267739,-0.7015233582420519,0.12790932115202994,0.5949074552135705
1729874923961375200,2.649375244140625,0.1861341893672943,-0.12078714370727539,0.10776825994253159,0.9299585819244385,0.36733922362327576,0.015460529364645481,-0.007763087749481201,-0.0034323930740356445,-0.014087200164794922,0.3714052865950911,-0.7008288622103354,0.12872128990644022,0.5952544908586846
1729874923971406300,2.65940625,0.12098180502653122,-0.2668117582798004,0.15373149514198303,0.9304909706115723,0.3660794496536255,0.013131528161466122,0.009328365325927734,-0.01767560839653015,0.09310030937194824,0.3716595989461897,-0.6998883529360066,0.1293137940068923,0.5960733136749126
1729874923981436200,2.669436279296875,0.01984853297472,-0.40912869572639465,0.18235355615615845,0.9311697483062744,0.3644566833972931,0.009706982411444187,0.06425261497497559,-0.037415117025375366,0.11189043521881104,0.37160461157154046,-0.6986284554439162,0.12950587733914132,0.597542076739265
1729874923991466200,2.67946630859375,0.029323261231184006,-0.44826599955558777,0.18297328054904938,0.9318955540657043,0.3626830577850342,0.005624753423035145,0.09412062168121338,-0.023114025592803955,0.07571995258331299,0.3713476329533425,-0.6971875851365819,0.1293902928484355,0.5994068448049112
1729874924001497300,2.689497314453125,0.13391384482383728,-0.4192548394203186,0.1454988718032837,0.9325321316719055,0.3610849380493164,0.0012529349187389016,0.08602261543273926,0.00045678019523620605,0.009977579116821289,0.37140400127491446,-0.6956113821487805,0.12942670691802405,0.601192665384022
1729874924011527400,2.69952734375,0.2519233226776123,-0.34416690468788147,0.1334504634141922,0.9330445528030396,0.359748899936676,-0.0029477612115442753,0.03506457805633545,0.015708833932876587,-0.017941415309906006,0.37186633500785893,-0.6940336999757474,0.12978190432432232,0.6026519599890189
1729874924021558300,2.709558349609375,0.38055452704429626,-0.27798575162887573,0.1335870772600174,0.9335336089134216,0.3584224581718445,-0.006974739022552967,0.00331038236618042,0.03479650616645813,-0.02602994441986084,0.3727424678631395,-0.6924187649284221,0.13064794072328847,0.6037802531110352
1729874924031588400,2.71958837890625,0.47644543647766113,-0.2518729865550995,0.1282634288072586,0.9340111613273621,0.35707661509513855,-0.010948345996439457,0.005243778228759766,0.04323774576187134,-0.04244208335876465,0.3739869595321938,-0.6907341860155267,0.13195495885877054,0.6046553797110413
1729874924041618400,2.729618408203125,0.5177614092826843,-0.26893532276153564,0.11329911649227142,0.934438943862915,0.35580167174339294,-0.015133283101022243,0.02044081687927246,0.04143029451370239,-0.04295682907104492,0.3755018536600342,-0.6889308336556017,0.13344536334250645,0.6054460943825082
1729874924051649300,2.739649169921875,0.47738584876060486,-0.31732726097106934,0.08810454607009888,0.934768795967102,0.3547155261039734,-0.01960228942334652,0.041015565395355225,0.030767232179641724,-0.055226683616638184,0.3770823423651684,-0.6870475464901865,0.13477582982392639,0.6063085549945847
1729874924061679400,2.749679443359375,0.4109080135822296,-0.4056965410709381,0.05645687133073807,0.9349743723869324,0.35386306047439575,-0.024576986208558083,0.0414508581161499,0.004504799842834473,-0.019261419773101807,0.3786309897327626,-0.6850446460715028,0.13573997168449728,0.6073937198832353
1729874924071710500,2.75971044921875,0.31169483065605164,-0.4103982448577881,-0.003540951758623123,0.9349752068519592,0.3534654378890991,-0.029728122055530548,0.030189037322998047,-0.060466229915618896,0.010425806045532227,0.3800493089693011,-0.683078558147428,0.13616028270528807,0.6086268783443524
1729874924081740300,2.769740234375,0.2662365436553955,-0.3584546148777008,-0.039842236787080765,0.934794008731842,0.3535303473472595,-0.034304700791835785,-0.0011848211288452148,-0.10488840937614441,0.030215438455343246,0.3813395119810938,-0.6813830479258933,0.13625267567769514,0.6096988582267312
1729874924091771400,2.779771484375,0.2227519154548645,-0.37246444821357727,-0.058974649757146835,0.9345003962516785,0.35386785864830017,-0.03855594992637634,-0.023626983165740967,-0.10769787430763245,0.040280286222696304,0.3825601519156929,-0.6798411826522587,0.1361542913726695,0.6106764593590567
1729874924101801500,2.789801513671875,0.24446412920951843,-0.42226237058639526,-0.05815865844488144,0.9341563582420349,0.35425689816474915,-0.04305706173181534,-0.016019761562347412,-0.06960424780845642,0.0374571718275547,0.3837597283095407,-0.6782314997271089,0.13591726232475987,0.6117654804012976
1729874924111831600,2.79983154296875,0.32528603076934814,-0.4354652464389801,-0.08445018529891968,0.933724582195282,0.35474973917007446,-0.04807651787996292,-0.0005884170532226562,-0.028226882219314575,0.006984643638134003,0.3852115801592595,-0.6764166095473476,0.13572881773170833,0.6129033046050609
1729874924121862400,2.8098623046875,0.3548135459423065,-0.4352463483810425,-0.13538046181201935,0.9331315159797668,0.3555487096309662,-0.05339265242218971,-0.01021885871887207,-0.030444979667663574,-0.005674004554748535,0.3870101010166409,-0.6744736060879611,0.13560615422989064,0.6139377435198013
1729874924131892500,2.819892578125,0.2818746268749237,-0.4404565393924713,-0.16101153194904327,0.9323664307594299,0.3567301630973816,-0.0586228147149086,-0.025750160217285156,-0.06041976809501648,-0.007615506649017334,0.3888453133387988,-0.672601711873102,0.13526097155675185,0.614907158536631
1729874924141923300,2.82992333984375,0.23020289838314056,-0.46023157238960266,-0.14377687871456146,0.9315654039382935,0.35795140266418457,-0.06369315832853317,-0.02256876230239868,-0.06939253211021423,0.009020991623401642,0.39044102146378845,-0.6708350197761328,0.13466179058251493,0.6159565170703801
1729874924151953200,2.839953125,0.22013428807258606,-0.48624134063720703,-0.13294607400894165,0.9307693243026733,0.35904961824417114,-0.06893470138311386,-0.00030356645584106445,-0.06785094738006592,0.02624070644378662,0.39193941029321,-0.6690141010521198,0.13398799734832298,0.617131216889011
1729874924161984300,2.849984375,0.18957877159118652,-0.47100672125816345,-0.13161183893680573,0.929961085319519,0.36010468006134033,-0.07414232939481735,0.0029765963554382324,-0.04673498868942261,0.0006560683250427246,0.39332746671916985,-0.6672173924913456,0.13322831883806346,0.6183564598672318
1729874924172014300,2.860014404296875,0.2129884958267212,-0.44226643443107605,-0.16295403242111206,0.929111659526825,0.36124205589294434,-0.07909335941076279,-0.006336390972137451,-0.0165766179561615,-0.025536052882671356,0.3947385215455894,-0.6655047530359,0.13250186416516677,0.6194579777203144
1729874924182044200,2.870044189453125,0.16714243590831757,-0.4422200918197632,-0.17838279902935028,0.9281240701675415,0.3626936674118042,-0.08389917761087418,-0.01921898126602173,-0.027580201625823975,-0.030022859573364258,0.39620052272693773,-0.6638683384180619,0.13164057509478191,0.6204633461879927
1729874924192075300,2.8800751953125,0.194698765873909,-0.4514210522174835,-0.1467026323080063,0.9271525740623474,0.3640322685241699,-0.08870512247085571,-0.03616136312484741,-0.029574960470199585,-0.005792498588562012,0.39758085527624976,-0.66222921876404,0.13076658864316038,0.6215159294834641
1729874924202105300,2.890105224609375,0.20937570929527283,-0.38776057958602905,-0.13197295367717743,0.9262795448303223,0.36508604884147644,-0.09337373077869415,-0.03347235918045044,-0.03706789016723633,-0.008387036621570587,0.39895726543133064,-0.6605910186160349,0.13012547654118028,0.622511137625533
1729874924212136200,2.90013623046875,0.24896322190761566,-0.36842215061187744,-0.13489870727062225,0.925443172454834,0.36609116196632385,-0.09763391315937042,-0.04028075933456421,-0.03311386704444885,-0.01966029405593872,0.4003434639857983,-0.6590721620539541,0.12964153751896576,0.6233315153463002
1729874924222166300,2.910166259765625,0.32282382249832153,-0.4126324951648712,-0.12627406418323517,0.924584686756134,0.3669932782649994,-0.10227070748806,-0.03911709785461426,-0.018757224082946777,-0.005547821521759033,0.4019373522440988,-0.6573716138958511,0.12933370722850782,0.62416491902444
1729874924232196400,2.9201962890625,0.34936171770095825,-0.4407185912132263,-0.10600234568119049,0.9237163066864014,0.3676885962486267,-0.10748755931854248,-0.02544647455215454,-0.014417082071304321,-0.015818610787391663,0.4036807235324364,-0.6554205452971491,0.12915157324845367,0.6251286385383258
1729874924242227200,2.930227294921875,0.39439284801483154,-0.3970012068748474,-0.08766568452119827,0.9229063391685486,0.3681609034538269,-0.11270132660865784,-0.02134072780609131,-0.011700361967086792,-0.023651123046875,0.4054541159576819,-0.6534294707532111,0.12914822977989715,0.6260652718509636
1729874924252257300,2.94025732421875,0.41963741183280945,-0.4046379327774048,-0.09656304121017456,0.9221318960189819,0.36846688389778137,-0.11791880428791046,-0.038724303245544434,-0.03597792983055115,-0.010010771453380585,0.40733888258918327,-0.6513872614440164,0.12936472708930075,0.6269245542500324
1729874924262288400,2.950288330078125,0.32154226303100586,-0.4250457286834717,-0.11726059019565582,0.9212378859519958,0.36900442838668823,-0.12311161309480667,-0.05487436056137085,-0.08056756854057312,0.012454994022846222,0.40916246467441625,-0.6493945368549916,0.12934809326729962,0.627807176963645
1729874924272318700,2.960318603515625,0.21379809081554413,-0.44954872131347656,-0.07788362354040146,0.920318603515625,0.3695790767669678,-0.1281607747077942,-0.061996281147003174,-0.08021140098571777,0.04673992097377777,0.4106135760246424,-0.6475268959981442,0.1289516753590339,0.6288696301194563
1729874924282349600,2.970349609375,0.25277239084243774,-0.44340693950653076,-0.025757309049367905,0.9195738434791565,0.3697039484977722,-0.13305258750915527,-0.044467031955718994,-0.04768252372741699,0.06020720303058624,0.4117679904175397,-0.645704656139932,0.12860482542914048,0.630058292502514
1729874924292379600,2.980379638671875,0.3308132588863373,-0.4591214954853058,-0.004850428085774183,0.918899416923523,0.36946162581443787,-0.1382824182510376,-0.028930485248565674,-0.033753037452697754,0.03339356184005737,0.4130401300669569,-0.6436919243957849,0.12852818970324925,0.6312995324150424
1729874924302409700,2.99040966796875,0.28578904271125793,-0.4755209982395172,-0.04520504176616669,0.9181682467460632,0.3691830337047577,-0.14377397298812866,-0.03305160999298096,-0.030300647020339966,0.0012417435646057129,0.4143974961246037,-0.6415659840547091,0.1284760601432953,0.6325833508084858
1729874924312440600,3.000440673828125,0.26272135972976685,-0.45160341262817383,-0.08337639272212982,0.9172509908676147,0.3693832457065582,-0.1490185558795929,-0.03510993719100952,-0.02665567398071289,0.008866682648658752,0.41577030757963174,-0.6395808353954872,0.12816816566537326,0.6337541170599451
1729874924322470700,3.010470703125,0.21451336145401,-0.48391714692115784,-0.07337329536676407,0.9162588715553284,0.3697138726711273,-0.1542125791311264,-0.058653831481933594,-0.05577957630157471,0.03647583723068237,0.41709779240315376,-0.6376353554024627,0.12772966115063356,0.6349297653448607
1729874924332501800,3.020501708984375,0.10162109136581421,-0.46954092383384705,-0.05215243250131607,0.9152829051017761,0.37001219391822815,-0.1592116504907608,-0.04487574100494385,-0.08452031016349792,0.01779329776763916,0.4180964374126813,-0.6358116035188481,0.1270345576407088,0.6362399817107482
1729874924342531600,3.030531494140625,0.09933663159608841,-0.44506487250328064,-0.02861141785979271,0.914410412311554,0.3702012300491333,-0.16372202336788177,-0.03892195224761963,-0.0634690523147583,0.00515274703502655,0.4188001785479543,-0.6341899118814958,0.1262622127106449,0.6375481165089333
1729874924352562700,3.040562744140625,0.1302998811006546,-0.3996413052082062,-0.02553919330239296,0.9136150479316711,0.37023743987083435,-0.16802380979061127,-0.04685473442077637,-0.04792603850364685,0.006479084491729736,0.4195122145000062,-0.6326111249505487,0.1256632659793688,0.6387656422515169
1729874924362592800,3.0505927734375,0.12810756266117096,-0.3869428336620331,-0.016552891582250595,0.912887454032898,0.370166152715683,-0.17208629846572876,-0.049728214740753174,-0.03717362880706787,0.007581353187561035,0.42022331488117665,-0.6310945766341315,0.1252057832097007,0.6398871890371673
1729874924372622800,3.060622802734375,0.12015656381845474,-0.3593558967113495,-0.023782841861248016,0.9121705889701843,0.37012213468551636,-0.17593932151794434,-0.046295166015625,-0.01645389199256897,0.06207828223705292,0.4209173494536856,-0.629652570166087,0.12477170502907246,0.6409355745972762
1729874924382653700,3.07065380859375,0.09976659715175629,-0.4220046103000641,-0.022141534835100174,0.9113993644714355,0.3701322376728058,-0.1798703819513321,-0.03412574529647827,-0.016097843647003174,0.08898913860321045,0.421574557327394,-0.6281956375864409,0.12423788434314938,0.6420359177493021
1729874924392683800,3.080683837890625,0.08273176103830338,-0.5136424899101257,-0.04947328940033913,0.9104333519935608,0.37023085355758667,-0.18450042605400085,-0.0020012259483337402,-0.025000810623168945,0.08672219514846802,0.4222445636538797,-0.6265071826260025,0.12344448105918199,0.6433970997180781
1729874924402714600,3.090714599609375,0.03844844549894333,-0.4988688826560974,-0.10204329341650009,0.9091910123825073,0.37079256772994995,-0.18943235278129578,0.01800936460494995,-0.05353188514709473,0.04650336503982544,0.4230023320586496,-0.6247562372122619,0.1223252609650462,0.644814108843815
1729874924412744700,3.10074462890625,-0.013608360663056374,-0.4465467035770416,-0.11384322494268417,0.9078800082206726,0.3717590272426605,-0.19377601146697998,-0.007001101970672607,-0.07457894086837769,0.03703780472278595,0.4236706983218946,-0.6232715983101997,0.12101449123104507,0.6460581768820672
1729874924422775800,3.11077587890625,-0.05113576352596283,-0.4083300828933716,-0.1175125315785408,0.9066215753555298,0.3728414475917816,-0.19755135476589203,-0.018468499183654785,-0.06093662977218628,0.023677542805671692,0.42419978754123944,-0.6220179277842204,0.11965793992703548,0.6471709438612037
1729874924432806000,3.120805908203125,-0.08298104256391525,-0.3846604824066162,-0.13074123859405518,0.9053853154182434,0.3740672767162323,-0.20087605714797974,-0.016545534133911133,-0.030988693237304688,-0.009801983833312988,0.42461269585875927,-0.6209547318474813,0.1182251649152236,0.6481837107113826
1729874924442835700,3.130835693359375,-0.05779499560594559,-0.3909130394458771,-0.13907267153263092,0.9041187167167664,0.3753946125507355,-0.20407885313034058,-0.025578677654266357,-0.016950488090515137,0.009666696190834045,0.4250336917070785,-0.6199403950914925,0.11676676666432112,0.6491423235605488
1729874924452866800,3.14086669921875,-0.06434657424688339,-0.39848312735557556,-0.15639041364192963,0.902757465839386,0.3768500089645386,-0.20739613473415375,-0.01863265037536621,-0.04977789521217346,0.028639495372772217,0.42555705444267916,-0.6188792499391748,0.1152840381836686,0.6500764042169637
1729874924462896600,3.150896728515625,-0.078695148229599,-0.43272313475608826,-0.17320534586906433,0.9012707471847534,0.3784630298614502,-0.21089574694633484,-0.010264098644256592,-0.07885664701461792,0.047794610261917114,0.42610501447994276,-0.6177645837800488,0.1136619874385853,0.6510626327790143
1729874924472927700,3.160927734375,-0.13628900051116943,-0.43295425176620483,-0.1634025126695633,0.8996882438659668,0.3802404999732971,-0.21442554891109467,-0.010878980159759521,-0.0711279809474945,0.06855159997940063,0.42656961455149883,-0.6166679013125761,0.1118388248688103,0.6521128910326953
1729874924482957600,3.17095751953125,-0.0507940798997879,-0.40358731150627136,-0.14087510108947754,0.8982301354408264,0.3817654848098755,-0.21780236065387726,-0.01289987564086914,-0.025655895471572876,0.058592259883880615,0.42696511278149957,-0.6155986468017812,0.11016863517592747,0.653147803408692
1729874924492987600,3.180987548828125,0.04252714663743973,-0.35404425859451294,-0.17900650203227997,0.8967925310134888,0.3831695318222046,-0.22123406827449799,-0.004717826843261719,0.0039916932582855225,0.024884015321731567,0.4277006294380322,-0.6144323459679546,0.10888462250932954,0.6539796628295456
1729874924503018500,3.1910185546875,0.0644145980477333,-0.33562368154525757,-0.20398110151290894,0.8952915668487549,0.3847711384296417,-0.22450874745845795,-0.020901918411254883,0.011606365442276001,-0.00339643657207489,0.42868293759541676,-0.6133005149383864,0.10774092638672267,0.654587876417218
1729874924513048600,3.201048583984375,0.021957488730549812,-0.3565409779548645,-0.21709343791007996,0.89370197057724,0.3865232765674591,-0.22780834138393402,-0.026911139488220215,0.011288613080978394,0.02215045690536499,0.429711849874833,-0.6121665223893077,0.10652689491474031,0.6551732361274148
1729874924523079700,3.21107958984375,-0.09884056448936462,-0.36017805337905884,-0.22897326946258545,0.8920177817344666,0.3885861337184906,-0.23087896406650543,-0.019077718257904053,-0.024786144495010376,0.04113598167896271,0.4305135276830919,-0.6111836774778144,0.10495252284872106,0.6558182478277712
1729874924533109800,3.22110986328125,-0.2203870415687561,-0.3106835186481476,-0.25658997893333435,0.8902857899665833,0.3911198377609253,-0.2332732081413269,-0.018642723560333252,-0.06330007314682007,0.055813565850257874,0.4309770024000974,-0.6105465130365157,0.10293857642055591,0.6564262333372398
1729874924543140600,3.231140625,-0.23509648442268372,-0.27715858817100525,-0.30491331219673157,0.8885174989700317,0.39414122700691223,-0.23492462933063507,-0.013883531093597412,-0.08547115325927734,0.04063454270362854,0.43133880419774634,-0.6102413801322566,0.10071317350639868,0.6568175499612154
1729874924553170700,3.241170654296875,-0.3229619562625885,-0.3050048053264618,-0.3253410756587982,0.8865871429443359,0.397616982460022,-0.23635567724704742,0.003198683261871338,-0.08768051862716675,0.04008197784423828,0.43168244609458,-0.6100613759978232,0.09822055678783685,0.657136299373439
1729874924563200800,3.25120068359375,-0.3201691210269928,-0.3677794933319092,-0.2925972640514374,0.8845574259757996,0.4011416733264923,-0.2379991114139557,0.031977057456970215,-0.055133432149887085,0.05353569984436035,0.43183217933734236,-0.60982797479461,0.09544783353458389,0.6576629511656861
1729874924573231600,3.261231689453125,-0.21766194701194763,-0.4214072823524475,-0.30223575234413147,0.8824232220649719,0.40437862277030945,-0.24043099582195282,0.0627061128616333,-0.0359552800655365,0.04112079739570618,0.43219462875722975,-0.6092339639435377,0.09283577860658829,0.6583488694875826
1729874924583261700,3.27126171875,-0.26381799578666687,-0.4518703818321228,-0.28996098041534424,0.880151629447937,0.4075799882411957,-0.24333469569683075,0.041784465312957764,-0.036364197731018066,0.03224468231201172,0.4326428354147396,-0.6084398258016639,0.09018665501138674,0.6591567396914993
1729874924593292800,3.281292724609375,-0.15417033433914185,-0.39774081110954285,-0.2586459517478943,0.8779932856559753,0.4104858338832855,-0.2462298721075058,0.008542358875274658,-0.0013214945793151855,0.05464060604572296,0.4330473314752608,-0.6076129095655507,0.08770186212394498,0.6599885782434214
1729874924603322600,3.291322509765625,-0.021958768367767334,-0.29280588030815125,-0.2834034860134125,0.8760372400283813,0.4130246341228485,-0.24893628060817719,-0.005111336708068848,0.020889490842819214,-0.029689118266105652,0.43382577243241327,-0.6067606813574722,0.08586813789851973,0.6605022611624097
1729874924613353700,3.301353759765625,0.0485413633286953,-0.21274049580097198,-0.3239317536354065,0.8741611242294312,0.41565200686454773,-0.25114893913269043,-0.03532439470291138,0.00913742184638977,-0.0666915774345398,0.43498113013003925,-0.6060462157182589,0.08446013095595314,0.6605799614388193
1729874924623383800,3.3113837890625,0.060324255377054214,-0.2561212480068207,-0.3211343586444855,0.8722276091575623,0.41833415627479553,-0.25340786576271057,-0.039006173610687256,-0.00764387845993042,0.009297877550125122,0.43633301377150396,-0.6052914728331593,0.08317634438369753,0.6605432974553692
1729874924633414000,3.321413818359375,-0.004517727065831423,-0.33073946833610535,-0.2868725061416626,0.8702239990234375,0.4208759367465973,-0.2560734152793884,0.011932373046875,-0.023354053497314453,0.05906727910041809,0.43756012870522504,-0.6043839985899302,0.08175129001838202,0.6607403543137899
1729874924643444700,3.33144482421875,-0.05310230702161789,-0.3769306540489197,-0.29866740107536316,0.8680980801582336,0.4234520196914673,-0.25902506709098816,0.06389343738555908,-0.021245688199996948,0.05927237868309021,0.43855272007135054,-0.6033967328328435,0.0799990268521938,0.6611988748532094
1729874924653474800,3.341474853515625,-0.1312691569328308,-0.4193798005580902,-0.3626897931098938,0.8656524419784546,0.42652609944343567,-0.26214805245399475,0.06345540285110474,-0.04452228546142578,0.057649821043014526,0.4395535354584072,-0.6023826972816562,0.07785283999734363,0.6617151172943582
1729874924663506000,3.351505859375,-0.2740265429019928,-0.3823794424533844,-0.35592615604400635,0.8630168437957764,0.4302268922328949,-0.26477721333503723,0.01656097173690796,-0.0719963014125824,0.05847844481468201,0.4402888547829948,-0.6016319574151119,0.07516905283281505,0.6622193551414016
1729874924673535500,3.361535400390625,-0.23052261769771576,-0.3409474194049835,-0.2879641652107239,0.8606870770454407,0.43369367718696594,-0.2666977345943451,-0.0162503719329834,-0.03200611472129822,0.040150582790374756,0.44066338335918526,-0.601158323700427,0.07252449896429414,0.6626950698043861
1729874924683565600,3.371565673828125,-0.03756595775485039,-0.332358717918396,-0.3000865876674652,0.8585278987884521,0.4365195631980896,-0.26903659105300903,-0.022025763988494873,-0.0018729865550994873,-0.015493988990783691,0.4413477785678572,-0.6004282273063473,0.07048158951181925,0.6631217984143752
1729874924693596700,3.3815966796875,0.016720782965421677,-0.29058465361595154,-0.33558839559555054,0.8562787771224976,0.4392589330673218,-0.271731972694397,-0.03857553005218506,-0.017994344234466553,-0.053829461336135864,0.4425304720498943,-0.5994955737608297,0.06884089959318165,0.6633496828378341
1729874924703626800,3.391626708984375,-0.05138290300965309,-0.2920078635215759,-0.28913673758506775,0.8541037440299988,0.4420015513896942,-0.27411937713623047,-0.064400315284729,-0.00796535611152649,0.011103689670562744,0.4436379383268965,-0.5986838860284179,0.06721547011130329,0.6635096628891319
1729874924713657600,3.40165771484375,-0.12395916879177094,-0.355928510427475,-0.2223673015832901,0.8520931601524353,0.44441208243370056,-0.2764688730239868,-0.0334591269493103,0.01849377155303955,0.07840988039970398,0.444306786016547,-0.5978996062349294,0.06543414330122929,0.6639471542699021
1729874924723687700,3.411687744140625,-0.13017180562019348,-0.40900981426239014,-0.24073724448680878,0.8500272035598755,0.4466724097728729,-0.2791731357574463,0.019723832607269287,-0.0073719024658203125,0.052030861377716064,0.44478935332058056,-0.5969785086758325,0.06348300009128525,0.6646420970962872
1729874924733718500,3.421718505859375,-0.20042777061462402,-0.4171734154224396,-0.30770376324653625,0.8476241827011108,0.44945797324180603,-0.2819948196411133,0.022340595722198486,-0.09041866660118103,0.03022482991218567,0.44537021499932306,-0.5960331043693415,0.06121378684963085,0.6653142008590114
1729874924743748600,3.43174853515625,-0.3216862976551056,-0.4119562804698944,-0.286427766084671,0.8450886011123657,0.45276084542274475,-0.28431135416030884,-0.022441446781158447,-0.11216947436332703,0.0427495539188385,0.4457175149101008,-0.5953319185573762,0.05851692904691755,0.6659516482714878
1729874924753778700,3.44177880859375,-0.3154114782810211,-0.39636364579200745,-0.2291887253522873,0.8427684903144836,0.4558643102645874,-0.28623226284980774,-0.04415404796600342,-0.052757710218429565,0.06682619452476501,0.44568365267465715,-0.5947921437546887,0.05573310801656395,0.6666949557833073
1729874924763809800,3.451809814453125,-0.15800641477108002,-0.3839932680130005,-0.23663091659545898,0.8405970335006714,0.4584612250328064,-0.28846096992492676,-0.03696244955062866,-0.009929239749908447,0.02088293433189392,0.44583952155046275,-0.5940704705522363,0.05338340876045033,0.667426033011336
1729874924773839600,3.461839599609375,-0.07758887112140656,-0.38292038440704346,-0.2723119556903839,0.8383051753044128,0.4609143137931824,-0.29120832681655884,-0.04886120557785034,-0.015830785036087036,-0.038472980260849,0.44646735157199025,-0.5930883627179668,0.05140063237076567,0.6680351544927909
1729874924783870700,3.47187060546875,-0.039441488683223724,-0.3027113080024719,-0.2537177801132202,0.8360617160797119,0.46331825852394104,-0.29383164644241333,-0.06910914182662964,-0.022354573011398315,-0.017981648445129395,0.4472571139570682,-0.5921327009927301,0.049629016274148174,0.6684885553306527
1729874924793900800,3.48190087890625,0.05000337213277817,-0.27850061655044556,-0.21820424497127533,0.834138035774231,0.4652363955974579,-0.29625794291496277,-0.06379801034927368,-0.02453210949897766,0.02381235361099243,0.4481373301757905,-0.5912145965743766,0.04833555631375499,0.6688063274015346
1729874924803931600,3.491931640625,-0.060321006923913956,-0.2899324893951416,-0.18915075063705444,0.8323370218276978,0.46692898869514465,-0.2986507713794708,-0.050629258155822754,-0.030436158180236816,0.0513668954372406,0.44888745350702147,-0.5903023212051214,0.04709342819575675,0.6691975397972595
1729874924813961700,3.501961669921875,-0.08685727417469025,-0.3105141520500183,-0.1746210753917694,0.8305931091308594,0.46866297721862793,-0.3007826507091522,-0.0294608473777771,-0.022908002138137817,0.046556055545806885,0.4493247647343863,-0.5895145834697365,0.045620427703543465,0.6697004348170423
1729874924823991800,3.51199169921875,-0.1467653512954712,-0.3307797610759735,-0.1783449798822403,0.8287913203239441,0.47046545147895813,-0.30293145775794983,-0.016504764556884766,-0.04915499687194824,0.048582762479782104,0.44965545606958385,-0.5887261008550418,0.04399825946904184,0.6702804602460778
1729874924834022700,3.522022705078125,-0.18326205015182495,-0.3555556535720825,-0.15325294435024261,0.8269602060317993,0.4723880887031555,-0.30493640899658203,-0.024744629859924316,-0.06784713268280029,0.022343724966049194,0.4497821668998635,-0.5880093064902022,0.042152704451659695,0.6709427413662453
1729874924844052700,3.532052734375,-0.08486436307430267,-0.33952662348747253,-0.09690738469362259,0.8252809643745422,0.47386273741722107,-0.30718979239463806,-0.04972243309020996,-0.04620468616485596,0.059768617153167725,0.4498631812755323,-0.5871659834322905,0.04051192776734459,0.6717277005166533
1729874924854083800,3.542083740234375,0.026330268010497093,-0.2850598990917206,-0.07628120481967926,0.8239335417747498,0.47460004687309265,-0.30965861678123474,-0.06663978099822998,-0.03221726417541504,0.031979262828826904,0.45014242713186,-0.5861825876442074,0.03950519923282241,0.6724590919350635
1729874924864114000,3.552114013671875,0.06007518246769905,-0.220506489276886,-0.08448773622512817,0.822771430015564,0.47510406374931335,-0.3119669258594513,-0.08119422197341919,-0.029867887496948242,0.000779271125793457,0.4505872479124912,-0.5852408397774788,0.038854810063504275,0.673019046244098
1729874924874143500,3.5621435546875,0.045715950429439545,-0.17898403108119965,-0.07884928584098816,0.8217639327049255,0.47560545802116394,-0.31385284662246704,-0.08433699607849121,-0.02780577540397644,0.015589326620101929,0.45107068370855674,-0.5844671710573616,0.03836269940059365,0.6733957170040954
1729874924884174600,3.572174560546875,0.033740248531103134,-0.1904396116733551,-0.045848727226257324,0.8208789229393005,0.47601810097694397,-0.31553876399993896,-0.06466853618621826,-0.029439151287078857,0.02958911657333374,0.45142839974507987,-0.5837769651366818,0.03788236533368754,0.6737817702870229
1729874924894204700,3.58220458984375,0.08060874789953232,-0.2004254162311554,-0.024556756019592285,0.820097804069519,0.4761006534099579,-0.31743931770324707,-0.03761178255081177,-0.030223608016967773,0.031001389026641846,0.45174366541717337,-0.5829849195870324,0.037535733340456866,0.6742753721970163
1729874924904235500,3.592235595703125,0.07652266323566437,-0.17354878783226013,-0.01663145422935486,0.8194202780723572,0.47595635056495667,-0.3193993866443634,-0.04140514135360718,-0.04123347997665405,0.026903778314590454,0.45209582762583755,-0.5821548523249853,0.037363479768870445,0.674765955905619
1729874924914265600,3.602265625,-0.03163949400186539,-0.1294822096824646,-0.023477643728256226,0.8188404440879822,0.47601720690727234,-0.3207927942276001,-0.0663684606552124,-0.04640603065490723,0.03319519758224487,0.4522853551338939,-0.5815748412878823,0.03707174462807603,0.67515511534513
1729874924924296700,3.612296630859375,-0.08004298061132431,-0.12996263802051544,-0.03004872426390648,0.8183224201202393,0.47643399238586426,-0.32149532437324524,-0.07593649625778198,-0.044305115938186646,0.04271727800369263,0.4522055802030727,-0.581308988307998,0.03649936233414221,0.6754686477807804
1729874924934326500,3.622326416015625,-0.07868769764900208,-0.18526194989681244,-0.016539573669433594,0.817718505859375,0.47685080766677856,-0.32241275906562805,-0.06340008974075317,-0.07098224759101868,0.07396921515464783,0.4520816164563039,-0.5809562308098285,0.03582563325161257,0.6758910753418216
1729874924944356600,3.632356689453125,-0.19997870922088623,-0.18524916470050812,-0.005044838879257441,0.8170485496520996,0.4773807227611542,-0.3233258128166199,-0.036210477352142334,-0.10624119639396667,0.06287360191345215,0.45176279321349233,-0.5806192204214996,0.03490588880097151,0.6764417890740531
1729874924954387700,3.6423876953125,-0.1882372349500656,-0.17880484461784363,0.01154878456145525,0.8164880275726318,0.47801119089126587,-0.32380956411361694,-0.02579277753829956,-0.08245763182640076,0.055132895708084106,0.4511742244603609,-0.5804757279748947,0.03381041822527273,0.6770130008887636
1729874924964417800,3.652417724609375,-0.11722057312726974,-0.14462131261825562,0.01977023109793663,0.8160232305526733,0.47838887572288513,-0.3244229555130005,-0.032453835010528564,-0.05326375365257263,0.048391520977020264,0.450711425188087,-0.5802601277157401,0.03296511998901909,0.6775476096148423
1729874924974448600,3.66244873046875,-0.047350410372018814,-0.0693240538239479,0.028683029115200043,0.8158114552497864,0.4784542918205261,-0.32485899329185486,-0.04792797565460205,-0.030852943658828735,-0.022308915853500366,0.45038895996801986,-0.5800976626687631,0.03251467644015624,0.677922867877574
1729874924984478700,3.672478759765625,0.011060699820518494,-0.009193340316414833,0.03151130676269531,0.815872073173523,0.4782215356826782,-0.3250492513179779,-0.06773358583450317,0.00839647650718689,-0.03231149911880493,0.45022443696077125,-0.580017401325046,0.0324836498013712,0.6781022593563791
1729874924994508800,3.6825087890625,0.014359092339873314,-0.017422987148165703,0.043803658336400986,0.8160600662231445,0.4778014123439789,-0.3251951336860657,-0.08008283376693726,0.027661174535751343,-0.006134152412414551,0.450144265077615,-0.579943999584685,0.03267097013413572,0.6782092491871238
1729874925004539600,3.69253955078125,-0.06108826398849487,-0.030542250722646713,0.05531863868236542,0.8162224888801575,0.47749245166778564,-0.32524147629737854,-0.07194435596466064,0.015442758798599243,0.037186115980148315,0.44989156642311035,-0.5799245850402406,0.03266089072447589,0.6783940640483441
1729874925014569700,3.70256982421875,-0.05309171974658966,-0.016655730083584785,0.06417178362607956,0.8165283203125,0.47713345289230347,-0.32500043511390686,-0.044067323207855225,-0.030157774686813354,0.05070853233337402,0.44947273942616034,-0.5800303153573676,0.03262843434678719,0.6785827742821716
1729874925024600800,3.712600830078125,-0.03926219046115875,-0.04029261693358421,0.07362227141857147,0.8169286251068115,0.4765101969242096,-0.32490888237953186,-0.015430152416229248,-0.0821010172367096,0.03645682334899902,0.4490346726595499,-0.580064426715863,0.03272343829042686,0.6788389929491562
1729874925034630700,3.722630615234375,-0.05846158787608147,-0.046551525592803955,0.07302652299404144,0.8172625303268433,0.4759090542793274,-0.3249504268169403,-0.008165061473846436,-0.076372891664505,0.031127184629440308,0.44859704248491483,-0.5800442206483202,0.03276419573163604,0.6791436482821527
1729874925044661800,3.732661865234375,-0.0035235024988651276,0.014803711324930191,0.07591738551855087,0.8176438212394714,0.4753730893135071,-0.32477572560310364,-0.02639913558959961,-0.009812146425247192,0.026985257863998413,0.44817411177424854,-0.5801155478290118,0.03283425109965887,0.6793585296234049
1729874925054691800,3.74269189453125,0.09767302870750427,0.002777408342808485,0.05748671293258667,0.8179599642753601,0.4746197462081909,-0.3250810205936432,-0.03820526599884033,0.037648290395736694,0.020744502544403076,0.44812291828894857,-0.5799610905396139,0.03323595156302077,0.6795045178499108
1729874925064721700,3.7527216796875,0.11375745385885239,-0.04514484107494354,0.05758444964885712,0.8179989457130432,0.473931223154068,-0.32598623633384705,-0.029348373413085938,0.01647093892097473,0.02413696050643921,0.44832767837120174,-0.5795477320858667,0.03363483532341567,0.6797025013282963
1729874925074752800,3.762752685546875,0.09832596778869629,-0.03927278518676758,0.06146042048931122,0.817950427532196,0.47335511445999146,-0.32694360613822937,0.0014161467552185059,-0.01833808422088623,0.04464083909988403,0.44853441750716533,-0.5791168129419864,0.03393977120296541,0.6799181823282466
1729874925084782600,3.772782470703125,0.11847224831581116,-0.029686473309993744,0.047588277608156204,0.8179941773414612,0.47283297777175903,-0.32758909463882446,0.015944480895996094,-0.02735266089439392,0.02192509174346924,0.4487083797376582,-0.5788187016354462,0.03426900264297154,0.6800407249055858
1729874925094813700,3.782813720703125,0.11978298425674438,-0.011160030961036682,0.035081539303064346,0.818185567855835,0.47213518619537354,-0.3281170427799225,0.0017760396003723145,-0.00956505537033081,-0.0058672428131103516,0.44887849370762045,-0.5785617499985538,0.034753051026251154,0.6801225393727355
1729874925104843500,3.792843505859375,0.1504673957824707,0.011763127520680428,0.010906697250902653,0.8186180591583252,0.47107994556427,-0.3285544216632843,-0.018340349197387695,0.015171825885772705,-0.027280420064926147,0.4490207285742014,-0.5783278609772287,0.03549192069852712,0.6801893154441208
1729874925114874600,3.80287451171875,0.1179087832570076,0.008358755148947239,-0.010540803894400597,0.8189922571182251,0.47012051939964294,-0.32899603247642517,-0.022986948490142822,0.00972256064414978,-0.007139801979064941,0.4492591329627673,-0.5780903491457084,0.03624274740823192,0.6801942692166019
1729874925124904700,3.81290478515625,0.07657599449157715,-0.003747175447642803,-0.015758469700813293,0.8189617395401001,0.470070481300354,-0.32914331555366516,0.005562186241149902,-0.02227082848548889,0.010036379098892212,0.449561659370283,-0.578010963029979,0.03649199296489795,0.6800484691683952
1729874925134934800,3.822934814453125,0.052182771265506744,-0.026903735473752022,-0.013443384319543839,0.8185405731201172,0.47066786885261536,-0.3293372392654419,0.04190254211425781,-0.03997334837913513,0.05858537554740906,0.44995039738141746,-0.5779364266925201,0.03634378737343674,0.6798626482223683
1729874925144965600,3.832965576171875,0.045794643461704254,-0.0410190224647522,-0.01513342559337616,0.8181930780410767,0.4711006283760071,-0.3295818865299225,0.06690824031829834,-0.03691187500953674,0.03461429476737976,0.45019911536986185,-0.5778410099048524,0.03617775589697301,0.6797879423820804
1729874925154995700,3.84299560546875,0.09397874772548676,-0.007163106929510832,-0.014686280861496925,0.8183158040046692,0.47092702984809875,-0.32952553033828735,0.05915623903274536,0.0026294291019439697,-0.003527998924255371,0.45028767535273495,-0.5778519265315064,0.036392192674868325,0.6797086186832948
1729874925165026600,3.853026611328125,0.19201131165027618,0.044429514557123184,-0.0027478625997900963,0.8187424540519714,0.47011253237724304,-0.32962870597839355,0.02192533016204834,0.04076692461967468,-0.04625621438026428,0.45052772180550854,-0.5777596420475213,0.03714086661661855,0.679587503542766
1729874925175056600,3.863056640625,0.24254672229290009,0.08966773003339767,0.02048022672533989,0.8190380334854126,0.4692012071609497,-0.3301923871040344,-0.016212046146392822,0.06597021222114563,-0.07849892973899841,0.4511178489202249,-0.5774519344551138,0.038119135964652516,0.6794033561589029
1729874925185087700,3.873087646484375,0.27161404490470886,0.11279594898223877,0.03787839412689209,0.8192858099937439,0.4682932198047638,-0.3308660686016083,-0.036448776721954346,0.08886617422103882,-0.07875609397888184,0.45185715953218897,-0.5770886080998943,0.03918813404134685,0.6791599216717384
1729874925195117800,3.883117919921875,0.22004680335521698,0.12421111017465591,0.044277969747781754,0.8197383880615234,0.46731045842170715,-0.33113449811935425,-0.03352922201156616,0.07378146052360535,-0.05279183387756348,0.4524854618222767,-0.5768933122518303,0.04033439290805367,0.6788403657578714
1729874925205147600,3.893147705078125,0.13678893446922302,0.09355759620666504,0.04010958969593048,0.8204451203346252,0.46618378162384033,-0.330972284078598,-0.009531915187835693,0.02702602744102478,-0.028097450733184814,0.45278222447004984,-0.5768861539758505,0.04142738652325318,0.6785826974548395
1729874925215178800,3.9031787109375,0.023236270993947983,0.02641674503684044,0.0431613065302372,0.8213382363319397,0.4651940166950226,-0.33014869689941406,0.021954059600830078,-0.02194151282310486,0.0012455582618713379,0.45259385008112374,-0.5771864028085216,0.0422078432368344,0.6784049288530197
1729874925225208800,3.913208740234375,-0.009921680204570293,0.014285247772932053,0.04148377850651741,0.8220143914222717,0.46440234780311584,-0.32958003878593445,0.028342783451080322,-0.04417535662651062,0.04033452272415161,0.45221866405636946,-0.5774028442598913,0.04261382854762721,0.6784455896941597
1729874925235239700,3.92323974609375,0.03137582540512085,0.04512853920459747,0.02385125681757927,0.8223876953125,0.4639694392681122,-0.329257994890213,0.0019074082374572754,-0.05181428790092468,0.037159085273742676,0.45205306542960416,-0.5775231060380169,0.04287259965878047,0.6784372218404997
1729874925245269800,3.933269775390625,0.11107571423053741,0.1048232913017273,0.010076588951051235,0.8224968910217285,0.4638129472732544,-0.32920587062835693,-0.03560107946395874,-0.04457774758338928,0.012235105037689209,0.45228434166155657,-0.5775216631788569,0.04319489345272539,0.6782638801168386
1729874925255299800,3.9432998046875,0.21091195940971375,0.17174948751926422,0.013936041854321957,0.8225216865539551,0.46364837884902954,-0.32937565445899963,-0.0519222617149353,0.004399657249450684,-0.006378620862960815,0.4529248619049376,-0.5774021651619905,0.043805370336392285,0.6778988934848997
1729874925265330700,3.95333056640625,0.36352571845054626,0.13057009875774384,0.013434835709631443,0.8225619196891785,0.4631638526916504,-0.32995614409446716,-0.03446072340011597,0.06955093145370483,-0.030654698610305786,0.4539533767964242,-0.5770706842044323,0.04484816830169851,0.6774247983469724
1729874925275360800,3.96336083984375,0.4291205108165741,0.06532307714223862,-0.004260804504156113,0.8225259780883789,0.4622266888618469,-0.33135703206062317,0.0024557113647460938,0.0952683687210083,-0.03499111533164978,0.45528067148951806,-0.5763554618464238,0.04621536241073428,0.6770510006489613
1729874925285392000,3.973391845703125,0.267282098531723,0.05342274159193039,-0.01411290280520916,0.8224808573722839,0.4613075852394104,-0.33274713158607483,0.01902616024017334,0.0633506178855896,-0.025101900100708008,0.45640923124681665,-0.5756558235921013,0.04740045956220826,0.6768044709996041
1729874925295422000,3.983421875,0.12826129794120789,0.07659666240215302,-0.033768896013498306,0.8226932883262634,0.4606955051422119,-0.3330698311328888,0.010146737098693848,0.005277395248413086,0.009781956672668457,0.4569755945899025,-0.5754481724787619,0.04821288737004241,0.6765414209743035
1729874925305452800,3.993452880859375,0.008070701733231544,0.07958872616291046,-0.07722902297973633,0.8229365348815918,0.460685133934021,-0.3324826657772064,-0.0015100836753845215,-0.06989231705665588,-0.007864534854888916,0.45722407399733705,-0.5756698672231666,0.04860939032541776,0.6761564266282246
1729874925315483000,4.00348291015625,-0.1070941686630249,0.09072180837392807,-0.11763796210289001,0.8229172229766846,0.46149981021881104,-0.33139899373054504,-0.01656639575958252,-0.10241475701332092,-0.04845321178436279,0.4573099385773203,-0.576154490706912,0.04844071022407495,0.675697569098587
1729874925325513000,4.013512939453125,-0.06385987997055054,0.11177169531583786,-0.13740527629852295,0.8226919770240784,0.46281135082244873,-0.3301267921924591,-0.041853904724121094,-0.06818857789039612,-0.046765267848968506,0.45741731597182894,-0.5767431980869975,0.047998897885080945,0.6751539929060527
1729874925335543800,4.023543701171875,0.06278255581855774,0.14123626053333282,-0.16646674275398254,0.8223016262054443,0.46414536237716675,-0.32922548055648804,-0.059895992279052734,-0.03801316022872925,-0.022153884172439575,0.45796997195993355,-0.5771495211684109,0.04780888027223352,0.674445279029381
1729874925345574000,4.033573974609375,0.13675503432750702,0.18291766941547394,-0.1808435618877411,0.8217920064926147,0.4655933976173401,-0.328451931476593,-0.05683833360671997,-0.034349530935287476,-0.04119217395782471,0.45891330681565196,-0.5774823443735392,0.04783495658369029,0.6735165431883081
1729874925355605000,4.04360498046875,0.17974264919757843,0.14252178370952606,-0.17543894052505493,0.8212378025054932,0.46690115332603455,-0.32798126339912415,-0.032953500747680664,-0.009198576211929321,-0.004187196493148804,0.46010177730816104,-0.5776658110792944,0.04807886414122018,0.6725302611099024
1729874925365634800,4.053634765625,0.12891621887683868,0.07493341714143753,-0.13393543660640717,0.8207201957702637,0.4678685963153839,-0.327898234128952,-0.002528667449951172,0.0205346941947937,0.030413001775741577,0.46111176641629975,-0.5776840023928478,0.04829152727225476,0.6718072755128136
1729874925375666000,4.063666015625,0.13254065811634064,0.0972689762711525,-0.10966259241104126,0.8204579949378967,0.4684021472930908,-0.3277927041053772,0.01766151189804077,0.03747239708900452,0.03206220269203186,0.46184721580657584,-0.5777054117946319,0.048580931341403705,0.671262577131139
1729874925385696000,4.073696044921875,0.10964412987232208,0.1364201009273529,-0.12667912244796753,0.8204673528671265,0.46853676438331604,-0.32757726311683655,0.011411428451538086,0.012984782457351685,-0.02242875099182129,0.462497959794635,-0.5777536804833343,0.049112617014223627,0.6707342574361789
1729874925395725800,4.083725830078125,0.037795111536979675,0.13679523766040802,-0.12322261184453964,0.8204811215400696,0.46876874566078186,-0.32721033692359924,-0.01600724458694458,-0.023883521556854248,-0.02729704976081848,0.463053110189053,-0.5778759024545463,0.04954068253431896,0.6702141188218309
1729874925405756700,4.093756591796875,0.0239219032227993,0.10235283523797989,-0.09825041890144348,0.820357620716095,0.4692591428756714,-0.3268168270587921,-0.012770891189575195,-0.02289387583732605,0.005619436502456665,0.4634814889552414,-0.5780336342178976,0.04968609713582704,0.6697710872556348
