time,seconds_elapsed,rotationRateX,rotationRateY,rotationRateZ,gravityX,gravityY,gravityZ,accelerationX,accelerationY,accelerationZ,quaternionW,quaternionX,quaternionY,quaternionZ
1728062207344672300,0.13467236328125,0.05834990739822388,-0.01913105510175228,0.017546506598591805,0.00807573739439249,-0.1162547692656517,-0.9931865930557251,-0.005847937427461147,-0.004778176546096802,-0.001930534839630127,0.9982951643099048,0.05822665115607168,0.004044764230390175,-1.793857625351488e-17
1728062207354702000,0.1447021484375,0.06489868462085724,-0.02442328818142414,0.025320274755358696,0.008403194136917591,-0.11661282181739807,-0.9931418895721436,-0.009471292607486248,-0.009775958955287933,-0.00269240140914917,0.9982840155539277,0.058406314218119565,0.00421329985005938,0.00007658443192900538
1728062207364733200,0.154733154296875,0.08172480016946793,-0.023775340989232063,0.02816772647202015,0.008375139907002449,-0.11721678078174591,-0.9930710196495056,-0.005536986514925957,-0.008210711181163788,0.006163120269775391,0.9982661793749633,0.0587093435388213,0.0042065518603769236,0.00019909289582402837
1728062207374763000,0.164762939453125,0.07248643040657043,-0.012522049248218536,0.01547563262283802,0.008174427784979343,-0.11793714016675949,-0.9929873943328857,-0.002116672694683075,-0.00828380137681961,0.0016697049140930176,0.9982452611109593,0.059070996368990845,0.004112093453558685,0.0002990253894503697
1728062207384793000,0.17479296875,0.0413610003888607,0.0007844362407922745,0.013167470693588257,0.008084946312010288,-0.11849543452262878,-0.9929217100143433,-0.006009734235703945,-0.011235028505325317,0.0005511045455932617,0.9982288251333535,0.05935132964040772,0.004071675571602,0.00037051665592745297
1728062207394824000,0.184823974609375,0.00656586978584528,0.0050664800219237804,0.008895494043827057,0.008106074295938015,-0.11857211589813232,-0.9929123520851135,-0.011585061438381672,-0.015049345791339874,0.0083543062210083,0.9982264901011464,0.05938964854923234,0.00408552465664446,0.0004250231503470097
1728062207404854000,0.19485400390625,-0.014178290963172913,0.005674213171005249,0.010895263403654099,0.008147438056766987,-0.11830541491508484,-0.9929438233375549,-0.00836104340851307,-0.018749266862869263,0.011864781379699707,0.9982342198687797,0.059255412513590754,0.004108763539161946,0.0004689735827727907
1728062207414885000,0.204885009765625,-0.0378456711769104,0.011051613837480545,0.016226112842559814,0.008153877221047878,-0.11790327727794647,-0.9929916262626648,-0.005987111479043961,-0.017930708825588226,0.012232959270477295,0.9982461589823208,0.05905295656798889,0.004116452905913427,0.0005468797117387109
1728062207424915200,0.214915283203125,-0.0397503636777401,0.004542582202702761,0.0064429896883666515,0.008011392317712307,-0.11758274585008621,-0.9930307865142822,-0.004456076771020889,-0.012849628925323486,0.013370752334594727,0.9982559109543442,0.0588916214682318,0.004048576829924213,0.0006082298115646803
1728062207434946000,0.224946044921875,-0.003853481961414218,-0.005279048811644316,-0.010306695476174355,0.00768975680693984,-0.11763685941696167,-0.9930269122123718,-0.0023796837776899338,-0.009972624480724335,0.015259027481079102,0.998254982621596,0.0589188767295038,0.0038875497893966545,0.0006091010707963635
1728062207444976000,0.23497607421875,0.0017063994891941547,0.010162224993109703,-0.025725066661834717,0.007569278124719858,-0.11793375015258789,-0.992992639541626,-0.00392241170629859,-0.011567831039428711,0.008342981338500977,0.9982464411955073,0.059068419273371114,0.003822807527646353,0.000532684559335935
1728062207455006200,0.245006103515625,-0.0026386145036667585,0.016635997220873833,-0.035101789981126785,0.0077016958966851234,-0.11818092316389084,-0.9929621815681458,-0.008968157693743706,-0.005476541817188263,-0.0016208887100219727,0.9982389294535023,0.05919323296676441,0.0038801494846415984,0.0003795750764130368
1728062207465037000,0.255037109375,0.020437143743038177,0.00386880268342793,-0.02478603646159172,0.007651469670236111,-0.11863618344068527,-0.9929082989692688,-0.013281947001814842,0.0006244629621505737,0.0002630949020385742,0.9982254799325159,0.05942261131665905,0.003846865774717392,0.00024072570631748788
1728062207475067100,0.265067138671875,0.026255151256918907,-0.014744456857442856,-0.02344593219459057,0.007231325376778841,-0.11940691620111465,-0.99281907081604,-0.01048143021762371,-0.002785705029964447,-0.000024497509002685547,0.9982031428505531,0.059810432393399594,0.0036303487656672642,0.00013648038805596778
1728062207485098200,0.27509814453125,0.019509097561240196,-0.013516739010810852,-0.01310700923204422,0.006857528351247311,-0.12025855481624603,-0.9927189350128174,0.0017179264687001705,-0.003627792000770569,-0.005968749523162842,0.9981780605872532,0.060238888205492086,0.0034374774522501,0.00004067640455963202
1728062207495128000,0.285128173828125,0.003073133761063218,-0.019956368952989578,-0.002038113307207823,0.006551420781761408,-0.1209271103143692,-0.9926397800445557,0.0062812380492687225,0.0015268474817276,-0.0008141398429870605,0.9981582078874778,0.060575137244845895,0.0032814551564076893,-0.000004936635341157646
1728062207505158100,0.295158203125,0.007234322838485241,-0.022533776238560677,-0.00034034810960292816,0.0062494161538779736,-0.12131132185459137,-0.992594838142395,0.008887318894267082,0.002597711980342865,0.004496753215789795,0.9981469814282778,0.06076828481467475,0.0031301531761068827,-0.000005842854354260554
1728062207515189200,0.305189208984375,0.006019122898578644,-0.013848409056663513,-0.00872104987502098,0.0060254549607634544,-0.12164244800806046,-0.9925556778907776,0.006578322034329176,0.00048741698265075684,0.0027638673782348633,0.9981371497227256,0.060934832514464236,0.0030163927953515586,-0.00003206290452812696
1728062207525219300,0.31521923828125,-0.010561984032392502,-0.0001392546109855175,-0.007672296836972237,0.005906154401600361,-0.1219029650092125,-0.9925244450569153,-0.005539927631616592,-0.00033543258905410767,-0.0024706125259399414,0.9981293389053983,0.06106595550245028,0.002953617572054896,-0.00008162992154464317
1728062207535250200,0.325250244140625,-0.015255273319780827,-0.0006380649283528328,-0.016919856891036034,0.005691942758858204,-0.12181670218706131,-0.9925363063812256,-0.01271096896380186,0.0013635829091072083,-0.001375436782836914,0.9981322992871424,0.06102272149601613,0.0028427623538003653,-0.0001395935877801786
1728062207545280300,0.3352802734375,-0.004713682923465967,-0.002962738275527954,-0.017491905018687248,0.005357011687010527,-0.12159278243780136,-0.9925656318664551,-0.006257263943552971,0.00017836689949035645,0.0036283135414123535,0.9981395937176941,0.06091025604177298,0.0026709992100092937,-0.00020482048524024854
1728062207555310000,0.34531005859375,-0.005468688905239105,-0.0009360723197460175,-0.025637181475758553,0.005084454547613859,-0.12155230343341827,-0.992572009563446,0.002941683866083622,0.00016839802265167236,0.00993657112121582,0.998141217076131,0.06089008592415383,0.0025287883263831515,-0.0002979048524127697
1728062207565341000,0.3553408203125,-0.014960194937884808,0.00608987919986248,-0.039551932364702225,0.00525019271299243,-0.12148328125476837,-0.9925795793533325,0.005156316794455051,0.00098438560962677,0.007273852825164795,0.9981430810251788,0.0608558707444345,0.0026012653863724,-0.0004709694908799702
1728062207575371000,0.36537109375,-0.01346562895923853,0.008010550402104855,-0.042507510632276535,0.005612226668745279,-0.12125840038061142,-0.9926050901412964,-0.002774073276668787,-0.0003696531057357788,0.012685716152191162,0.9981493649189022,0.06074352799274752,0.002769241839925081,-0.0006913700147024368
1728062207585402000,0.375402099609375,-0.01988198421895504,0.009806586429476738,-0.048279646784067154,0.006029391195625067,-0.12106742709875107,-0.9926259517669678,-0.012789018452167511,-0.0071371495723724365,0.011195957660675049,0.9981544394197067,0.0606483732170473,0.0029643453751041575,-0.0009204038637000854
1728062207595428000,0.385427978515625,-0.04324616119265556,0.013623482547700405,-0.05170260742306709,0.006397756282240152,-0.12077172845602036,-0.9926596879959106,-0.007175935432314873,-0.008882448077201843,0.00378340482711792,0.9981625714203298,0.06050069530554823,0.0031338511663500336,-0.0011699880056045774
1728062207605458000,0.3954580078125,-0.04146850109100342,0.00871660839766264,-0.049118008464574814,0.0063943564891815186,-0.12036425620317459,-0.992709219455719,-0.0009011756628751755,-0.0077945515513420105,0.009753286838531494,0.998174654935759,0.060296582624091884,0.003117920465641163,-0.0014088530759994251
1728062207615489000,0.405489013671875,-0.030368445441126823,0.001930607482790947,-0.06098904833197594,0.006108630448579788,-0.12000244110822678,-0.9927548170089722,0.00794473197311163,-0.005074098706245422,0.004198908805847168,0.9981857441563458,0.06011519642431122,0.002959948893836832,-0.0016590887522200642
1728062207625519000,0.41551904296875,-0.03224004805088043,0.003081199713051319,-0.07558796554803848,0.006020903587341309,-0.11975759267807007,-0.9927849173545837,0.0045076776295900345,-0.0005734488368034363,0.0012993812561035156,0.998192710713084,0.059992951938987384,0.002897025851333422,-0.0019779287660229915
1728062207635550000,0.425550048828125,-0.03446139022707939,-0.0010150079615414143,-0.0882776603102684,0.0061875879764556885,-0.11952326446771622,-0.9928120970726013,0.0003431905061006546,0.0022592321038246155,0.0023336410522460938,0.9981985318405274,0.059876551925556167,0.0029562470776529513,-0.0023861159610634713
1728062207645580000,0.435580078125,-0.04544905945658684,-0.003753270488232374,-0.0887860581278801,0.006404479965567589,-0.11918652057647705,-0.992851197719574,0.003605303820222616,-0.0005952119827270508,0.00330352783203125,0.9982071165944203,0.059708922618645424,0.003038491430903628,-0.0028336838831731033
1728062207655610000,0.445610107421875,-0.051592640578746796,-0.007265767548233271,-0.07499328255653381,0.006344443187117577,-0.11879836767911911,-0.9928981065750122,0.0033449078910052776,-0.0035163238644599915,0.004632174968719482,0.9982177238182297,0.059514943924629804,0.0029843435368487065,-0.0032461908288331414
1728062207665641000,0.455640869140625,-0.056757308542728424,-0.010109225288033485,-0.05558975785970688,0.005957435350865126,-0.11859714984893799,-0.9929245710372925,0.011010358110070229,0.0017908737063407898,0.003132760524749756,0.9982231935065449,0.05941398084869527,0.0027728241778627667,-0.0035483275889229187
1728062207675671000,0.465671142578125,-0.059302423149347305,-0.01629691943526268,-0.054122887551784515,0.005711535923182964,-0.11835810542106628,-0.9929545521736145,0.012110749259591103,0.0048019662499427795,0.0016368627548217773,0.9982297721947864,0.059294084449573604,0.002633766459273858,-0.003822707076119044
1728062207685702100,0.4757021484375,-0.05692794919013977,-0.025821447372436523,-0.048645563423633575,0.005547396373003721,-0.11808954924345016,-0.9929874539375305,0.007712508086115122,0.00471651554107666,0.006064295768737793,0.9982369276431304,0.05915944651480384,0.002536337841130828,-0.004087802071981
1728062207695732200,0.485732177734375,-0.05412031710147858,-0.01680382527410984,-0.04294639825820923,0.005632493179291487,-0.11776026338338852,-0.993026077747345,0.011243745684623718,0.006752327084541321,0.005706191062927246,0.9982456845870896,0.05899472799025162,0.002565427872833968,-0.00432783123848367
1728062207705762000,0.495761962890625,-0.055116601288318634,-0.018567902967333794,-0.04656030982732773,0.005664534866809845,-0.11729499697685242,-0.9930809736251831,0.005443881265819073,0.011764980852603912,0.00887387990951538,0.9982582748317104,0.058761573824991566,0.0025684295777629994,-0.004566100333243027
1728062207715793200,0.505793212890625,-0.051624931395053864,-0.0222164336591959,-0.052244558930397034,0.005537239369004965,-0.11679023504257202,-0.9931411743164062,0.0028093368746340275,0.011183932423591614,0.013008177280426025,0.9982721819218228,0.05850820293877709,0.002491288889669325,-0.004813603763299586
1728062207725822500,0.515822509765625,-0.06730616092681885,-0.012607747688889503,-0.05301128327846527,0.0055659315548837185,-0.11630807816982269,-0.9931975603103638,0.0007054517045617104,0.004537209868431091,0.012957751750946045,0.9982850591951541,0.05826661943033765,0.002491225618372118,-0.005080308900318793
1728062207735853600,0.525853515625,-0.07815587520599365,-0.003330094274133444,-0.05572903901338577,0.005664905067533255,-0.11573998630046844,-0.9932633638381958,-0.00860983319580555,0.0028399676084518433,0.014366328716278076,0.9983000572706436,0.05798210268337074,0.002525896582101049,-0.005361136055605718
1728062207745883400,0.53588330078125,-0.08270668238401413,0.007853318005800247,-0.04782717302441597,0.006053832359611988,-0.1149967759847641,-0.9933474063873291,-0.006648905109614134,0.0036073774099349976,0.010757744312286377,0.9983196327710391,0.05761043665064809,0.0027070706148391065,-0.005630826956479496
1728062207755914500,0.54591455078125,-0.08056703209877014,0.016890648752450943,-0.03820250928401947,0.006563385017216206,-0.114155113697052,-0.9934412837028503,-0.001695812214165926,0.0064430832862854,0.007433593273162842,0.9983417736629088,0.057189666898517615,0.002951891746432166,-0.0058523805927590215
1728062207765944600,0.555944580078125,-0.08550532907247543,0.011564060114324093,-0.04309553653001785,0.006955545395612717,-0.11333508044481277,-0.9935324788093567,-0.000485801137983799,0.00453968346118927,0.010836005210876465,0.9983634531735713,0.05677948991841138,0.0031387016954139164,-0.006062182884530528
1728062207775974400,0.565974365234375,-0.0868534967303276,-0.0016296133399009705,-0.04204545170068741,0.00732280733063817,-0.11244407296180725,-0.9936310648918152,-0.0002579675056040287,0.0036791786551475525,0.012857198715209961,0.9983867255105098,0.056333708849679705,0.0033132471276114206,-0.006275135284387683
1728062207786005500,0.576005615234375,-0.09366746246814728,-0.001119883731007576,-0.03680860996246338,0.007448618765920401,-0.11138903349637985,-0.9937489628791809,0.007474496494978666,0.00784265249967575,0.010045349597930908,0.9984150583223933,0.05580474473772649,0.003368830867709563,-0.006465722934403348
1728062207796035600,0.58603564453125,-0.1115373969078064,0.0013723024167120457,-0.03664536029100418,0.0075150965712964535,-0.11026240140199661,-0.9938740730285645,0.0135573111474514,0.008318185806274414,0.012398302555084229,0.9984452557984428,0.05523961703065456,0.00339634232952476,-0.006634486387773095
1728062207806066400,0.59606640625,-0.12793289124965668,0.0014918786473572254,-0.03471110388636589,0.007556234952062368,-0.10915464907884598,-0.9939960837364197,0.011135800741612911,0.008446402847766876,0.015373647212982178,0.9984747378364495,0.05468394371388201,0.003411223401690942,-0.006804501436699677
1728062207816096500,0.606096435546875,-0.14330391585826874,0.0005743661895394325,-0.041782863438129425,0.007331312634050846,-0.1079479530453682,-0.9941295385360718,0.00908716395497322,0.005729086697101593,0.021351218223571777,0.9985069239359589,0.05407770910554783,0.003293004023227672,-0.006981972058675178
1728062207826126600,0.616126708984375,-0.16848276555538177,-0.008640969172120094,-0.07032369822263718,0.007156647276133299,-0.10652266442775726,-0.9942845106124878,0.0023953737691044807,0.0012215152382850647,0.02112478017807007,0.9985436929321813,0.05336222468322753,0.0031959406405386416,-0.007253018047665048
1728062207836157400,0.626157470703125,-0.1819688230752945,-0.0019557434134185314,-0.0986565351486206,0.007149132434278727,-0.10480160266160965,-0.9944674372673035,-0.0038989908061921597,0.002460666000843048,0.026282072067260742,0.9985863272214106,0.05249943973866226,0.0031753014484889523,-0.007690627761919003
1728062207846187500,0.6361875,-0.1872573345899582,0.02885383553802967,-0.11424827575683594,0.007450066972523928,-0.10307974368333817,-0.9946451783180237,-0.012943210080265999,0.006415076553821564,0.017335057258605957,0.9986265731895625,0.05163796094543404,0.0033051036280846565,-0.008220101623885822
1728062207856218600,0.646218505859375,-0.21812869608402252,0.029037538915872574,-0.15080973505973816,0.007883777841925621,-0.10120533406734467,-0.994834303855896,-0.01633712463080883,0.006798960268497467,0.01813453435897827,0.9986683953803376,0.050701189982685926,0.003496957710318073,-0.008867404918038295
1728062207866248700,0.656248779296875,-0.24207903444766998,-0.000593856442719698,-0.1656017303466797,0.008290166035294533,-0.0989510789513588,-0.9950577616691589,-0.009663434699177742,0.01017521321773529,0.03291487693786621,0.9987169676917984,0.04957462573825217,0.0036706051474240473,-0.009665981193059038
1728062207876279600,0.666279541015625,-0.2505456805229187,0.013481110334396362,-0.15009894967079163,0.008681963197886944,-0.09654364734888077,-0.9952908754348755,0.005447698757052422,0.012497998774051666,0.031530559062957764,0.9987672761850767,0.048371612875184065,0.003839781271319063,-0.010459307925718708
1728062207886309600,0.6763095703125,-0.23624370992183685,0.025815807282924652,-0.12940672039985657,0.009144589304924011,-0.09421472251415253,-0.995509922504425,0.013667324557900429,0.013907477259635925,0.01998502016067505,0.998814588786395,0.04720850488892352,0.004050488017653113,-0.011154942207456255
1728062207896339700,0.686339599609375,-0.2759300172328949,0.018965037539601326,-0.107248954474926,0.009637896902859211,-0.09185952693223953,-0.9957253336906433,0.014196353033185005,0.015931546688079834,0.0013100504875183105,0.9988620073411854,0.0460323625938156,0.00428430145907977,-0.011720500827447355
1728062207906370600,0.69637060546875,-0.31302544474601746,-0.0252988301217556,-0.09383594244718552,0.009617900475859642,-0.08910641819238663,-0.9959756731987,0.022135663777589798,0.019098855555057526,0.0008432269096374512,0.9989184567962465,0.044653708433468255,0.004267305239653438,-0.012233255654325778
1728062207916400600,0.706400634765625,-0.2392595410346985,-0.031156400218605995,-0.03346261382102966,0.00926859863102436,-0.08657556027173996,-0.9962021708488464,0.03579062595963478,0.018811047077178955,-0.005415201187133789,0.9989710285403228,0.043383850582488066,0.004093450783966859,-0.012563679332380031
1728062207926431700,0.716431640625,-0.11214233934879303,-0.10713504999876022,0.08610452711582184,0.008470057509839535,-0.0850970521569252,-0.9963366389274597,0.03729107230901718,0.0162949338555336,-0.04472470283508301,0.9990057763931716,0.04263717789898566,0.0037065685891177723,-0.012480783515145588
1728062207936461600,0.726461669921875,-0.16346611082553864,-0.11434971541166306,0.05321874842047691,0.007141351234167814,-0.08399330079555511,-0.9964407086372375,0.07659890502691269,0.03695021569728851,-0.07703030109405518,0.9990363870428679,0.04207429424338808,0.003064203979057731,-0.012107736307379638
1728062207946491400,0.736491455078125,-0.19674044847488403,-0.11499766260385513,0.055162057280540466,0.005770880728960037,-0.08224259316921234,-0.9965956211090088,0.06918030977249146,0.02155815064907074,-0.026994407176971436,0.9990778659152875,0.04118777244508458,0.0023983174910092863,-0.011880575333501344
1728062207956522500,0.7465224609375,-0.2159695327281952,-0.0695476233959198,0.09472331404685974,0.00491848960518837,-0.08031041920185089,-0.9967577457427979,0.009684193879365921,-0.0023161694407463074,-0.019859015941619873,0.9991228005125795,0.04021347461249767,0.001998363513439781,-0.011504458235140331
1728062207966552600,0.756552490234375,-0.2518354058265686,-0.06701841950416565,0.08841348439455032,0.004411662463098764,-0.07797794789075851,-0.996945321559906,-0.0006579789333045483,-0.007349438965320587,-0.040713369846343994,0.999174750497807,0.03904083342879387,0.001775405014558634,-0.011062556941689805
1728062207976583400,0.76658349609375,-0.24606172740459442,-0.08871044963598251,0.13911262154579163,0.003767038695514202,-0.07547037303447723,-0.9971409440040588,0.006181713193655014,0.006241001188755035,-0.029073655605316162,0.9992293644160953,0.03777996924321479,0.0014864207750594305,-0.01054114344564868
1728062207986613500,0.776613525390625,-0.24065817892551422,-0.06861663609743118,0.17807334661483765,0.0031746800523251295,-0.07301084697246552,-0.9973260760307312,0.03532326593995094,0.004544422030448914,-0.029193639755249023,0.9992839145617648,0.03654358767150786,0.0012325845071456413,-0.009731889938138763
1728062207996644600,0.78664453125,-0.28716760873794556,-0.05337163433432579,0.16664917767047882,0.002978484844788909,-0.07038955390453339,-0.9975151419639587,0.03828130289912224,-0.010222874581813812,-0.02689892053604126,0.9993392771986336,0.03522849501238477,0.0011775918421570747,-0.00886863471529606
1728062208006674400,0.79667431640625,-0.35206669569015503,-0.04555365815758705,0.11287116259336472,0.0024298718199133873,-0.06715656816959381,-0.9977394938468933,0.02021419256925583,-0.015500538051128387,-0.00929480791091919,0.9994012248413808,0.03360610570007052,0.0009403050713747511,-0.008188806881762697
1728062208016704500,0.80670458984375,-0.3792988955974579,-0.058632925152778625,0.10123074799776077,0.001687992480583489,-0.06351776421070099,-0.9979792833328247,0.027486832812428474,-0.005970999598503113,0.009896397590637207,0.9994655008350372,0.03178046481574072,0.00060146968864214,-0.007641425501147335
1728062208026735600,0.816735595703125,-0.42505332827568054,-0.0799451395869255,0.09954337030649185,0.0008735095616430044,-0.05941173806786537,-0.9982331991195679,0.05938347056508064,-0.01869824528694153,0.007220625877380371,0.9995328234047037,0.029721357912333064,0.00022503996641939377,-0.007126859213617703
1728062208036765700,0.826765625,-0.5204115509986877,-0.10571553558111191,-0.0010676574893295765,-0.000034186086850240827,-0.05475012585520744,-0.9985001087188721,0.06297671049833298,-0.04540880769491196,0.01424717903137207,0.9996012009702938,0.027384563976135187,-0.00020597386765885031,-0.006894346845827502
1728062208046796500,0.836796630859375,-0.5532480478286743,-0.18666018545627594,0.006520754192024469,-0.0014209452783688903,-0.04916565865278244,-0.9987896084785461,0.057130806148052216,-0.07153160870075226,0.018442988395690918,0.9996729812843858,0.02458469893879354,-0.0008826044962644564,-0.006989843940540353
1728062208056826600,0.84682666015625,-0.6140400171279907,-0.2761704623699188,0.10172955691814423,-0.0038167207967489958,-0.04340971261262894,-0.9990500807762146,0.08401693403720856,-0.08879268169403076,0.0209311842918396,0.9997396614865206,0.021696635555982727,-0.0020553128523436454,-0.006748390716624954
1728062208066856700,0.856856689453125,-0.6129329800605774,-0.29177340865135193,0.15936969220638275,-0.006769643165171146,-0.03715820237994194,-0.9992864727973938,0.10297632962465286,-0.06116968020796776,0.0271490216255188,0.9998030005260575,0.018561405660834022,-0.003498782974904166,-0.006102560791947129
1728062208076887600,0.866887451171875,-0.4979276657104492,-0.2658606171607971,0.14605069160461426,-0.009632686153054237,-0.03156256675720215,-0.9994553327560425,0.09428846836090088,0.01715802401304245,0.014958322048187256,0.9998493909588178,0.01575736794676521,-0.004901591673372474,-0.005363231648301634
1728062208086917600,0.876917724609375,-0.4304887056350708,-0.13665950298309326,0.32361534237861633,-0.011910119093954563,-0.027019066736102104,-0.999563992023468,0.06975620985031128,0.036799706518650055,-0.016701877117156982,0.9998812373693919,0.013484636546398063,-0.006015176502479606,-0.004405192586955613
1728062208096948700,0.88694873046875,-0.39557796716690063,-0.2587783634662628,0.5630982518196106,-0.013819873332977295,-0.0228077694773674,-0.9996443390846252,0.10265656560659409,0.0448564738035202,-0.01282203197479248,0.9999089867054939,0.011390880255409859,-0.006933635210689564,-0.0020250732070925884
1728062208106978600,0.896978515625,-0.4185056686401367,-0.28009137511253357,0.5075987577438354,-0.016603568568825722,-0.018653498962521553,-0.9996881484985352,0.19288837909698486,0.041480399668216705,0.011315345764160156,0.9999217566075659,0.009333033053854673,-0.00829618640042321,0.0006693802573491008
1728062208117009700,0.907009765625,-0.4227624535560608,-0.31673818826675415,0.3880942165851593,-0.019749604165554047,-0.0143659096211195,-0.999701738357544,0.07855699956417084,0.0013499176129698753,0.01827174425125122,0.9999213804883494,0.007211618082001508,-0.009855016875106665,0.0028509651461466777
1728062208127039700,0.917039794921875,-0.44505366683006287,-0.28920429944992065,0.46475276350975037,-0.022841794416308403,-0.00993450079113245,-0.9996897578239441,0.028869030997157097,-0.025435619056224823,-0.0002949833869934082,0.9999104717198319,0.005023357306468056,-0.011397387198893645,0.004883347382837347
1728062208137069600,0.927069580078125,-0.47987303137779236,-0.2813994288444519,0.615221381187439,-0.02573697827756405,-0.005169379059225321,-0.9996553659439087,0.08199615031480789,-0.036899346858263016,-0.019585907459259033,0.9998852404777103,0.0026820841803972266,-0.012849699223717278,0.007555573809637698
1728062208147100400,0.937100341796875,-0.5184297561645508,-0.34532859921455383,0.6306613087654114,-0.028533443808555603,-0.0000031446697903447784,-0.9995928406715393,0.1797633171081543,-0.0425233468413353,-0.019938409328460693,0.9998394804058154,0.00015613875543029566,-0.014267321074951173,0.010831841267385083
1728062208157130500,0.947130615234375,-0.603419840335846,-0.8432807922363281,0.43699994683265686,-0.034531135112047195,0.005725905764847994,-0.9993872046470642,0.3521428406238556,-0.1008799597620964,-0.019747257232666016,0.9997579204770185,-0.0026329265577015436,-0.017304851502359084,0.013329429467568418
1728062208167161300,0.957161376953125,-0.6961503028869629,-0.864281415939331,0.6635769009590149,-0.04336896166205406,0.012471623718738556,-0.9989812970161438,0.33215680718421936,-0.13634271919727325,0.012897312641143799,0.9996173661250957,-0.005889741061314213,-0.021786980294448526,0.015987733914351987
1728062208177191400,0.96719140625,-0.7293367385864258,-0.7816365957260132,0.8382145166397095,-0.051424965262413025,0.02002856135368347,-0.9984760284423828,0.17877483367919922,-0.07412121444940567,-0.0068187713623046875,0.9994241232987553,-0.009508290726323844,-0.0259150649940512,0.019736210400612703
1728062208187222500,0.977222412109375,-0.6779912710189819,-0.6419479250907898,1.0144351720809937,-0.058366164565086365,0.027604801580309868,-0.9979134798049927,0.12718331813812256,-0.10373114794492722,-0.05526334047317505,0.9991824203828941,-0.013095242911215563,-0.029525610292990678,0.024313276470944355
1728062208197252600,0.987252685546875,-0.6716678142547607,-0.5401008725166321,1.1714537143707275,-0.06385418772697449,0.034986838698387146,-0.9973457455635071,0.11051556468009949,-0.13041555881500244,-0.06228560209274292,0.9988932798227111,-0.016546164837384306,-0.032455271613627615,0.029750664592166385
1728062208207282400,0.997282470703125,-0.6964943408966064,-0.5939153432846069,1.264522671699524,-0.06894099712371826,0.04265519231557846,-0.9967083930969238,0.12851130962371826,-0.12155863642692566,-0.05480527877807617,0.9985352742776425,-0.02009543681643616,-0.03524150406840069,0.03579851971871597
1728062208217313500,1.0073134765625,-0.6939578056335449,-0.7059285044670105,1.366576075553894,-0.0748249739408493,0.05051690340042114,-0.9959163069725037,0.1878468245267868,-0.12156207859516144,-0.021555006504058838,0.9980815739239864,-0.023674877788568582,-0.03848834678696497,0.042324312441831775
1728062208227343600,1.017343505859375,-0.7148745656013489,-0.808404266834259,1.4696825742721558,-0.08160123974084854,0.05864078179001808,-0.9949384331703186,0.24876126646995544,-0.13250882923603058,-0.0073503851890563965,0.9975126373605968,-0.027302074141900955,-0.042253726799529455,0.04937380361160854
1728062208237374500,1.02737451171875,-0.7268376350402832,-0.9046826958656311,1.5563702583312988,-0.08918465673923492,0.06713312864303589,-0.9937500953674316,0.27874457836151123,-0.1464943289756775,0.01961374282836914,0.9968126832954441,-0.031018466156494173,-0.046506022386358634,0.05691656963921817
1728062208247404500,1.037404541015625,-0.7374548316001892,-1.0001932382583618,1.6304445266723633,-0.09753812104463577,0.0758768692612648,-0.9923351407051086,0.2766457796096802,-0.159296914935112,0.025736629962921143,0.9959728412542204,-0.0347560834716483,-0.05122936407807924,0.06485185703661925
1728062208257434600,1.0474345703125,-0.7844813466072083,-1.0643374919891357,1.7442009449005127,-0.10644562542438507,0.0851651057600975,-0.990664541721344,0.2628176808357239,-0.1536773145198822,-0.002728402614593506,0.9949697743633893,-0.0386494868859143,-0.05633778773041095,0.07326310652750369
1728062208267465500,1.057465576171875,-0.7913600206375122,-1.1348539590835571,1.8972135782241821,-0.115725077688694,0.09504975378513336,-0.9887230396270752,0.2509789764881134,-0.14430537819862366,-0.018189191818237305,0.9937725688102717,-0.04270606322209145,-0.0617630252049351,0.08232696783863412
1728062208277495600,1.06749560546875,-0.80209881067276,-1.1828747987747192,2.0579111576080322,-0.12523436546325684,0.10528559237718582,-0.9865248799324036,0.24779294431209564,-0.1484987437725067,-0.031602561473846436,0.9923527887337176,-0.046782936713514925,-0.06744573256101821,0.09218699600292378
1728062208287526700,1.077526611328125,-0.8348426818847656,-1.2161182165145874,2.1767609119415283,-0.1347130686044693,0.11614729464054108,-0.9840539693832397,0.2420281171798706,-0.15116646885871887,-0.046143174171447754,0.9906939914431016,-0.05102076122189695,-0.07327960716969689,0.10272551092281298
1728062208297556700,1.087556640625,-0.8479483723640442,-1.2635244131088257,2.28587007522583,-0.1441865712404251,0.12755367159843445,-0.9812952280044556,0.22753003239631653,-0.15076252818107605,-0.013196408748626709,0.9887844272340195,-0.05537441607563502,-0.07928472426116374,0.11381099435651713
1728062208307586600,1.097586669921875,-0.8880947232246399,-1.2966713905334473,2.3873140811920166,-0.15367017686367035,0.13952772319316864,-0.978221595287323,0.22000007331371307,-0.15764014422893524,0.013957679271697998,0.9866037249182985,-0.05984623557941837,-0.08548467374899134,0.1253948852209881
1728062208317617700,1.10761767578125,-0.9558641314506531,-1.3160390853881836,2.4808874130249023,-0.16288015246391296,0.15241459012031555,-0.9748024940490723,0.21059434115886688,-0.15474942326545715,0.02912372350692749,0.9841328872790441,-0.06462091501681633,-0.09177637932561143,0.13741797594482852
1728062208327647500,1.1176474609375,-1.0006393194198608,-1.3408751487731934,2.570530891418457,-0.1718163937330246,0.16620118916034698,-0.9710078835487366,0.19824457168579102,-0.14274868369102478,0.05696064233779907,0.9813507844047856,-0.06968785654192677,-0.09818180697681585,0.14984816560677813
1728062208337678600,1.1276787109375,-1.0776396989822388,-1.3588961362838745,2.656676769256592,-0.18037806451320648,0.18090881407260895,-0.966817319393158,0.1980019062757492,-0.13296593725681305,0.06928008794784546,0.9782383254295415,-0.07506114622876567,-0.10467644697795615,0.16266041385408675
1728062208347708400,1.13770849609375,-1.1657826900482178,-1.385439395904541,2.7230007648468018,-0.18858087062835693,0.19671566784381866,-0.9621539115905762,0.19613391160964966,-0.11895711719989777,0.09273862838745117,0.9747715792419398,-0.08083195727921598,-0.11130689709117254,0.17577655036380635
1728062208357739500,1.147739501953125,-1.2790378332138062,-1.3906028270721436,2.775913953781128,-0.1963043063879013,0.21376048028469086,-0.9569593071937561,0.19215384125709534,-0.10655246675014496,0.12875795364379883,0.970942285045297,-0.08709023423825014,-0.11804933093131116,0.1890790038822503
1728062208367769600,1.15776953125,-1.4025555849075317,-1.3797725439071655,2.8268446922302246,-0.2033027708530426,0.2322010099887848,-0.9511837959289551,0.18389350175857544,-0.09490266442298889,0.16132783889770508,0.9667391176863835,-0.09394733108819203,-0.1248278371685491,0.20250249521919172
1728062208377799400,1.16779931640625,-1.5512715578079224,-1.3942623138427734,2.884701728820801,-0.2095840573310852,0.2521875500679016,-0.9447094798088074,0.17508384585380554,-0.08823210000991821,0.2024303674697876,0.9621206114651953,-0.1014823582087545,-0.1317064968201434,0.21605242688532494
1728062208387830500,1.17783056640625,-1.6751892566680908,-1.3618966341018677,2.920736789703369,-0.2149152308702469,0.2735993266105652,-0.9375259280204773,0.16353879868984222,-0.08709138631820679,0.24187767505645752,0.9570860383427088,-0.10967493371374976,-0.1385945369632459,0.22967221126458665
1728062208397860600,1.187860595703125,-1.7877328395843506,-1.3247803449630737,2.939199686050415,-0.21913708746433258,0.29621243476867676,-0.9296435713768005,0.13554933667182922,-0.08846426010131836,0.26886165142059326,0.9516601575863277,-0.11846284061522223,-0.14541243995551553,0.24323813304846623
1728062208407891500,1.197891357421875,-1.7949942350387573,-1.2649530172348022,2.931615114212036,-0.22213497757911682,0.3194064199924469,-0.92121422290802,0.09988147020339966,-0.088815838098526,0.29757219552993774,0.9458967275227302,-0.12757922195541194,-0.15204092281384174,0.25668380781494016
1728062208417921500,1.207921630859375,-1.7683838605880737,-1.159708023071289,2.8773303031921387,-0.22363853454589844,0.34227749705314636,-0.9125962257385254,0.06677806377410889,-0.07701891660690308,0.2663559913635254,0.9399371660987027,-0.13665805856186952,-0.15819750992991571,0.2698447062966155
1728062208427951600,1.21795166015625,-1.6857481002807617,-1.0546692609786987,2.812865734100342,-0.22366517782211304,0.3644435703754425,-0.9039661288261414,0.04261951148509979,-0.04109477996826172,0.24286377429962158,0.9338717898837762,-0.14555633774112284,-0.16379953803605848,0.28260659458403803
1728062208437982500,1.227982421875,-1.5647575855255127,-0.9319611191749573,2.7720677852630615,-0.2221474051475525,0.3853089213371277,-0.895649254322052,0.037149712443351746,0.006887495517730713,0.23804116249084473,0.9277829263698231,-0.1540067011760879,-0.1686929816069748,0.295031114898391
1728062208448012500,1.238012451171875,-1.469777226448059,-0.7820890545845032,2.7709860801696777,-0.21884317696094513,0.40497589111328125,-0.8877511620521545,0.05119475722312927,0.04940009117126465,0.20492035150527954,0.9216651308460865,-0.16210312185185827,-0.17276279295273037,0.3072602784010728
1728062208458043600,1.248043701171875,-1.4198687076568604,-0.6124837398529053,2.8292322158813477,-0.21340498328208923,0.4238205850124359,-0.8802467584609985,0.0641281008720398,0.07010620832443237,0.23409801721572876,0.9154600060004067,-0.17009255074068697,-0.175912297716173,0.3194624308341181
1728062208468073700,1.25807373046875,-1.4134466648101807,-0.458065927028656,2.913196563720703,-0.20562835037708282,0.4422762393951416,-0.8729883432388306,0.06651383638381958,0.04991108179092407,0.3068719506263733,0.9090641074451128,-0.17823304337029972,-0.17815387809211297,0.3318078409685596
1728062208478104600,1.2681044921875,-1.4992913007736206,-0.3015725910663605,2.9975976943969727,-0.19553136825561523,0.46089062094688416,-0.8656485080718994,0.05263267457485199,-0.007109701633453369,0.38038843870162964,0.9023788759018019,-0.1868402474254525,-0.17962872787801598,0.3442913557989707
1728062208488134700,1.278134765625,-1.6786134243011475,-0.16877460479736328,3.032724142074585,-0.18330374360084534,0.4803268611431122,-0.8577213287353516,0.0177762508392334,-0.0857042670249939,0.4556674361228943,0.895342912632277,-0.1963029538063222,-0.18056714607156987,0.35668155769757465
1728062208498164700,1.288164794921875,-1.9458988904953003,-0.0455041266977787,2.914172887802124,-0.1695306897163391,0.5010030269622803,-0.8486785888671875,-0.02996288239955902,-0.1666831374168396,0.5216521620750427,0.8879904937321972,-0.2068554757536404,-0.18130505510422698,0.3685269823290639
1728062208508195600,1.298195556640625,-2.238515853881836,0.11541072279214859,2.7066755294799805,-0.15476253628730774,0.5233302712440491,-0.8379582166671753,-0.0894545465707779,-0.2106778621673584,0.5083683133125305,0.8805167925245492,-0.218797320228021,-0.18206764140663434,0.3790372988372083
1728062208518225700,1.3082255859375,-2.430826425552368,0.2100444883108139,2.544895648956299,-0.13934460282325745,0.5467470288276672,-0.825621485710144,-0.12342716753482819,-0.17466163635253906,0.437697172164917,0.8729768815415653,-0.23181136165108515,-0.18290096683839277,0.3882295232414608
1728062208528256800,1.3182568359375,-2.430898427963257,0.24284371733665466,2.483853578567505,-0.1233857125043869,0.5701753497123718,-0.8122044205665588,-0.07111826539039612,-0.09396398067474365,0.35959815979003906,0.8653179422413976,-0.24524973230824673,-0.18371268823027107,0.39664479542410264
1728062208538286300,1.328286376953125,-2.2627289295196533,0.2858229875564575,2.506831169128418,-0.10679282993078232,0.5920414328575134,-0.798800528049469,0.005123347043991089,0.001952528953552246,0.2821531295776367,0.85758633572811,-0.25821984256433805,-0.18417997174185108,0.40490231384472003
1728062208548316400,1.33831640625,-2.0868723392486572,0.39384347200393677,2.6304502487182617,-0.0886402428150177,0.6118143796920776,-0.7860191464424133,0.07109245657920837,0.10429573059082031,0.17696452140808105,0.8497648497165448,-0.27057571991084245,-0.18379120146512784,0.4134117529490246
1728062208558347500,1.348347412109375,-1.907774567604065,0.5541551113128662,2.882868528366089,-0.06784473359584808,0.6296141147613525,-0.7739400267601013,0.10277190804481506,0.18302303552627563,0.16978341341018677,0.8416596088886917,-0.2825633998959554,-0.18217550923348186,0.4225862331427963
1728062208568377600,1.358377685546875,-1.6948308944702148,0.7478572130203247,3.1634910106658936,-0.04346611723303795,0.645215630531311,-0.7627630829811096,0.10068638622760773,0.18498438596725464,0.22397512197494507,0.8331523347610571,-0.2942849264954876,-0.17892692797256163,0.43271101650950333
1728062208578408400,1.368408447265625,-1.478197455406189,0.912137508392334,3.307981014251709,-0.01592148281633854,0.6582172513008118,-0.7526596188545227,0.054831184446811676,0.0950784683227539,0.25923609733581543,0.8243672340639454,-0.3055644925374062,-0.17407043797428373,0.4435633975201747
1728062208588438500,1.3784384765625,-1.4308847188949585,1.0908244848251343,3.2339539527893066,0.013457417488098145,0.6690640449523926,-0.7430828809738159,-0.03207332640886307,-0.037518203258514404,0.28382372856140137,0.815586046063166,-0.3165612958183178,-0.1680699098518585,0.4542696275140395
1728062208598469400,1.388469482421875,-1.5153135061264038,1.2508536577224731,3.0009169578552246,0.04323023557662964,0.6790509819984436,-0.7328171133995056,-0.13067854940891266,-0.13597553968429565,0.31486350297927856,0.8069840223711506,-0.32781125286374124,-0.16165157024723795,0.4638808163511983
1728062208608499500,1.39849951171875,-1.7129589319229126,1.4214205741882324,2.6900622844696045,0.07252174615859985,0.6891167759895325,-0.72101229429245,-0.18690182268619537,-0.17341560125350952,0.3307685852050781,0.798680458654029,-0.33968462910038205,-0.1552682186306752,0.4718216564292139
1728062208618529500,1.408529541015625,-1.9256627559661865,1.5033129453659058,2.4371509552001953,0.10082770138978958,0.6999506950378418,-0.7070380449295044,-0.1762520968914032,-0.12248194217681885,0.28186702728271484,0.7905422241355069,-0.35239079592089034,-0.14933759478017813,0.4780815160871379
1728062208628560600,1.418560546875,-2.1295056343078613,1.5885045528411865,2.2791714668273926,0.12826886773109436,0.7114474773406982,-0.6909338235855103,-0.09392157196998596,0.001839756965637207,0.20329338312149048,0.7823765566691752,-0.365822901544004,-0.14389816838728944,0.48306704611981227
1728062208638590500,1.428590576171875,-2.2780542373657227,1.5949623584747314,2.307100534439087,0.1555885374546051,0.7233240008354187,-0.6727514266967773,0.012303709983825684,0.15317118167877197,0.10170644521713257,0.7738236325755511,-0.37994967847607525,-0.13878949065093527,0.48741416558868805
1728062208648621600,1.43862158203125,-2.2634029388427734,1.595584750175476,2.493665933609009,0.18370972573757172,0.7344138622283936,-0.6533659100532532,0.12334267795085907,0.28549879789352417,0.06387299299240112,0.7646074571841355,-0.3943001581872854,-0.1335830128878699,0.4919942931494736
1728062208658651600,1.448651611328125,-2.0775513648986816,1.5615166425704956,2.7290709018707275,0.21329408884048462,0.743278443813324,-0.6340684294700623,0.20851966738700867,0.3434218764305115,0.05458521842956543,0.7547768044110276,-0.408237993455541,-0.12770092131847263,0.49733915483759855
1728062208668681700,1.458681640625,-1.8372948169708252,1.5165363550186157,2.866359233856201,0.24394206702709198,0.7491012215614319,-0.6159055829048157,0.2292327880859375,0.32238614559173584,0.06280481815338135,0.7446231450170407,-0.4211986741611533,-0.12099126458805402,0.5034771994760615
1728062208678712600,1.468712646484375,-1.6991004943847656,1.4644583463668823,2.8090202808380127,0.27454084157943726,0.7523938417434692,-0.5987743735313416,0.18175774812698364,0.2540452480316162,0.100605309009552,0.7344869838272966,-0.4332005121223694,-0.1137986694388192,0.5098194998706637
1728062208688742700,1.47874267578125,-1.6978288888931274,1.371224284172058,2.6096532344818115,0.3034321963787079,0.754550039768219,-0.5818790197372437,0.08534625172615051,0.18357551097869873,0.1582949161529541,0.7245788092250529,-0.4445375410726866,-0.10699003129405761,0.5156793134479911
1728062208698773500,1.4887734375,-1.6950634717941284,1.2950319051742554,2.4498305320739746,0.3302140235900879,0.7562984824180603,-0.5647754669189453,0.0011608898639678955,0.12388944625854492,0.18779170513153076,0.714874285249625,-0.45544462544492953,-0.10090811389511462,0.5209055390410936
1728062208708803600,1.498803466796875,-1.6201452016830444,1.2698942422866821,2.3629162311553955,0.3556004762649536,0.7573041915893555,-0.5477578639984131,-0.023691505193710327,0.07787030935287476,0.15612560510635376,0.7053524368681592,-0.46590252747193406,-0.09516253714106762,0.5256965783794815
1728062208718833400,1.50883349609375,-1.4856998920440674,1.2699652910232544,2.277423620223999,0.3801032304763794,0.757185161113739,-0.5312175750732422,-0.018409132957458496,0.07768416404724121,0.09937846660614014,0.6961069287759508,-0.47582277709563786,-0.08935267894325252,0.5301356948053378
1728062208728864300,1.5188642578125,-1.3413938283920288,1.2908530235290527,2.1695427894592285,0.4036926329135895,0.7558689117431641,-0.5154557228088379,-0.010550111532211304,0.14562034606933594,0.035459816455841064,0.6873181239806307,-0.48510608154381707,-0.0833320454552812,0.5341551971891868
1728062208738894300,1.528894287109375,-1.2094154357910156,1.316215991973877,2.1063058376312256,0.4264744520187378,0.7534872889518738,-0.5003761053085327,0.012459635734558105,0.26468580961227417,-0.03479558229446411,0.6789811704998439,-0.49383583318452706,-0.07705925668361278,0.5377475508369404
1728062208748925200,1.53892529296875,-1.0677142143249512,1.3277965784072876,2.136974573135376,0.4489705264568329,0.7498270273208618,-0.48598843812942505,0.05269244313240051,0.3737691044807434,-0.07065233588218689,0.6709036353576496,-0.5020485996925593,-0.0703774233585032,0.5411861144885443
1728062208758955300,1.548955322265625,-0.9343740344047546,1.3302782773971558,2.22139573097229,0.47171342372894287,0.7445687651634216,-0.4723384976387024,0.10087239742279053,0.4165639877319336,-0.061246246099472046,0.6628714935644431,-0.5097518026423834,-0.06311775096759938,0.5447664206473761
1728062208768986000,1.558986083984375,-0.7834383249282837,1.2604928016662598,2.2696797847747803,0.4945281445980072,0.7376879453659058,-0.4596284031867981,0.1287168562412262,0.37882810831069946,-0.04034122824668884,0.6548777078909322,-0.5168356186150923,-0.05537819502871229,0.548588395213572
1728062208779016200,1.56901611328125,-0.6321678161621094,1.1357614994049072,2.2269630432128906,0.5165916085243225,0.7294726967811584,-0.44833311438560486,0.12121027708053589,0.2843364477157593,-0.014084666967391968,0.6471178661179046,-0.5230435477459765,-0.047527834840661004,0.552634504388934
1728062208789046300,1.57904638671875,-0.5781897902488708,1.0005998611450195,2.0654351711273193,0.5369806885719299,0.7207568883895874,-0.43836185336112976,0.09583157300949097,0.1975628137588501,-0.03678178787231445,0.6397937095492134,-0.528406118241534,-0.04007553830746696,0.556637066531455
1728062208799077400,1.589077392578125,-0.6234195828437805,0.9098132848739624,1.858361005783081,0.5552210211753845,0.7126198410987854,-0.4288385212421417,0.0596773624420166,0.1734427809715271,-0.0695137083530426,0.6328769683703499,-0.5333466665372889,-0.033497395782225006,0.5602552181810063
1728062208809107200,1.599107177734375,-0.6215904951095581,0.8923062086105347,1.7449769973754883,0.5717886090278625,0.7051733732223511,-0.41927120089530945,0.03563302755355835,0.20937740802764893,-0.10309833288192749,0.6262693328690763,-0.5381462930944297,-0.02762176477467609,0.5634025308164304
1728062208819138300,1.60913818359375,-0.4979427754878998,0.9044967889785767,1.724012851715088,0.5877086520195007,0.6974590420722961,-0.41006022691726685,0.04899466037750244,0.25620001554489136,-0.15160071849822998,0.6199429957214181,-0.5426767723937046,-0.02172127860352519,0.566304469998225
1728062208829168400,1.61916845703125,-0.3736104369163513,0.8976343274116516,1.6973072290420532,0.6032954454421997,0.6889948844909668,-0.4016474485397339,0.07163107395172119,0.2969975471496582,-0.18660953640937805,0.6139709224922678,-0.5467510590751239,-0.015477652645567237,0.5690899936002293
1728062208839199200,1.62919921875,-0.28339219093322754,0.856609046459198,1.6321625709533691,0.6182502508163452,0.6800976991653442,-0.3939969539642334,0.07050073146820068,0.3366411328315735,-0.18153420090675354,0.6083529706199695,-0.5503799140430142,-0.009136066754612638,0.5717561259658147
1728062208849229300,1.639229248046875,-0.1752380132675171,0.7971643805503845,1.5602267980575562,0.6323015093803406,0.671001136302948,-0.38723674416542053,0.0606151819229126,0.3572124242782593,-0.15745645761489868,0.6031539119978117,-0.5535100645377045,-0.002870963929618881,0.5743027957956836
1728062208859259100,1.649259033203125,-0.08382255584001541,0.7307224273681641,1.4960787296295166,0.6454424262046814,0.6617144346237183,-0.3814943730831146,0.0510295033454895,0.33886539936065674,-0.14143973588943481,0.598390887942074,-0.5560952250906768,0.003302979500314251,0.5767802656604102
1728062208869290200,1.659290283203125,-0.01743367314338684,0.6763023138046265,1.4564063549041748,0.6578313708305359,0.6522636413574219,-0.3765767514705658,0.035588860511779785,0.3051643967628479,-0.12508666515350342,0.5939538880229202,-0.5582326164518971,0.009379019359014605,0.5792298070756642
1728062208879320000,1.669320068359375,0.06003102660179138,0.6446577310562134,1.4316153526306152,0.6696642637252808,0.6425948143005371,-0.37231937050819397,0.015317857265472412,0.27007919549942017,-0.12034136056900024,0.5897707966783018,-0.5600019744199088,0.015430623038837774,0.5816615266047294
1728062208889351200,1.67935107421875,0.16990666091442108,0.6356242895126343,1.415265679359436,0.6811423897743225,0.6325359344482422,-0.3687050938606262,-0.0076195597648620605,0.2334461808204651,-0.1399926245212555,0.5858648331943341,-0.5614080380901966,0.021644097008099078,0.5840505703561334
1728062208899381200,1.68938134765625,0.2878078818321228,0.6556546092033386,1.3712526559829712,0.6922848224639893,0.6220951676368713,-0.365703821182251,-0.023690640926361084,0.19872093200683594,-0.18181222677230835,0.5823427147845714,-0.562455841217227,0.0281339333626819,0.5862839399930762
1728062208909411000,1.6994111328125,0.39655378460884094,0.6953855156898499,1.3096510171890259,0.7030056715011597,0.6115090847015381,-0.3630971908569336,-0.04588615894317627,0.17190766334533691,-0.21478381752967834,0.5792709890516072,-0.563236501623132,0.03487177809140886,0.5882123001935985
1728062208919442200,1.709442138671875,0.5100042223930359,0.6974424123764038,1.3048917055130005,0.7134780287742615,0.6005833745002747,-0.3608998954296112,-0.0627671480178833,0.15716814994812012,-0.2276623249053955,0.5765554825627248,-0.5637310949487216,0.04192022707117338,0.5899438080609051
1728062208929472300,1.71947216796875,0.5755509734153748,0.6770135760307312,1.2936742305755615,0.7237225770950317,0.5892438292503357,-0.3591897785663605,-0.044264137744903564,0.13814270496368408,-0.23950427770614624,0.5740872269743453,-0.5639013003336708,0.049197859374168006,0.5916237840262921
1728062208939503000,1.729503173828125,0.5731102824211121,0.6183523535728455,1.2778880596160889,0.7335732579231262,0.577781081199646,-0.35782590508461,-0.03987836837768555,0.11563938856124878,-0.21765953302383423,0.5717284504365593,-0.5638309536332636,0.056406572209039156,0.5933292228193882
1728062208949533200,1.739533203125,0.5134781002998352,0.5534921288490295,1.2254695892333984,0.7428738474845886,0.5665277242660522,-0.3566294312477112,-0.037521302700042725,0.09387266635894775,-0.17715373635292053,0.5693683616853984,-0.5636331214490822,0.06326922951840425,0.5950917767632432
1728062208959563300,1.749563232421875,0.38751986622810364,0.47703349590301514,1.1420769691467285,0.7513604760169983,0.5560551881790161,-0.3553310036659241,-0.03554034233093262,0.07933610677719116,-0.14767515659332275,0.5669401047142298,-0.5634849202848882,0.06942072349069577,0.5968622105978687
1728062208969594400,1.759594482421875,0.2813558876514435,0.413722425699234,1.1066182851791382,0.7591413855552673,0.5464006066322327,-0.35376664996147156,-0.04400789737701416,0.09384298324584961,-0.11678409576416016,0.564352821409401,-0.5634851225169015,0.07484113755132175,0.5986562478885551
1728062208979624200,1.769624267578125,0.2630193531513214,0.3476394712924957,1.1511958837509155,0.7665907144546509,0.5368549823760986,-0.35231441259384155,-0.033268749713897705,0.12636834383010864,-0.10326740145683289,0.5615761903943896,-0.5634365638694179,0.07988759415380245,0.6006574593262066
1728062208989655300,1.7796552734375,0.32208719849586487,0.3027303218841553,1.2228578329086304,0.7740738391876221,0.5266637206077576,-0.35133326053619385,-0.015284955501556396,0.1503535509109497,-0.10849052667617798,0.5586719196521731,-0.5631196791692785,0.08502703637012508,0.6029530009448127
1728062208999685400,1.789685302734375,0.4013693630695343,0.25570428371429443,1.245068907737732,0.7815214991569519,0.5157424807548523,-0.35104697942733765,-0.01194453239440918,0.14876264333724976,-0.11661991477012634,0.5558250054353545,-0.5624102590823803,0.09039478086177334,0.6054602706112578
1728062209009716200,1.79971630859375,0.43287163972854614,0.2186298966407776,1.2019267082214355,0.7886244058609009,0.5046164989471436,-0.3513316810131073,-0.02643275260925293,0.122397780418396,-0.11277985572814941,0.5531672773836144,-0.5613913725094306,0.09578038943642621,0.6080065309965162
1728062209019746300,1.809746337890625,0.4069567620754242,0.16712670028209686,1.1239736080169678,0.7951431274414062,0.49388232827186584,-0.35189127922058105,-0.04390740394592285,0.08683672547340393,-0.10866490006446838,0.5507017484910987,-0.5602467429274535,0.10088578525659134,0.6104695760606303
1728062209029776400,1.8197763671875,0.32897594571113586,0.09092967212200165,1.031919002532959,0.8008784055709839,0.4839564263820648,-0.35267552733421326,-0.05478471517562866,0.05232909321784973,-0.08479419350624084,0.5483716938533503,-0.5590647376299271,0.10539858629579174,0.6128835766121362
1728062209039807200,1.82980712890625,0.20759917795658112,0.036688536405563354,0.9466160535812378,0.8058456182479858,0.47504621744155884,-0.35347405076026917,-0.053999483585357666,0.03519248962402344,-0.06727200746536255,0.5460578477826905,-0.557983215894793,0.10916823513575812,0.6152705440196258
1728062209049837000,1.839837158203125,0.07808459550142288,0.01686849072575569,0.8689146041870117,0.8102155327796936,0.46720483899116516,-0.35393592715263367,-0.042484939098358154,0.0389750599861145,-0.06496381759643555,0.5436451858822342,-0.5571717910747768,0.11221245663078581,0.617590472718317
1728062209059868400,1.849868408203125,-0.06503288447856903,-0.020122017711400986,0.8092960119247437,0.8141175508499146,0.46035802364349365,-0.35395359992980957,-0.029144585132598877,0.05268830060958862,-0.047703683376312256,0.5410598701252153,-0.5566831487255058,0.11457340806126201,0.6198637444405765
1728062209069898200,1.859898193359375,-0.19833707809448242,-0.08084022998809814,0.7644654512405396,0.8175376057624817,0.45442187786102295,-0.3537416458129883,-0.00796741247177124,0.06916829943656921,-0.024783313274383545,0.5382792704449588,-0.556438070384188,0.11621464574903441,0.6221947829182031
1728062209079928000,1.869927978515625,-0.3259669542312622,-0.1784336268901825,0.7124475240707397,0.8204171657562256,0.449309378862381,-0.3536055386066437,0.01712244749069214,0.08894455432891846,-0.016862839460372925,0.5353291913106653,-0.5563118367852211,0.1171083414689434,0.6246803502575186
1728062209089959200,1.879959228515625,-0.43508997559547424,-0.24697300791740417,0.6447973847389221,0.8226836919784546,0.4450979232788086,-0.35366544127464294,0.028710782527923584,0.10984903573989868,-0.0051451921463012695,0.5322646656838371,-0.5562627735921951,0.11721349723856916,0.6273172668284095
1728062209099989200,1.8899892578125,-0.4950565695762634,-0.27092334628105164,0.5924537181854248,0.8244931101799011,0.44167041778564453,-0.3537491261959076,0.0256350040435791,0.13227379322052002,0.003666490316390991,0.5291660434392983,-0.5563217166500714,0.11675435479881327,0.629966652516952
1728062209110020000,1.90002001953125,-0.5007815957069397,-0.24577271938323975,0.5566616654396057,0.8260871767997742,0.4387165904045105,-0.35370543599128723,0.02159935235977173,0.1470072865486145,0.0005405843257904053,0.5261068681651553,-0.556485366102332,0.1160660178761542,0.6325062189317759
1728062209120050200,1.91005029296875,-0.46952030062675476,-0.21007438004016876,0.5188013315200806,0.827632486820221,0.43600326776504517,-0.35344836115837097,0.018863976001739502,0.1467452049255371,-0.008414030075073242,0.5231720526594401,-0.5567368334398873,0.11541192968907786,0.6348348333824034
1728062209130081300,1.920081298828125,-0.4218047857284546,-0.17729495465755463,0.4566916525363922,0.8290634155273438,0.4335453510284424,-0.35311809182167053,0.019111454486846924,0.14027675986289978,-0.01889139413833618,0.5204906524993059,-0.5570033097660296,0.1148401921107921,0.6369054812145712
1728062209140111000,1.930111083984375,-0.3904033303260803,-0.16568242013454437,0.3815838396549225,0.8302755355834961,0.4315125048160553,-0.35275986790657043,0.01973038911819458,0.13306275010108948,-0.03092256188392639,0.518114406436581,-0.5572826625558953,0.11426327999972732,0.6386997600144114
1728062209150141200,1.94014111328125,-0.3489435017108917,-0.2085779458284378,0.31151846051216125,0.8311017751693726,0.42996978759765625,-0.3526979386806488,0.005751073360443115,0.1264267861843109,0.00023499131202697754,0.5160798028358976,-0.5574565952857028,0.11354810425804213,0.6403206979857424
1728062209160172300,1.95017236328125,-0.28254687786102295,-0.2292308807373047,0.2652926445007324,0.8315430283546448,0.4287126660346985,-0.3531879782676697,-0.005920529365539551,0.11710959672927856,0.022697657346725464,0.5143957689182281,-0.5573996516687239,0.11274590899202303,0.6418653118622555
1728062209170202400,1.960202392578125,-0.1801411509513855,-0.18633878231048584,0.21172530949115753,0.8318077921867371,0.42758265137672424,-0.353933185338974,-0.008230149745941162,0.11465370655059814,0.002721458673477173,0.5130973456541916,-0.5571950327566918,0.11210310269873022,0.6431932666348141
1728062209180233200,1.970233154296875,-0.03663706034421921,-0.10866168886423111,0.17941157519817352,0.8320977687835693,0.4263811707496643,-0.3547004461288452,-0.016042649745941162,0.12458327412605286,-0.006734728813171387,0.5122502981706618,-0.5568928487571411,0.11189342698248272,0.6441660144259386
1728062209190263300,1.98026318359375,0.1353309601545334,-0.021892433986067772,0.17866802215576172,0.8326053023338318,0.42476868629455566,-0.35544338822364807,-0.006570935249328613,0.135183185338974,-0.028696835041046143,0.511863330162364,-0.5564640390188484,0.11236583935999017,0.6447617169269882
1728062209200293400,1.99029345703125,0.2994711995124817,0.042292676866054535,0.17822220921516418,0.8333988189697266,0.4225129783153534,-0.3562714755535126,0.019674181938171387,0.13896477222442627,-0.06339120864868164,0.5118937714392412,-0.5558420521348855,0.11359525780636597,0.6450586033982747
1728062209210324200,2.00032421875,0.42095237970352173,0.055460356175899506,0.1827772855758667,0.8343334197998047,0.4197334349155426,-0.35736745595932007,0.034639179706573486,0.13655629754066467,-0.053994446992874146,0.5122993866110768,-0.5549778170339509,0.11539452578820943,0.6451611978232612
1728062209220354300,2.010354248046875,0.5044888257980347,0.01732650212943554,0.2032090574502945,0.8352726697921753,0.41648322343826294,-0.35897257924079895,0.04102414846420288,0.11733031272888184,-0.008642375469207764,0.5129557123387318,-0.5538058394419748,0.1175278928420553,0.6452617683930273
1728062209230385400,2.020385498046875,0.5315135717391968,-0.03768215328454971,0.2252110242843628,0.8361164331436157,0.4128093719482422,-0.36124470829963684,0.05051058530807495,0.07856950163841248,0.015251457691192627,0.5137193696575048,-0.5522961044514896,0.11977751337786018,0.6455345086395993
1728062209240415200,2.030415283203125,0.5097033381462097,-0.041653409600257874,0.23365777730941772,0.8368953466415405,0.40901073813438416,-0.3637532889842987,0.044467389583587646,0.03987240791320801,0.022383451461791992,0.5144585728886498,-0.550674497279347,0.12198754021465774,0.6459172115284213
1728062209250446300,2.0404462890625,0.5004629492759705,0.01680643856525421,0.2517526149749756,0.8378122448921204,0.40517207980155945,-0.36593207716941833,0.019014358520507812,0.017847418785095215,0.03121507167816162,0.5150788370514419,-0.5491818921612638,0.12423045769812086,0.6462661254975718
1728062209260476200,2.05047607421875,0.5032342076301575,0.08983153849840164,0.2775477170944214,0.8390549421310425,0.4011473059654236,-0.36751553416252136,-0.00035578012466430664,-0.000008910894393920898,0.02579474449157715,0.5155781622614282,-0.5478953258021299,0.12670022821773252,0.646480442213703
1728062209270506200,2.06050634765625,0.49915531277656555,0.1633579432964325,0.28898200392723083,0.8406221866607666,0.39696744084358215,-0.3684713542461395,-0.010010182857513428,-0.009897679090499878,0.0068531334400177,0.5159755492883195,-0.5468258369607842,0.12940569091042345,0.6465329333586913
1728062209280537000,2.070537109375,0.4925514757633209,0.21964193880558014,0.3117640018463135,0.8425037860870361,0.3926558196544647,-0.3687933683395386,-0.00427776575088501,-0.009171903133392334,-0.00982317328453064,0.5162403462502574,-0.5459831867941296,0.13230902116241197,0.646445997519664
1728062209290567200,2.080567138671875,0.5211130976676941,0.2210819125175476,0.3917160928249359,0.8447006940841675,0.3878554105758667,-0.36884805560112,0.010569512844085693,-0.013084203004837036,-0.005434989929199219,0.5163411885984411,-0.5451803404008264,0.13547828558780667,0.6463867213802525
1728062209300598300,2.090598388671875,0.5422558784484863,0.19663900136947632,0.48256611824035645,0.8471507430076599,0.38219600915908813,-0.3691366910934448,0.02804744243621826,-0.04013964533805847,0.010371863842010498,0.516236812283216,-0.5441792630291803,0.13892651915070184,0.6465817885250702
1728062209310628000,2.100628173828125,0.5334197878837585,0.19836527109146118,0.5258027911186218,0.8498005867004395,0.3758937418460846,-0.369517058134079,0.032752394676208496,-0.07250314950942993,0.011911869049072266,0.5159312573447284,-0.5430622213026429,0.14256542490644986,0.6469724946615485
1728062209320658200,2.110658203125,0.4780704081058502,0.22417965531349182,0.5273151993751526,0.8525402545928955,0.36952024698257446,-0.3696349263191223,0.012480378150939941,-0.09126091003417969,0.024648725986480713,0.5154523911487664,-0.542045413705804,0.1461824565127175,0.6473996684040639
1728062209330689300,2.120689208984375,0.39654624462127686,0.27200549840927124,0.5255388617515564,0.8553758263587952,0.3634290397167206,-0.36912262439727783,-0.003462553024291992,-0.0875653326511383,0.03623667359352112,0.5147585387899308,-0.5413329089777759,0.14965752871483823,0.647753725758662
1728062209340719000,2.130718994140625,0.32846641540527344,0.30294322967529297,0.5429226756095886,0.8583554625511169,0.3575476109981537,-0.3679477870464325,0.0046509504318237305,-0.06151175498962402,0.01766681671142578,0.5137938965391381,-0.5409394359397378,0.15300534535630791,0.6480661288674219
1728062209350750200,2.140750244140625,0.304252952337265,0.29510554671287537,0.5841782093048096,0.8614545464515686,0.3515545725822449,-0.3664769232273102,0.02387547492980957,-0.018424659967422485,0.0008303821086883545,0.5125878663623988,-0.5406721316328759,0.156317559605735,0.6484535793758287
1728062209360780300,2.1507802734375,0.3267574608325958,0.28773683309555054,0.6358951926231384,0.8646385669708252,0.3451615869998932,-0.36505281925201416,0.04429680109024048,0.025031983852386475,-0.01956045627593994,0.5112299923058023,-0.540335840394995,0.1597209142490995,0.6489763257717895
1728062209370811100,2.16081103515625,0.3958723545074463,0.2766234576702118,0.6700497269630432,0.867910623550415,0.33818256855010986,-0.3638181984424591,0.060357630252838135,0.0486583411693573,-0.04700964689254761,0.5098537905027762,-0.5398107684524236,0.16338676332185775,0.6495831047926354
1728062209380841200,2.17084130859375,0.45804470777511597,0.26413795351982117,0.6942948698997498,0.8711702823638916,0.3307168483734131,-0.3628893494606018,0.05958521366119385,0.04347452521324158,-0.038798511028289795,0.5085633711377416,-0.5390441322917676,0.16729239440076402,0.6502368479013715
1728062209390871300,2.180871337890625,0.5172326564788818,0.24365024268627167,0.6998350620269775,0.8743898272514343,0.3228156566619873,-0.362260103225708,0.04898035526275635,0.01946955919265747,-0.012343347072601318,0.5073885787294009,-0.5380353881627712,0.17142888734613299,0.6509123288402475
1728062209400902100,2.190902099609375,0.4980632960796356,0.247099831700325,0.6458210945129395,0.8774291276931763,0.3150404095649719,-0.36175641417503357,0.03252863883972168,-0.01833316683769226,0.0053719282150268555,0.5063539443106309,-0.5369450158454527,0.17553301347333353,0.6515242853130128
1728062209410932200,2.20093212890625,0.44012781977653503,0.2440321445465088,0.5925171375274658,0.8802458643913269,0.3079211413860321,-0.3610423505306244,0.002932608127593994,-0.03626886010169983,0.042102962732315063,0.5053854607969922,-0.5360164334026153,0.17934660072240466,0.6520019887572115
1728062209420963300,2.21096337890625,0.36833518743515015,0.2109879106283188,0.5658266544342041,0.8828256130218506,0.3013809621334076,-0.3602614998817444,-0.005475938320159912,-0.04350736737251282,0.06793341040611267,0.5043914287489834,-0.5352156339506259,0.1827935255823752,0.6524721959884019
1728062209430993400,2.220993408203125,0.29081565141677856,0.17102158069610596,0.5602172017097473,0.8851872682571411,0.2952449321746826,-0.3595468997955322,0.0034081339836120605,-0.044253021478652954,0.062305450439453125,0.5032601917967351,-0.5344984760057785,0.18584382113910283,0.6530717261478906
1728062209441023200,2.231023193359375,0.27608489990234375,0.14706505835056305,0.5714967846870422,0.8874111771583557,0.2892378568649292,-0.3589468002319336,0.005731344223022461,-0.035209447145462036,0.05299258232116699,0.5020054095343875,-0.5337919609792033,0.18866037402107827,0.6538072839456177
1728062209451054300,2.241054443359375,0.28755831718444824,0.13799458742141724,0.5396243333816528,0.8895052671432495,0.28326839208602905,-0.35852375626564026,-0.002176344394683838,-0.03935655951499939,0.034625232219696045,0.5008036971818673,-0.5330068011794437,0.1914206716517091,0.6545666334969548
1728062209461084200,2.251084228515625,0.27707457542419434,0.17445476353168488,0.47842010855674744,0.8914931416511536,0.27772313356399536,-0.35792458057403564,-0.018278539180755615,-0.0478188693523407,0.020552515983581543,0.49974038889578654,-0.5323206971405842,0.19409375798441172,0.6551503115461753
1728062209471115000,2.261114990234375,0.27418214082717896,0.18720197677612305,0.45582371950149536,0.8934292197227478,0.2726173996925354,-0.3570207953453064,-0.03333723545074463,-0.04762646555900574,0.027888476848602295,0.4987715355762042,-0.5317940631027306,0.19668419407455415,0.6555435104124401
1728062209481145000,2.27114501953125,0.26541566848754883,0.16826851665973663,0.45956918597221375,0.8952950835227966,0.26756182312965393,-0.3561702370643616,-0.024460911750793457,-0.058729976415634155,0.03607115149497986,0.49782355346374974,-0.5312446380952405,0.19923356671446668,0.6559395684200696
1728062209491175200,2.281175048828125,0.2005743533372879,0.15348370373249054,0.451483815908432,0.8970711827278137,0.2626454830169678,-0.3553599417209625,-0.0059580206871032715,-0.07499280571937561,0.03709191083908081,0.49679391936994544,-0.5307286151068138,0.2016114054535922,0.6564113132054001
1728062209501206300,2.291206298828125,0.14481349289417267,0.14821863174438477,0.4609593451023102,0.8987895846366882,0.25798285007476807,-0.3544323146343231,-0.0004132390022277832,-0.0773034393787384,0.037323951721191406,0.4956046655703373,-0.5303501203233584,0.20374637517290656,0.6569568257783843
1728062209511236000,2.301236083984375,0.13116265833377838,0.1315126270055771,0.4857102334499359,0.9005008935928345,0.2532205283641815,-0.35352152585983276,0.003307521343231201,-0.08058252930641174,0.023672044277191162,0.49426311609602436,-0.5299845055720668,0.2058048994867298,0.6576205162890748
1728062209521267200,2.31126708984375,0.11024533212184906,0.16075365245342255,0.4890058934688568,0.9022218585014343,0.24838802218437195,-0.35256069898605347,0.0037380456924438477,-0.08723986148834229,0.005926549434661865,0.4928324641073419,-0.5296413887021449,0.20784523703316973,0.6583285804582256
1728062209531297300,2.32129736328125,0.12056614458560944,0.18816104531288147,0.483055055141449,0.9040273427963257,0.24362286925315857,-0.35125812888145447,-0.013509392738342285,-0.0683603584766388,-0.0008386075496673584,0.49135389416637987,-0.5294353641916222,0.20992647692674316,0.6589387681381633
1728062209541328100,2.331328125,0.14753670990467072,0.2119656503200531,0.4929865002632141,0.905911386013031,0.2387191504240036,-0.34976789355278015,-0.021618962287902832,-0.047404393553733826,-0.002939194440841675,0.4898875310137155,-0.5292483828670207,0.21216079190945716,0.6594649562240472
1728062209551358200,2.341358154296875,0.18320362269878387,0.2332424372434616,0.5292438864707947,0.9078872799873352,0.23354671895503998,-0.3481329679489136,-0.01640796661376953,-0.03170338273048401,-0.00672563910484314,0.4884044856408704,-0.5290435462978207,0.21458433974487465,0.6599450815287087
1728062209561388300,2.35138818359375,0.2508372664451599,0.24176375567913055,0.603338897228241,0.9100277423858643,0.22766734659671783,-0.3464345633983612,-0.005425930023193359,-0.015646427869796753,-0.0014354884624481201,0.48684297278594574,-0.5287081661869415,0.2173715676860019,0.6604552028154996
1728062209571419100,2.361419189453125,0.33324530720710754,0.21302399039268494,0.6733741164207458,0.9122619032859802,0.2207968384027481,-0.3450026214122772,0.01139819622039795,-0.02591150999069214,-0.0007159411907196045,0.48525189021805143,-0.5280463871850489,0.2206030273574282,0.6610838121533729
1728062209581449200,2.37144921875,0.3539259731769562,0.19386285543441772,0.6731834411621094,0.9144325852394104,0.21339520812034607,-0.34391191601753235,0.010616064071655273,-0.054688483476638794,0.0028015077114105225,0.48369456288851587,-0.5271185310995531,0.22403144957067136,0.6618122624279092
1728062209591480300,2.381480224609375,0.34451302886009216,0.19348657131195068,0.6406146287918091,0.9164747595787048,0.20617981255054474,-0.3428756594657898,-0.015763938426971436,-0.06079402565956116,0.010432213544845581,0.4822206985060622,-0.5261731702492423,0.22738505772494277,0.662495977636489
1728062209601510400,2.391510498046875,0.3281744718551636,0.18858379125595093,0.6235362887382507,0.918412446975708,0.1992337852716446,-0.3417961597442627,-0.04344296455383301,-0.05160488188266754,0.007307976484298706,0.480791722563325,-0.5252765004651556,0.2306220098844668,0.6631270795004368
1728062209611540200,2.401540283203125,0.29252031445503235,0.21854302287101746,0.6192238330841064,0.920314610004425,0.19246581196784973,-0.3405555188655853,-0.0649680495262146,-0.03233999013900757,-0.0037287473678588867,0.4793168556746805,-0.5244761803077238,0.23376693382108585,0.6637267476961293
1728062209621571300,2.4115712890625,0.2918769121170044,0.27957314252853394,0.6539930105209351,0.9223650097846985,0.1856672316789627,-0.338778018951416,-0.08622926473617554,-0.0018139928579330444,-0.011945486068725586,0.4776640851731066,-0.5238852725411528,0.23697089669093185,0.6642484971298351
1728062209631601400,2.421601318359375,0.34881874918937683,0.2896649241447449,0.7030497789382935,0.9245836734771729,0.17827638983726501,-0.3366933763027191,-0.09656566381454468,0.0034711062908172607,-0.00441703200340271,0.475892797185968,-0.5232641216867329,0.24051604162577173,0.6647349904280643
1728062209641632300,2.43163232421875,0.36477163434028625,0.302904337644577,0.6744372844696045,0.9267847537994385,0.17065386474132538,-0.33458539843559265,-0.10100972652435303,-0.01888987421989441,0.012426316738128662,0.4741756776698106,-0.5225507572760802,0.2442294268082651,0.6651693287150147
1728062209651662000,2.441662109375,0.3750050961971283,0.31662920117378235,0.6277928352355957,0.928910493850708,0.1633952558040619,-0.3323061466217041,-0.11946237087249756,-0.016422510147094727,0.035400390625,0.472585318764063,-0.5219193994196456,0.24788519307387005,0.66544440795291
1728062209661692200,2.451692138671875,0.41817745566368103,0.315824031829834,0.6084803938865662,0.9309478998184204,0.1563333123922348,-0.32999393343925476,-0.12291884422302246,-0.0016091018915176392,0.03980201482772827,0.4711770860439411,-0.5212622559661408,0.2515724555329567,0.6655743452882106
1728062209671723000,2.461722900390625,0.4416279196739197,0.3340483009815216,0.617539644241333,0.9329590201377869,0.1492116004228592,-0.3276025354862213,-0.10779434442520142,0.008732214570045471,0.0293540358543396,0.46984282412494865,-0.5205635307425085,0.25536706453091623,0.6656192699696283
1728062209681753000,2.471753173828125,0.45977577567100525,0.32522818446159363,0.6271573901176453,0.9349506497383118,0.14190495014190674,-0.3251621425151825,-0.09222298860549927,0.02394293248653412,0.024365395307540894,0.4685236146725752,-0.5198000626982137,0.25928136174535615,0.6656326066086878
1728062209691784200,2.4817841796875,0.4505130350589752,0.3191705644130707,0.6282625794410706,0.9368642568588257,0.13453713059425354,-0.3227768540382385,-0.08328783512115479,0.025039345026016235,0.011634677648544312,0.4671985075432477,-0.5189811293028205,0.2631922385586378,0.6656679680170875
1728062209701814300,2.491814208984375,0.41517525911331177,0.3105089068412781,0.5913282632827759,0.9386671781539917,0.12739646434783936,-0.32042768597602844,-0.09059911966323853,0.01597517728805542,0.008278459310531616,0.4658793206262299,-0.5181896020573415,0.2669563451955416,0.6657102896850575
1728062209711845000,2.50184521484375,0.35410499572753906,0.34963738918304443,0.5391029119491577,0.9404101371765137,0.12087405472993851,-0.3178335428237915,-0.11071360111236572,0.003393605351448059,0.020912528038024902,0.46456545641047203,-0.5176238160647583,0.27046038018415974,0.6656543041535566
1728062209721875200,2.511875244140625,0.3176844120025635,0.3827420771121979,0.5324857234954834,0.9422065019607544,0.11480118334293365,-0.3147497773170471,-0.12837916612625122,0.004171684384346008,0.049704402685165405,0.46316042055212636,-0.5173505429008302,0.27381294025015573,0.665475141618007
1728062209731907300,2.5219072265625,0.2853432297706604,0.39679577946662903,0.530579686164856,0.9440277218818665,0.1088438630104065,-0.31139132380485535,-0.11573505401611328,0.005200400948524475,0.06979873776435852,0.4616342602995492,-0.5172240765226072,0.27709851220309994,0.6652739497757597
1728062209741938700,2.531938720703125,0.2658293843269348,0.4089117646217346,0.542303204536438,0.9458522796630859,0.10293009132146835,-0.30784541368484497,-0.09505283832550049,0.01972014456987381,0.07754427194595337,0.4599882914054049,-0.5171984010264693,0.28032679232356444,0.6650814993347737
1728062209751968300,2.54196826171875,0.3053879737854004,0.41279810667037964,0.5736379623413086,0.9476752281188965,0.0967525914311409,-0.3042214512825012,-0.07150042057037354,0.040347710251808167,0.07401186227798462,0.4582778318906244,-0.5171275980118631,0.283669376152405,0.6649001745131818
1728062209761999400,2.551999267578125,0.3374496400356293,0.4208802580833435,0.5724738836288452,0.9494754672050476,0.09030113369226456,-0.3005693554878235,-0.040738463401794434,0.03706406056880951,0.04210051894187927,0.456604050865849,-0.5169487928062819,0.2871920512413485,0.6646783762861228
1728062209772029400,2.562029541015625,0.3498293459415436,0.40654927492141724,0.5517723560333252,0.9512104988098145,0.0839230939745903,-0.296909898519516,-0.026985764503479004,0.036255210638046265,0.037617027759552,0.455019038861391,-0.5167362210169699,0.29073825840639317,0.6643889024721985
1728062209782059500,2.5720595703125,0.3618888854980469,0.3545610010623932,0.5563803911209106,0.9527807831764221,0.07761014997959137,-0.2935737669467926,-0.01872926950454712,0.03295513242483139,0.044962018728256226,0.45355187979983946,-0.5163809929376842,0.29421725213412936,0.6641367699384677
1728062209792090400,2.58209033203125,0.3437942862510681,0.30174198746681213,0.5622715950012207,0.9541488289833069,0.07124495506286621,-0.29073071479797363,-0.00624239444732666,0.010435424745082855,0.03658008575439453,0.4521293911716331,-0.5158329774083523,0.29757517006108236,0.6640364966756923
1728062209802120400,2.592120361328125,0.26852133870124817,0.3052578866481781,0.5513992309570312,0.9553948044776917,0.06501468271017075,-0.2880867123603821,-0.009716153144836426,-0.01917719841003418,0.04017692804336548,0.45063391818416626,-0.5152874593210894,0.30072492828329056,0.664057568380762
1728062209812151600,2.602151611328125,0.15991494059562683,0.3395247757434845,0.5180812478065491,0.9566552042961121,0.05928214266896248,-0.28512558341026306,-0.033513784408569336,-0.043718092143535614,0.05084192752838135,0.4489199611696858,-0.5150711517985256,0.30354392610755837,0.6641037159558172
1728062209822181400,2.612181396484375,0.05385389178991318,0.3543933629989624,0.4806033670902252,0.9579283595085144,0.0542045421898365,-0.2818421423435211,-0.058117687702178955,-0.05898045748472214,0.062237441539764404,0.44700822786862515,-0.5152310447491582,0.3059671485516828,0.6641570733409237
1728062209832212500,2.62221240234375,0.013348806649446487,0.3573431074619293,0.49029967188835144,0.9591850638389587,0.04952175170183182,-0.27840936183929443,-0.07177966833114624,-0.04775163158774376,0.07255277037620544,0.4449247813845605,-0.5156294348246495,0.30809350103789573,0.6642640550357098
1728062209842242600,2.63224267578125,0.04363773763179779,0.33926650881767273,0.5084983706474304,0.9603896737098694,0.04463085159659386,-0.2750634253025055,-0.06164705753326416,-0.021956201642751694,0.050255417823791504,0.4427801259984115,-0.5159592237820056,0.3102488756273898,0.664437750072388
1728062209852272400,2.6422724609375,0.09609775245189667,0.3694950044155121,0.5031281113624573,0.9615662097930908,0.0395645946264267,-0.2717074155807495,-0.051745831966400146,0.00998077541589737,0.012338310480117798,0.4407203241432735,-0.5161882509311111,0.3125635634331637,0.6645443684442758
1728062209862303500,2.652303466796875,0.20653897523880005,0.3953779935836792,0.5008931756019592,0.9627955555915833,0.034359052777290344,-0.26803749799728394,-0.0554165244102478,0.046833038330078125,-0.008970767259597778,0.4388342856258042,-0.5163654838853261,0.3151950699641869,0.6644118863149413
1728062209872333600,2.66233349609375,0.3305980861186981,0.38838958740234375,0.5354751348495483,0.964006781578064,0.028663545846939087,-0.26432767510414124,-0.05150085687637329,0.05632799118757248,-0.014359086751937866,0.4371908806636141,-0.5162647290869095,0.3182874337595605,0.6640992897156862
1728062209882364400,2.672364501953125,0.42021164298057556,0.374554842710495,0.5743586421012878,0.9651597738265991,0.022284964099526405,-0.26071056723594666,-0.036525189876556396,0.03743802011013031,-0.016297757625579834,0.4356976787144695,-0.5158236373413165,0.3218240046170237,0.6637189169822604
1728062209892394500,2.68239453125,0.445917546749115,0.3539574146270752,0.5639573931694031,0.966205894947052,0.015605409629642963,-0.25729900598526,-0.028614342212677002,-0.004725798964500427,-0.01209518313407898,0.4343379295837698,-0.5151412076401553,0.32554574820446164,0.6633250840955027
1728062209902424600,2.692424560546875,0.41530242562294006,0.34878137707710266,0.5138089656829834,0.967170774936676,0.009274777956306934,-0.25395795702934265,-0.040291011333465576,-0.0391056165099144,-0.0003452897071838379,0.43309195376494186,-0.5144792335513784,0.3291384805085477,0.6628803392274707
1728062209912455700,2.70245556640625,0.36605072021484375,0.3784724473953247,0.48120683431625366,0.9681140184402466,0.0034849357325583696,-0.2504861056804657,-0.05386835336685181,-0.05006992816925049,0.0031256377696990967,0.431858275365476,-0.5140081822146074,0.3324944082922038,0.6623757082232702
1728062209922485500,2.712485595703125,0.3152911365032196,0.42389020323753357,0.48519039154052734,0.9691143035888672,-0.0020086101721972227,-0.24660350382328033,-0.04998600482940674,-0.04077695310115814,-0.002938985824584961,0.43048107798838675,-0.5137972650037331,0.3357240210789112,0.6618063994411529
1728062209932516600,2.7225166015625,0.25080960988998413,0.47212138772010803,0.49118757247924805,0.9701932072639465,-0.007444072514772415,-0.2422182410955429,-0.027825772762298584,-0.016634216532111168,-0.014312744140625,0.4288345704257127,-0.5138529669874489,0.3388893751134454,0.6612185834406272
1728062209942546400,2.73254638671875,0.2132599800825119,0.4589623212814331,0.48659202456474304,0.9712709784507751,-0.012756885029375553,-0.23763427138328552,-0.005511760711669922,0.007538465782999992,-0.011099517345428467,0.42700357846824916,-0.5140795810766368,0.34191380037132296,0.6606702134437142
1728062209952576500,2.742576416015625,0.17074395716190338,0.4197408854961395,0.47604137659072876,0.9722357988357544,-0.01786608062684536,-0.2333204597234726,0.01882249116897583,0.019361529499292374,0.0044689178466796875,0.4251629087910751,-0.5143011536055825,0.3447232103013433,0.6602248072602392
1728062209962607400,2.752607421875,0.1748003512620926,0.36664828658103943,0.4894642233848572,0.9730507731437683,-0.022955533117055893,-0.22944515943527222,0.04179590940475464,0.02551909163594246,0.014555409550666809,0.4233133774985771,-0.5144136230897275,0.3473557872326969,0.6599456316671914
1728062209972637400,2.762637451171875,0.18488919734954834,0.3286588191986084,0.46438339352607727,0.9737154245376587,-0.02807275950908661,-0.22603148221969604,0.06014376878738403,0.0056424252688884735,0.011187493801116943,0.42158548967985565,-0.5143277774049707,0.3499302782175209,0.659758591814199
1728062209982668300,2.772668212890625,0.1693023145198822,0.343153715133667,0.416326642036438,0.9743391871452332,-0.03274765610694885,-0.22269022464752197,0.04395616054534912,-0.015164855867624283,0.0013459622859954834,0.41999703968810254,-0.5142988430936344,0.3523515064027678,0.6595056800797344
1728062209992698400,2.782698486328125,0.1940063238143921,0.3397243618965149,0.37847593426704407,0.9749581813812256,-0.03702786564826965,-0.21928372979164124,0.017030835151672363,-0.019109133630990982,-0.00619564950466156,0.41855386535293493,-0.5143410357970042,0.35469907814918156,0.659131575640728
1728062210002729500,2.7927294921875,0.19091832637786865,0.38208502531051636,0.32023152709007263,0.9755992889404297,-0.04087115451693535,-0.21572084724903107,0.006837725639343262,-0.025626566261053085,-0.03208214044570923,0.41725686959530983,-0.5144917053434909,0.35698439711195734,0.6586023873965396
1728062210012759600,2.802759521484375,0.1818992644548416,0.43152210116386414,0.25190600752830505,0.9763506650924683,-0.044084228575229645,-0.21165019273757935,-0.004274427890777588,-0.006239168345928192,-0.03876200318336487,0.4160606873118992,-0.5149299435187248,0.35919640736078035,0.6578134275053564
1728062210022789400,2.812789306640625,0.14106988906860352,0.44737768173217773,0.2031664401292801,0.9771819710731506,-0.046613506972789764,-0.20722617208957672,0.00301206111907959,0.01928510144352913,-0.023822665214538574,0.4149435824639756,-0.515650951691081,0.36123538962141977,0.6568371049908291
1728062210032820500,2.822820556640625,0.107841357588768,0.3905458152294159,0.21694457530975342,0.9779553413391113,-0.04886959493160248,-0.20301471650600433,0.03220689296722412,0.038188520818948746,0.013637617230415344,0.41381407844797846,-0.5164218444532445,0.363044240978481,0.6559460246169331
1728062210042850600,2.8328505859375,0.08212853223085403,0.278440922498703,0.23754332959651947,0.978516697883606,-0.051319241523742676,-0.19967877864837646,0.07539266347885132,0.020847506821155548,0.046266645193099976,0.41270433593564565,-0.5169002558141195,0.36465701026364966,0.6553736531198059
1728062210052881400,2.84288134765625,-0.005956314038485289,0.20894894003868103,0.19438573718070984,0.9788777828216553,-0.053535111248493195,-0.1973119080066681,0.0924416184425354,-0.024315141141414642,0.06272915005683899,0.41165986645915464,-0.5172015737137525,0.365850481038428,0.6551274310238614
1728062210062911500,2.852911376953125,-0.1072259470820427,0.20996646583080292,0.12624876201152802,0.9791992902755737,-0.05495549365878105,-0.19531691074371338,0.061404287815093994,-0.053717512637376785,0.06953847408294678,0.4106191675303869,-0.5177109882188446,0.36649267106626193,0.6550193787592994
1728062210072941600,2.862941650390625,-0.14942584931850433,0.2174997478723526,0.12401489168405533,0.979550302028656,-0.05588861554861069,-0.19328168034553528,0.02524089813232422,-0.06322140991687775,0.05499100685119629,0.4094839875954714,-0.5184644233667514,0.36681575482083556,0.6549532926401709
1728062210082972400,2.872972412109375,-0.2117834985256195,0.23234155774116516,0.1210305467247963,0.9799090027809143,-0.056754741817712784,-0.19119907915592194,0.030451595783233643,-0.06688714027404785,0.012991443276405334,0.40820375847019474,-0.5193348636706407,0.36700376387603867,0.6549573546682316
1728062210093002500,2.88300244140625,-0.24907894432544708,0.24784007668495178,0.10851342976093292,0.980307400226593,-0.05741935968399048,-0.18894529342651367,0.04889780282974243,-0.04772887006402016,-0.035572752356529236,0.4067732078900351,-0.5204042151954149,0.3670242622474804,0.6549871389380987
1728062210103033600,2.89303369140625,-0.2561240792274475,0.19676785171031952,0.09791218489408493,0.9806649684906006,-0.057959552854299545,-0.18691377341747284,0.06032001972198486,-0.03748408704996109,-0.05417536199092865,0.4053800195511189,-0.5214481441419258,0.36692635459658673,0.6550754174484623
1728062210113063700,2.903063720703125,-0.33829164505004883,0.1451890766620636,0.09400133043527603,0.9809274077415466,-0.05832616239786148,-0.18541716039180756,0.0664968490600586,-0.059288498014211655,-0.03940612077713013,0.4039912225623978,-0.5224317137428737,0.36654676038520545,0.6553622435165989
1728062210123093200,2.91309326171875,-0.45387977361679077,0.09716375917196274,0.07327128946781158,0.9811028838157654,-0.05842229351401329,-0.1844562441110611,0.047141194343566895,-0.08438463509082794,0.030632123351097107,0.4024600008091602,-0.5234718995803072,0.3657171684404746,0.6559376161805986
1728062210133124600,2.92312451171875,-0.6156825423240662,0.08245299011468887,0.03420431166887283,0.9812309145927429,-0.05795516446232796,-0.1839209944009781,0.00940006971359253,-0.10749578475952148,0.08985032141208649,0.4007210591425963,-0.5247362966257044,0.3642682020488881,0.6567975628284103
1728062210143154400,2.933154541015625,-0.7035242319107056,0.11575368791818619,0.03263650834560394,0.9813973903656006,-0.05700662359595299,-0.1833285689353943,-0.02470189332962036,-0.09790050983428955,0.11794441938400269,0.39868223914036915,-0.5263521694015254,0.3623383916799206,0.6578120853400274
1728062210153185300,2.943185302734375,-0.6670165657997131,0.1408180296421051,0.07489874213933945,0.9816033244132996,-0.056243691593408585,-0.18245992064476013,-0.035100698471069336,-0.06224071979522705,0.10489922761917114,0.3964490765353977,-0.5280625379199079,0.3604441606265127,0.6588309011723815
1728062210163215400,2.95321533203125,-0.5614398121833801,0.1527959704399109,0.09812763333320618,0.9818224310874939,-0.055989623069763184,-0.18135519325733185,-0.012675821781158447,-0.032236602157354355,0.06197017431259155,0.3942622840538704,-0.5296092068279287,0.35893800089215633,0.6597232573630376
1728062210173245400,2.963245361328125,-0.469070702791214,0.14899617433547974,0.10722365975379944,0.9820424318313599,-0.05605890601873398,-0.18013912439346313,0.011976063251495361,-0.014055132865905762,0.027245819568634033,0.39227602516673005,-0.5309505712899464,0.3578015207179043,0.6604461382948278
1728062210183276300,2.9732763671875,-0.4093650281429291,0.1003127247095108,0.07470273226499557,0.9822180867195129,-0.0561879463493824,-0.17913825809955597,0.038762688636779785,-0.02024323120713234,0.006210148334503174,0.39058550540514547,-0.532056039091179,0.35685745374549976,0.6610688623951066
1728062210193306400,2.983306396484375,-0.3984718918800354,0.059280876070261,0.023250466212630272,0.9823324680328369,-0.05594771355390549,-0.17858541011810303,0.05267113447189331,-0.048880066722631454,-0.015338778495788574,0.3892128447730171,-0.5330148464836747,0.35581240214890664,0.6616691279567148
1728062210203337500,2.99333740234375,-0.45694461464881897,0.01911236345767975,0.006475479807704687,0.9823977947235107,-0.05529027059674263,-0.17843042314052582,0.03678238391876221,-0.06848892569541931,0.007577553391456604,0.3879810415104794,-0.5339505848688589,0.3545159554467472,0.6623336309068439
1728062210213367600,3.003367431640625,-0.5686538219451904,-0.0024057114496827126,0.011896876618266106,0.982408344745636,-0.0544452965259552,-0.17863301932811737,0.01785111427307129,-0.07943522185087204,0.05058102309703827,0.3865715932293508,-0.5349580731029602,0.35285032335208333,0.6632337509079869
1728062210223397400,3.0133974609375,-0.6993131041526794,-0.005508985836058855,0.00568425515666604,0.9823923110961914,-0.053372010588645935,-0.17904441058635712,0.007002770900726318,-0.0881989449262619,0.08355468511581421,0.38485441984927743,-0.5361524961287746,0.3507396389529455,0.6643864499833598
1728062210233428500,3.023428466796875,-0.7525789737701416,0.016350772231817245,0.019063709303736687,0.9823994040489197,-0.05218645930290222,-0.1793549358844757,-0.008995413780212402,-0.08711093664169312,0.08873270452022552,0.38282429134841556,-0.5375653140989101,0.3483476224381874,0.6656749599734958
1728062210243458600,3.03345849609375,-0.7630132436752319,0.04454001411795616,0.012093419209122658,0.9824315309524536,-0.05102577432990074,-0.17951296269893646,-0.013177931308746338,-0.0948023796081543,0.05870889127254486,0.38067593269552147,-0.5390556331974592,0.34592273830705644,0.6669650958346608
1728062210253489400,3.043489501953125,-0.7063915133476257,0.08359154313802719,0.011482490226626396,0.9825431704521179,-0.049793846905231476,-0.17924663424491882,-0.02253657579421997,-0.08497167378664017,0.040498197078704834,0.3785334615208076,-0.5406607809794145,0.34360239215564137,0.6680835895401888
1728062210263519500,3.05351953125,-0.594470739364624,0.12471799552440643,0.029112616553902626,0.9827189445495605,-0.048805393278598785,-0.17855341732501984,-0.029502570629119873,-0.04839298501610756,0.041269853711128235,0.37651462637901145,-0.5422139844891051,0.34165375599972986,0.6689643758186682
1728062210273550600,3.063550537109375,-0.39617204666137695,0.14045992493629456,0.06751593202352524,0.9829410314559937,-0.04838400334119797,-0.1774422526359558,-0.018356800079345703,0.002272050827741623,0.02535766363143921,0.37475120092260417,-0.5435388194852954,0.34035925466182426,0.669539094883034
1728062210283580400,3.073580322265625,-0.15941298007965088,0.10833700001239777,0.10119666159152985,0.9831214547157288,-0.04875381290912628,-0.17633900046348572,0.007036685943603516,0.04028528928756714,-0.006583645939826965,0.37349526769100383,-0.5443276302805415,0.3399087050117503,0.6698289793623095
1728062210293610500,3.083610595703125,-0.019294222816824913,0.09616182744503021,0.08482620865106583,0.9832543730735779,-0.04954095557332039,-0.17537547647953033,0.027823448181152344,0.05247074365615845,-0.03521132469177246,0.3727793826459125,-0.5446624499830406,0.34008098569464523,0.669868115506311
1728062210303641600,3.0936416015625,0.011282327584922314,0.07841707766056061,0.045897454023361206,0.9833801984786987,-0.05017413571476936,-0.17448672652244568,0.020296931266784668,0.04455901309847832,-0.020826011896133423,0.3724217722268823,-0.5448495625853899,0.3404344202051282,0.6697351790625458
1728062210313671700,3.103671630859375,-0.049459852278232574,0.03498278185725212,0.03249083459377289,0.9834616184234619,-0.050511009991168976,-0.17393001914024353,-0.00012439489364624023,0.01334071159362793,0.040964677929878235,0.3721580242946705,-0.5450075771775952,0.3405902725596136,0.6696739935661448
1728062210323702500,3.11370263671875,-0.202756866812706,0.013741993345320225,0.02456420473754406,0.9834837913513184,-0.05058453977108002,-0.17378395795822144,-0.010156214237213135,-0.04626288637518883,0.07690566778182983,0.37168403946304457,-0.5452599610752067,0.34029339542118,0.6698828039437492
1728062210333732400,3.123732421875,-0.3451603353023529,0.042120903730392456,-0.0018564858473837376,0.9835255742073059,-0.05022493377327919,-0.17365141212940216,-0.02683013677597046,-0.08846208453178406,0.08299870789051056,0.3708391080509372,-0.545846311658401,0.33944970088329707,0.6703014505357268
1728062210343762400,3.133762451171875,-0.40711691975593567,0.09660689532756805,-0.03283490985631943,0.9836573600769043,-0.0493835024535656,-0.1731453686952591,-0.05049097537994385,-0.08892204612493515,0.06433470547199249,0.36972659869845703,-0.546826813427268,0.33824214726646895,0.6707270855094041
1728062210353793300,3.143793212890625,-0.3655596077442169,0.12629927694797516,-0.03501683473587036,0.9838752150535583,-0.048355188220739365,-0.17219612002372742,-0.056018710136413574,-0.04566936939954758,0.032516881823539734,0.36857936199538116,-0.5479988607015134,0.33704478399906357,0.6710047885069769
1728062210363823400,3.1538232421875,-0.2544318437576294,0.12534266710281372,0.016053538769483566,0.9840984344482422,-0.04769658297300339,-0.1711001843214035,-0.03288084268569946,0.029645543545484543,-0.004131972789764404,0.3675448640249196,-0.5490227430546789,0.3361903231494934,0.6711638189919138
1728062210373854500,3.1638544921875,-0.12421178817749023,0.10691732168197632,0.0532056987285614,0.9842873811721802,-0.04773124307394028,-0.17000021040439606,0.01867276430130005,0.09509463608264923,-0.04270756244659424,0.36670320342894114,-0.5497133446368953,0.33587963994784725,0.6712144420304682
1728062210383884500,3.173884521484375,-0.008552497252821922,0.043697815388441086,0.04327929764986038,0.984390377998352,-0.04813012108206749,-0.16929039359092712,0.051467835903167725,0.12648409605026245,-0.06290288269519806,0.3662307669605457,-0.549995073521231,0.335946754309537,0.6712080869128173
1728062210393914400,3.183914306640625,0.059247322380542755,0.0036462692078202963,0.00867578387260437,0.9844090342521667,-0.048456788063049316,-0.16908814013004303,0.04797005653381348,0.11498521268367767,-0.035364627838134766,0.3661839379965494,-0.5499586567635267,0.33615681414840026,0.6711582527748732
1728062210403945500,3.193945556640625,0.010533313266932964,0.047159016132354736,-0.05305442586541176,0.984454333782196,-0.04830165207386017,-0.16886824369430542,0.026852309703826904,0.07100684940814972,-0.016922995448112488,0.3663480414236132,-0.5499855520790966,0.3362763345479905,0.6709867212447752
1728062210413975600,3.2039755859375,0.12447959184646606,0.10642340779304504,-0.0007267729379236698,0.9846949577331543,-0.04901820793747902,-0.16725189983844757,0.0017094016075134277,0.046622686088085175,-0.004806458950042725,0.3660343875337011,-0.55030993356472,0.33694662204747705,0.6705556561028946
1728062210424006400,3.21400634765625,0.3274678587913513,0.11525285243988037,0.0017773979343473911,0.98490971326828,-0.050511885434389114,-0.1655336171388626,0.03274458646774292,0.024007484316825867,-0.03778998553752899,0.3661018191084955,-0.5502000571577583,0.33839782113045985,0.6698777886835731
1728062210434036500,3.224036376953125,0.48005151748657227,0.14410127699375153,-0.04986715689301491,0.985146164894104,-0.05150182172656059,-0.16381287574768066,0.06577235460281372,0.024097148329019547,-0.10176658630371094,0.36688493310805487,-0.5498965813316218,0.3401577763840295,0.6688063496302397
1728062210444066600,3.234066650390625,0.5226969718933105,0.10456723719835281,-0.09754013270139694,0.9853765964508057,-0.05125950649380684,-0.1624971479177475,0.06944817304611206,0.04947433993220329,-0.08332216739654541,0.36845450978618316,-0.5495093827774481,0.3417467803116872,0.6674502205887475
1728062210454097400,3.244097412109375,0.36954551935195923,0.05465294420719147,-0.16094520688056946,0.9855382442474365,-0.04969324916601181,-0.162003293633461,0.0845605731010437,0.029780641198158264,-0.0435023307800293,0.3703978258602806,-0.5491791079712478,0.3426377991629784,0.6661885336233391
1728062210464127500,3.25412744140625,0.15785059332847595,0.05952588841319084,-0.22824594378471375,0.9856863617897034,-0.046871576458215714,-0.16194197535514832,0.0887153148651123,0.02305271476507187,0.02830524742603302,0.37212615801267834,-0.5492856240435365,0.342511776119057,0.6652014688173172
1728062210474158600,3.26415869140625,0.04916645959019661,0.12714967131614685,-0.3284631073474884,0.9859512448310852,-0.04428355023264885,-0.16105574369430542,0.061656057834625244,0.0528438426554203,0.09062094986438751,0.37316351092655914,-0.5498696940697664,0.34222134320335823,0.6642866824218493
1728062210484188700,3.274188720703125,0.4641001522541046,0.27281734347343445,-0.25554123520851135,0.9864140748977661,-0.04152333736419678,-0.15894299745559692,0.00899285078048706,0.16446350514888763,0.11624868214130402,0.37440822889805825,-0.5507072419599824,0.34241792847752484,0.6627894536022529
1728062210494218500,3.284218505859375,1.5707879066467285,0.32279127836227417,0.050939880311489105,0.9869312644004822,-0.042007263749837875,-0.15556959807872772,-0.020775437355041504,0.29124441742897034,0.014364555478096008,0.37698967572565933,-0.5500195748666251,0.3459677282768356,0.6600480723495727
1728062210504249600,3.29424951171875,2.676039457321167,0.27073466777801514,0.33936741948127747,0.9873156547546387,-0.04730604961514473,-0.15155844390392303,0.017338216304779053,0.3116799294948578,-0.23310059309005737,0.38169171704997934,-0.5465967240533322,0.35419316237686366,0.6558129626654281
1728062210514279400,3.304279541015625,3.1373977661132812,0.16143962740898132,0.49840420484542847,0.9874085783958435,-0.05599187687039375,-0.14795084297657013,0.02353203296661377,0.23287184536457062,-0.31107956171035767,0.38797717933833137,-0.5408005577034322,0.3654577069136727,0.6507297811961
1728062210524310500,3.314310546875,2.9051671028137207,0.12558096647262573,0.4533853232860565,0.9873179197311401,-0.06535978615283966,-0.14467698335647583,0.011095106601715088,-0.011132441461086273,-0.17188209295272827,0.39435619137344946,-0.5343467995510027,0.37700796507752055,0.6456172910986709
1728062210534340400,3.32434033203125,2.0626840591430664,0.12277292460203171,0.11407890170812607,0.9872847199440002,-0.0719321072101593,-0.14175626635551453,-0.02862071990966797,-0.2927834093570709,-0.03259094059467316,0.39988413800926625,-0.5291445689690001,0.3861708074123883,0.6410701370470763
1728062210544371500,3.334371337890625,0.8971514105796814,0.25247034430503845,-0.2792510986328125,0.9876088500022888,-0.0730845108628273,-0.13887919485569,-0.1111440658569336,-0.42677807807922363,0.09052383899688721,0.4037465291185961,-0.5269304554686286,0.39103030607129063,0.637517330018627
1728062210554401300,3.3444013671875,-0.00582741666585207,0.37400397658348083,-0.3913770914077759,0.9883046746253967,-0.07010741531848907,-0.135421022772789,-0.173470139503479,-0.39507192373275757,0.20204061269760132,0.40536409657684747,-0.5278070082916534,0.3920577147836077,0.6351302657337736
1728062210564431400,3.354431396484375,-0.5013983249664307,0.40894725918769836,-0.31366124749183655,0.9890761375427246,-0.06619635224342346,-0.131706103682518,-0.13141018152236938,-0.2899436950683594,0.18274646997451782,0.404995007579618,-0.5303218023904605,0.39103162754182025,0.6339023270017687
1728062210574462500,3.36446240234375,-0.6678125858306885,0.3841755986213684,-0.2664516568183899,0.9897825121879578,-0.06259068101644516,-0.12811389565467834,-0.05435764789581299,-0.16417011618614197,0.10627828538417816,0.4035007440450025,-0.5333776553548415,0.38916748096700954,0.6334383834922708
1728062210584492500,3.374492431640625,-0.5912820100784302,0.25446832180023193,-0.25333958864212036,0.9903509020805359,-0.05920480564236641,-0.1252998262643814,-0.010324597358703613,-0.04093855619430542,0.06485949456691742,0.401982134600241,-0.5361977047718934,0.38709444094447876,0.6332932595542303
1728062210594523400,3.3845234375,-0.3733361065387726,0.0845533162355423,-0.18845778703689575,0.9906947612762451,-0.05635609105229378,-0.12388584017753601,0.029400944709777832,0.027517057955265045,0.04569954425096512,0.40105090405030863,-0.5381601341965062,0.3852800938257327,0.6333253606386301
1728062210604553500,3.394553466796875,-0.21294504404067993,-0.05174758657813072,-0.11758255213499069,0.9907944202423096,-0.05449773743748665,-0.12391991913318634,0.0796552300453186,0.02936660125851631,0.006915286183357239,0.4007576598016185,-0.5390528017272278,0.38400796652369995,0.6335243758697008
1728062210614583600,3.40458349609375,-0.21879760921001434,-0.08210842311382294,-0.07680662721395493,0.990754246711731,-0.053269244730472565,-0.12477266043424606,0.08239620923995972,0.009064629673957825,-0.0047288984060287476,0.400636341700945,-0.5394288096657235,0.3829232668306885,0.6339374729813817
1728062210624614400,3.414614501953125,-0.23960474133491516,-0.05022766441106796,-0.05256706848740578,0.990702211856842,-0.052369486540555954,-0.12556369602680206,0.04126477241516113,-0.007444877177476883,0.03660471737384796,0.40033255479729596,-0.5397981374799793,0.3818849569108644,0.6344410947140878
1728062210634644500,3.42464453125,-0.25149232149124146,0.008136572316288948,-0.09276695549488068,0.9907145500183105,-0.051358770579099655,-0.125884011387825,0.005257010459899902,-0.029314354062080383,0.03762693703174591,0.3999208824957718,-0.5403690808816123,0.3808664511896523,0.634826891973455
1728062210644675600,3.434675537109375,-0.1972474455833435,0.023854494094848633,-0.12498693913221359,0.9907938838005066,-0.049961239099502563,-0.125822976231575,-0.023874998092651367,-0.011379018425941467,0.024153411388397217,0.3996247008594552,-0.541095637952568,0.37987369431441165,0.6349894840669348
1728062210654705400,3.444705322265625,-0.13700513541698456,0.013540072366595268,-0.10614108294248581,0.9908744692802429,-0.04857129976153374,-0.12573248147964478,-0.027938127517700195,0.020998753607273102,0.014953434467315674,0.3995313175639413,-0.5417023970136104,0.3790676385351564,0.635012588565459
1728062210664735500,3.454735595703125,-0.1381940394639969,0.023591695353388786,-0.05631999671459198,0.9909347891807556,-0.04758857190608978,-0.12563328444957733,-0.00326383113861084,0.032940205186605453,0.017646536231040955,0.3993986028646371,-0.5421776771823006,0.37845306884986557,0.635057060169942
1728062210674766600,3.4647666015625,-0.17159460484981537,0.029654912650585175,-0.03219255432486534,0.9909881353378296,-0.046984512358903885,-0.1254393756389618,0.01995241641998291,0.01541416347026825,0.0395473837852478,0.3990665623249777,-0.5426460100226113,0.37790954229719753,0.6351893966899703
1728062210684796700,3.474796630859375,-0.25839942693710327,0.02798260748386383,-0.02153404988348484,0.9910380840301514,-0.046424057334661484,-0.12525349855422974,0.024754703044891357,-0.02074505388736725,0.06356197595596313,0.39851400509128165,-0.543226444594555,0.377197933107522,0.6354631175399781
1728062210694827500,3.48482763671875,-0.3044697046279907,0.017375238239765167,0.005179319065064192,0.9910736680030823,-0.0459749773144722,-0.12513650953769684,0.026382267475128174,-0.04663051664829254,0.08077897131443024,0.39772326560412785,-0.5438901368668762,0.37631803536050995,0.6359122560912897
1728062210704857600,3.494857666015625,-0.3717884123325348,0.023161061108112335,0.002029865514487028,0.9910954236984253,-0.0456048920750618,-0.12510055303573608,0.03615671396255493,-0.06836291402578354,0.06696432828903198,0.3967512364936772,-0.544612192337145,0.37529626406773314,0.6365051546146346
1728062210714887400,3.504887451171875,-0.4273217022418976,0.03291728347539902,-0.012584231793880463,0.9911357164382935,-0.04504210129380226,-0.12498567253351212,0.03964132070541382,-0.06141838803887367,0.059738799929618835,0.39561536877135656,-0.5455173665825352,0.3740561003572156,0.6371667345128574
1728062210724918300,3.514918212890625,-0.41149747371673584,0.010165954008698463,-0.008186553604900837,0.9911708831787109,-0.04439101740717888,-0.12493893504142761,0.04157441854476929,-0.03719763457775116,0.05465668439865112,0.39445565561738455,-0.5464517264485373,0.3727211328039188,0.6378669256152051
1728062210734947000,3.524947021484375,-0.32051190733909607,-0.024553675204515457,0.00682541960850358,0.9911608695983887,-0.04394235089421272,-0.12517713010311127,0.050877153873443604,-0.014254584908485413,0.034966930747032166,0.39345478810513224,-0.5471531396191815,0.37153044811444275,0.6385780718730991
1728062210744978000,3.53497802734375,-0.20781272649765015,-0.020691242069005966,-0.013155478984117508,0.9911277294158936,-0.043589454144239426,-0.1255616396665573,0.04488295316696167,-0.003254946321249008,-0.007678389549255371,0.392786518033455,-0.5475912881479907,0.3706250986029875,0.6391396660742996
1728062210755008000,3.545008056640625,-0.059019267559051514,0.03237410634756088,-0.005937513895332813,0.9911403656005859,-0.04331516847014427,-0.12555581331253052,0.019037067890167236,0.0010484158992767334,-0.01807539165019989,0.3924400598709049,-0.5478957629143976,0.37017877724069886,0.6393500787533847
1728062210765038800,3.555038818359375,0.0165865458548069,0.054382629692554474,-0.00114915007725358,0.9915313720703125,-0.0443197563290596,-0.1220698431134224,-1.7881393432617188e-7,-0.007697366178035736,-0.01318429410457611,0.39150281628439804,-0.5488091992621894,0.37117858495587325,0.6385611540042696
1728062210775069000,3.56506884765625,0.01267702504992485,0.05167260020971298,-0.0008298372849822044,0.9919925928115845,-0.04683234170079231,-0.11729228496551514,-0.00026291608810424805,-0.02790512517094612,0.011747002601623535,0.39001216710064646,-0.5497500873391523,0.3729995973595273,0.6376022820941297
1728062210785099000,3.57509912109375,-0.058187760412693024,0.03372342512011528,-0.011999400332570076,0.9922434687614441,-0.04999241605401039,-0.11381440609693527,0.013539552688598633,-0.05065446346998215,0.030669033527374268,0.3884516946856086,-0.5502075075219899,0.3746525004316646,0.6371911216178852
1728062210795130000,3.585130126953125,-0.1952897012233734,0.039108071476221085,-0.019639477133750916,0.9924101233482361,-0.05177570506930351,-0.11154147982597351,0.033972322940826416,-0.07143893092870712,0.02981513738632202,0.3871505040178844,-0.5507763584271921,0.37533273599696987,0.6370912368126199
1728062210805160000,3.595159912109375,-0.2467736452817917,0.02930731698870659,-0.0013206577859818935,0.9925673604011536,-0.05229298770427704,-0.10988843441009521,0.05247652530670166,-0.0726306363940239,0.018274426460266113,0.38598691743386365,-0.5516126301347054,0.3752056607776749,0.6371485782047125
1728062210815191000,3.60519091796875,-0.260555237531662,-0.02405310980975628,0.0029601077549159527,0.9926321506500244,-0.05214574933052063,-0.10937192291021347,0.07771080732345581,-0.09246170520782471,-0.022433757781982422,0.3851385729192712,-0.5522757087785515,0.37457386499846734,0.6374591918995489
1728062210825221000,3.61522119140625,-0.30387529730796814,-0.0794905349612236,-0.019045593217015266,0.992548942565918,-0.0516507588326931,-0.11035776138305664,0.08331769704818726,-0.10934463888406754,-0.03782057762145996,0.38457284689461435,-0.5525861495308366,0.37345637779802826,0.6381870085765866
1728062210835251200,3.625251220703125,-0.3669826090335846,-0.10859968513250351,-0.03085591271519661,0.9924132823944092,-0.050861917436122894,-0.11193288862705231,0.06405949592590332,-0.10348065197467804,-0.01741611957550049,0.3840326763666464,-0.5528634435030922,0.3719886672201709,0.6391285729344088
1728062210845282000,3.635281982421875,-0.4678519666194916,-0.13705982267856598,-0.009689907543361187,0.992247462272644,-0.050211500376462936,-0.11368318647146225,0.04481607675552368,-0.0964406281709671,-0.004267513751983643,0.38323050245378654,-0.5531978748369983,0.3703113812023433,0.6402937132595428
1728062210855312100,3.64531201171875,-0.6192271709442139,-0.15098415315151215,-0.012843622826039791,0.9920818209648132,-0.049450404942035675,-0.11544793099164963,0.031126737594604492,-0.09500445425510406,0.026824653148651123,0.3820459568480179,-0.5537826764157563,0.36824011261683115,0.6416890149360929
1728062210865343000,3.655343017578125,-0.7984278202056885,-0.16448856890201569,-0.019823502749204636,0.9919021725654602,-0.048396263271570206,-0.11742199212312698,0.01919090747833252,-0.09163355082273483,0.06450426578521729,0.38044495223250463,-0.5546559300240139,0.36557598919322243,0.6434070815572964
1728062210875373000,3.665373046875,-0.9252065420150757,-0.17498329281806946,0.005730594042688608,0.9916999936103821,-0.04722355678677559,-0.11958637833595276,0.01551729440689087,-0.08073654025793076,0.07940972596406937,0.37838332108220923,-0.5557718568810253,0.3623871622108628,0.6454604473921329
1728062210885403100,3.675403076171875,-0.9131607413291931,-0.2082219421863556,0.05143656209111214,0.9914497137069702,-0.04636175557971001,-0.12197452783584595,0.02805083990097046,-0.06971174478530884,0.05713970959186554,0.37606799408653147,-0.5568407883577624,0.3590836582273002,0.6477345074928729
1728062210895434200,3.685434326171875,-0.8521485328674316,-0.21763914823532104,0.06604453176259995,0.9911524057388306,-0.045833900570869446,-0.12456344813108444,0.03753399848937988,-0.0591464601457119,0.006719596683979034,0.3738047476967754,-0.5576880521058681,0.3559526844616017,0.6500397459083075
1728062210905464000,3.695464111328125,-0.7824453115463257,-0.21520650386810303,0.06885922700166702,0.9908434748649597,-0.045396462082862854,-0.127154141664505,0.023804843425750732,-0.03542923927307129,-0.02203129231929779,0.3717113193054846,-0.5583853653886217,0.3530279210651717,0.652232805019288
1728062210915495200,3.7054951171875,-0.7347017526626587,-0.1960567682981491,0.09719473123550415,0.9905365705490112,-0.045186616480350494,-0.12959657609462738,0.008379876613616943,-0.011804856359958649,-0.017116889357566833,0.3697092310707928,-0.5589658470591421,0.35036965147030563,0.6543036482311178
1728062210925525000,3.71552490234375,-0.7244285941123962,-0.18572264909744263,0.12051016837358475,0.9902338981628418,-0.045275621116161346,-0.1318601816892624,0.010986804962158203,-0.0017213448882102966,-0.012961208820343018,0.36766440725477006,-0.5594876537209791,0.3479130273594065,0.6563177849832111
1728062210935555000,3.72555517578125,-0.7310835719108582,-0.17282602190971375,0.12209209054708481,0.9899334907531738,-0.04547791928052902,-0.13402801752090454,0.011622846126556396,0.004935424774885178,-0.0020653605461120605,0.36554867314831263,-0.5600133505668744,0.3455011370981388,0.6583222823620105
1728062210945586000,3.7355859375,-0.7209785580635071,-0.14972969889640808,0.11461952328681946,0.9896569848060608,-0.04561920464038849,-0.13600686192512512,-0.000002562999725341797,0.012080498039722443,0.019170060753822327,0.3634077321080864,-0.5606029596856089,0.34310478081851725,0.6602561799729942
1728062210955616000,3.745615966796875,-0.6459320187568665,-0.1037140041589737,0.101596400141716,0.9894273281097412,-0.045701246708631516,-0.1376403570175171,-0.01625239849090576,0.023042060434818268,0.029272213578224182,0.3613632122348652,-0.5612325360766248,0.34087807204745824,0.6619945168502963
1728062210965647000,3.755647216796875,-0.5350905060768127,-0.028381813317537308,0.08388637751340866,0.9892885088920593,-0.04573540762066841,-0.1386239230632782,-0.0315554141998291,0.035237476229667664,0.015256345272064209,0.35952474745656493,-0.5619212090651478,0.3390171013952062,0.6633656065949146
1728062210975677000,3.765677001953125,-0.33531829714775085,0.03591861575841904,0.11579158157110214,0.9892470240592957,-0.04603511467576027,-0.1388196498155594,-0.041249096393585205,0.05628914386034012,-0.008611008524894714,0.3579657579808197,-0.5625648206229036,0.3378031945883646,0.6642817601757491
1728062210985707000,3.77570703125,-0.11178780347108841,0.062427081167697906,0.1594455987215042,0.989245593547821,-0.0470578707754612,-0.1384860724210739,-0.028933942317962646,0.061324961483478546,-0.034915000200271606,0.35682219000808313,-0.5628798939314021,0.33752509507394324,0.6647712271600729
1728062210995738000,3.785738037109375,0.040103986859321594,0.08819955587387085,0.16330425441265106,0.9892637133598328,-0.048573896288871765,-0.13783203065395355,-0.0057280659675598145,0.06554178893566132,-0.06773458421230316,0.3560843153555702,-0.5629002067247922,0.33797535606026624,0.664920913076303
1728062211005768000,3.795767822265625,0.18013758957386017,0.11150818318128586,0.1649000197649002,0.9893218874931335,-0.05027066171169281,-0.13680239021778107,0.008297622203826904,0.09792397916316986,-0.08632712066173553,0.35571213047577627,-0.5627654860729653,0.3389598998422589,0.6647330279207294
1728062211015799000,3.805799072265625,0.26525887846946716,0.0962139144539833,0.18531501293182373,0.9893701672554016,-0.05224499851465225,-0.13571038842201233,0.019434213638305664,0.11920066922903061,-0.07721103727817535,0.35562789508536474,-0.5624016849237339,0.34036620503219184,0.6643674488980869
1728062211025829000,3.8158291015625,0.27616891264915466,0.05479180067777634,0.21268858015537262,0.9893625974655151,-0.05455782264471054,-0.13485200703144073,0.03460890054702759,0.1119920164346695,-0.04973380267620087,0.35561861477866896,-0.5618210200935179,0.3419519506877101,0.6640492143575206
1728062211035860000,3.82585986328125,0.2814989686012268,0.02266395464539528,0.19670908153057098,0.9892926812171936,-0.056951407343149185,-0.134373739361763,0.03371739387512207,0.08518028259277344,-0.0263931006193161,0.3556736406680573,-0.5610811135745681,0.3435129052467536,0.6638395896480714
1728062211045890000,3.83589013671875,0.23607641458511353,0.046803541481494904,0.14210708439350128,0.9892317652702332,-0.05893953517079353,-0.13396404683589935,0.0057631731033325195,0.05040999501943588,-0.02867959439754486,0.35580305341761254,-0.5604227331374754,0.34488307944030927,0.6636158765577598
1728062211055920000,3.845920166015625,0.2184436321258545,0.09873545169830322,0.09682668000459671,0.9892553687095642,-0.06036427617073059,-0.13315317034721375,-0.03542858362197876,0.029694221913814545,-0.03869156539440155,0.3559378908287049,-0.5600531288942107,0.34606922486890734,0.6632380204661368
1728062211065951200,3.855951171875,0.2171943485736847,0.13921016454696655,0.10001475363969803,0.9893540143966675,-0.06154147535562515,-0.13187594711780548,-0.056370675563812256,0.018099818378686905,-0.06302480399608612,0.3560430517587594,-0.5598966136018295,0.34724315700705183,0.6626999886411502
1728062211075981000,3.86598095703125,0.2152518481016159,0.1253417581319809,0.10019397735595703,0.989463210105896,-0.06279708445072174,-0.13045634329319,-0.05698347091674805,0.0033031925559043884,-0.0584477037191391,0.3561016526389136,-0.5597685513682942,0.3484695109688166,0.6621326747603837
1728062211086012200,3.87601220703125,0.17014095187187195,0.09391896426677704,0.07439833879470825,0.9895409345626831,-0.06391192972660065,-0.1293202042579651,-0.04699045419692993,-0.017783507704734802,-0.03686349093914032,0.35618180060550525,-0.5596074125320132,0.34954175461312004,0.6616604105273645
1728062211096042200,3.886042236328125,0.12504591047763824,0.08471667021512985,0.040110670030117035,0.9896166920661926,-0.06460782885551453,-0.12839233875274658,-0.0446399450302124,-0.022046729922294617,-0.01519310474395752,0.35627025352232283,-0.5595378810695489,0.35031584157349266,0.6612621751704698
1728062211106072000,3.896072021484375,0.1513882279396057,0.07142782211303711,0.04996250197291374,0.9896859526634216,-0.06516766548156738,-0.12757375836372375,-0.044587016105651855,-0.00664009153842926,-0.010396495461463928,0.35638456044542066,-0.5594753766085974,0.3509991745997318,0.6608910687802166
1728062211116103200,3.906103271484375,0.2120310664176941,0.05650479719042778,0.07178178429603577,0.9897230863571167,-0.06594535708427429,-0.12688349187374115,-0.038139283657073975,0.008206211030483246,-0.018853425979614258,0.35660160636502247,-0.5592489934838163,0.35185055982227703,0.660512718174879
1728062211126133000,3.916133056640625,0.3101278245449066,0.04915250092744827,0.08511543273925781,0.9897335767745972,-0.06701521575450897,-0.12623870372772217,-0.040331900119781494,0.025572456419467926,-0.02566276490688324,0.35699179264211683,-0.5588135659768874,0.35299864504197204,0.6600576760559977
1728062211136163800,3.926163818359375,0.3734769821166992,0.06009915843605995,0.06367192417383194,0.9897488951683044,-0.0681450217962265,-0.12551237642765045,-0.04780864715576172,0.02714475989341736,-0.037558555603027344,0.35763976026108724,-0.5582349167908888,0.35442572117678267,0.6594315742926633
1728062211146194000,3.93619384765625,0.41049402952194214,0.07799293845891953,0.05818580836057663,0.9897944331169128,-0.06916443258523941,-0.12459289282560349,-0.054201722145080566,0.021496079862117767,-0.04311670362949371,0.358441287812097,-0.5576542751957563,0.355984919908222,0.6586473764973125
1728062211156224000,3.94622412109375,0.38776686787605286,0.06546436250209808,0.06902115046977997,0.9898386597633362,-0.07023818045854568,-0.12363684177398682,-0.04107773303985596,0.0030233189463615417,-0.045613884925842285,0.3592622265889201,-0.5570467277772141,0.35760386381769077,0.6578366833528247
1728062211166255000,3.956255126953125,0.2911171615123749,0.03826943784952164,0.07326116412878036,0.9898507595062256,-0.0713268518447876,-0.12291374057531357,-0.012067675590515137,-0.02829766273498535,-0.03850924223661423,0.3599147118645188,-0.5564659076432592,0.35901089643090156,0.6572048239264752
1728062211176285000,3.966284912109375,0.15716496109962463,0.006996738724410534,0.054136473685503006,0.9898285865783691,-0.07221070677042007,-0.12257622182369232,0.010735929012298584,-0.054055675864219666,-0.027951955795288086,0.3603172722906449,-0.5560031582061133,0.3599616312880172,0.6568558229579534
1728062211186316000,3.97631591796875,0.001073033083230257,-0.0007569477893412113,0.020001675933599472,0.9898017048835754,-0.07261963933706284,-0.12255287915468216,0.025731801986694336,-0.0629698634147644,-0.021917596459388733,0.36043225525837425,-0.5557967687449075,0.3602964236213564,0.6567839363259949
1728062211196346000,3.98634619140625,-0.05411804839968681,-0.021708302199840546,0.024842502549290657,0.9896933436393738,-0.0723373144865036,-0.1235893964767456,0.033576250076293945,-0.03853294253349304,-0.018912672996520996,0.360558322590968,-0.5555897125636824,0.35989633410030164,0.6571090894365491
1728062211206376200,3.996376220703125,-0.020357290282845497,-0.0630974993109703,0.04550889879465103,0.9895426034927368,-0.07172822952270508,-0.1251421421766281,0.05075579881668091,-0.013812437653541565,-0.043284595012664795,0.3608508052380875,-0.5552896906436546,0.35928023304282125,0.6575392286212361
1728062211216407000,4.006406982421875,0.03106941655278206,-0.08802788704633713,0.032898031175136566,0.9893383979797363,-0.07148981839418411,-0.12688179314136505,0.06638675928115845,0.0017725080251693726,-0.08935077488422394,0.3612024739092296,-0.5547783178911128,0.3588594716429697,0.6580074643913536
1728062211226437000,4.01643701171875,0.1292092204093933,-0.14174506068229675,0.0178783368319273,0.9890851378440857,-0.07140202075242996,-0.12888939678668976,0.05389893054962158,0.021734759211540222,-0.08934207260608673,0.36181226373631264,-0.5540082767114283,0.358650432044336,0.6584350061322102
1728062211236468000,4.026468017578125,0.21898651123046875,-0.20937150716781616,0.014448985457420349,0.9887307286262512,-0.07175289839506149,-0.13138921558856964,0.044060349464416504,0.016684040427207947,-0.06569355726242065,0.3627108212960782,-0.5528060483764686,0.35876296110198536,0.6588896049971701
1728062211246498000,4.036498046875,0.26300695538520813,-0.2587110996246338,0.006748986896127462,0.9882959723472595,-0.07271226495504379,-0.13410475850105286,0.0484929084777832,0.0027355626225471497,-0.04419445991516113,0.36370683395704984,-0.5512783865121443,0.3592210468039337,0.6593707396455663
1728062211256528100,4.046528076171875,0.27580931782722473,-0.29350635409355164,0.0039686462841928005,0.9878134727478027,-0.07408153265714645,-0.1368810534477234,0.04906696081161499,-0.01179482787847519,-0.028539717197418213,0.3647036359104799,-0.5495853794274796,0.35988246126508183,0.6598725323706146
1728062211266559200,4.056559326171875,0.21026092767715454,-0.3318209946155548,0.003088738303631544,0.9872902631759644,-0.07556367665529251,-0.13981465995311737,0.04807955026626587,-0.03519977629184723,-0.0030231475830078125,0.36563461817221254,-0.5478482098490765,0.3604927354109661,0.6604685323110413
1728062211276589000,4.066589111328125,0.0873752310872078,-0.3897005319595337,-0.0036682342179119587,0.9867779612541199,-0.07573643326759338,-0.1432942897081375,0.05284905433654785,-0.06739090383052826,0.020735442638397217,0.3667170549983134,-0.5463764308223847,0.36031327268302416,0.6611851179286741
1728062211286620200,4.0766201171875,-0.019252344965934753,-0.43415820598602295,0.009186845272779465,0.9861727356910706,-0.07575488090515137,-0.147392138838768,0.05186736583709717,-0.09758486598730087,0.0337444543838501,0.3675657906906094,-0.5449402975196368,0.35964426837098706,0.6622623288097015
1728062211296650200,4.086650146484375,-0.10002389550209045,-0.43392330408096313,-0.0007653888314962387,0.9855091571807861,-0.07569354772567749,-0.15179650485515594,0.04331463575363159,-0.13678498566150665,0.012987077236175537,0.3681901103099002,-0.5435782190454755,0.3586425318247079,0.6635768943468119
1728062211306681000,4.09668115234375,-0.18436893820762634,-0.38399481773376465,-0.036849889904260635,0.9848911166191101,-0.0752459317445755,-0.15597237646579742,0.018709838390350342,-0.15639764070510864,-0.015414580702781677,0.36861265548621625,-0.5425142829937298,0.35734026139881014,0.6649141554560254
1728062211316711000,4.1067109375,-0.22537894546985626,-0.36345839500427246,-0.027522699907422066,0.9843297004699707,-0.07452916353940964,-0.15981294214725494,-0.00839298963546753,-0.1276191622018814,-0.012962564826011658,0.36883720963209377,-0.5417280795530163,0.3558429658258721,0.6662322399125874
1728062211326741000,4.116740966796875,-0.24498014152050018,-0.37326154112815857,0.0027838065288960934,0.9837430119514465,-0.07397858798503876,-0.16363710165023804,-0.012994050979614258,-0.09257099032402039,0.005143806338310242,0.36891427807945615,-0.5409572237737513,0.3543257370042546,0.6676233608421118
1728062211336771800,4.126771728515625,-0.24791067838668823,-0.40596675872802734,0.045287590473890305,0.9830843806266785,-0.07372816652059555,-0.16765762865543365,-0.013418972492218018,-0.06016760319471359,0.018456950783729553,0.3688609360591771,-0.5400914461867448,0.35280648390697444,0.6691564061333514
1728062211346802000,4.136802001953125,-0.1617732048034668,-0.42385658621788025,0.08861828595399857,0.9823219776153564,-0.07400205731391907,-0.17195101082324982,-0.026511549949645996,-0.03602895885705948,0.028441861271858215,0.3688143040824677,-0.5389586356257138,0.35149407755482376,0.6707842281650064
