time,seconds_elapsed,rotationRateX,rotationRateY,rotationRateZ,gravityX,gravityY,gravityZ,accelerationX,accelerationY,accelerationZ,quaternionW,quaternionX,quaternionY,quaternionZ
1728332033646406400,0.066406494140625,0.04398312792181969,0.1809397041797638,0.2792939245700836,0.23388314247131348,-0.20966175198554993,-0.949389636516571,0.005008503794670105,0.023016199469566345,-0.08346253633499146,0.9872664595649152,0.10618295960201446,0.11844985831611474,1.4247081765108143e-18
1728332033656437500,0.0764375,0.04479352757334709,0.15344762802124023,0.3720654249191284,0.23475797474384308,-0.21084322035312653,-0.9489119052886963,-0.009995967149734497,-0.00021639466285705566,-0.055635154247283936,0.9871440876219202,0.10659577121759622,0.11908558894315383,0.0016477677039637346
1728332033666468400,0.08646826171875,-0.0336182564496994,0.21559035778045654,0.3968101739883423,0.23570497334003448,-0.21180979907512665,-0.9484617710113525,-0.0338006317615509,-0.03208671510219574,-0.035028159618377686,0.987024564999324,0.10685101882063144,0.11979967108906402,0.0036754858155349963
1728332033676499500,0.09649951171875,-0.06873229891061783,0.26914626359939575,0.32811179757118225,0.23730701208114624,-0.212082177400589,-0.9480013251304626,-0.05989302694797516,-0.04696632921695709,-0.025188922882080078,0.9868986778421175,0.10675914373215002,0.12083797359174249,0.005632563074783883
1728332033686530300,0.1065302734375,-0.028933487832546234,0.23083087801933289,0.3376304805278778,0.23905998468399048,-0.21235455572605133,-0.9474998116493225,-0.0836644321680069,-0.03578390181064606,-0.02984088659286499,0.9867599534956785,0.10668705977326692,0.12193428833397163,0.007403682720832222
1728332033696561400,0.1165615234375,-0.025865260511636734,0.16991373896598816,0.33554601669311523,0.240275576710701,-0.2129228711128235,-0.9470646977424622,-0.08289638161659241,-0.032194361090660095,-0.04031628370285034,0.9866343933362064,0.106755563499752,0.12276361972908319,0.009226848900379338
1728332033706592500,0.126592529296875,-0.07750935107469559,0.11976519227027893,0.23696886003017426,0.24106039106845856,-0.21314135193824768,-0.946816086769104,-0.021226972341537476,-0.013680592179298401,-0.053855299949645996,0.9865556991950359,0.10667636602187469,0.12333742178029865,0.01077125217897333
1728332033716623600,0.13662353515625,-0.13923023641109467,0.06714485585689545,0.14595027267932892,0.2416079342365265,-0.21253827214241028,-0.946812093257904,0.022857457399368286,-0.0032210499048233032,-0.04041630029678345,0.9865428722880234,0.10623763451560742,0.12372357577636237,0.011809826581496128
1728332033726654500,0.146654541015625,-0.21326471865177155,0.01706576533615589,0.11626880615949631,0.24176903069019318,-0.21113142371177673,-0.9470856785774231,0.0199040025472641,-0.026844695210456848,-0.019238173961639404,0.9866028001662368,0.1054212454402213,0.12386897108575443,0.01256825540557616
1728332033736685600,0.156685546875,-0.30139750242233276,0.024597717449069023,0.1100655049085617,0.2416822463274002,-0.20894217491149902,-0.9475932121276855,0.018342837691307068,-0.051601678133010864,0.003364086151123047,0.9867214555829592,0.10420436921628094,0.12387432623549216,0.013323201606651623
1728332033746716400,0.16671630859375,-0.318878173828125,0.04276809096336365,0.0800897628068924,0.24181416630744934,-0.20614086091518402,-0.948172926902771,0.01439620554447174,-0.05528801679611206,0.022406935691833496,0.9868587779136675,0.10268298298689173,0.12397480642439611,0.014009520671876875
1728332033756747500,0.17674755859375,-0.2946836054325104,0.07465678453445435,0.04665884003043175,0.242227241396904,-0.20334860682487488,-0.9486702680587769,-0.01796877384185791,-0.044530466198921204,0.02583402395248413,0.986976630674336,0.10118159540140977,0.12420602853974971,0.01457602949367148
1728332033766778400,0.1867783203125,-0.2001960575580597,0.04925842583179474,0.0550595186650753,0.24273715913295746,-0.20105966925621033,-0.9490277767181396,-0.05787687003612518,-0.033849433064460754,0.014991521835327148,0.987060838031037,0.09995573116670847,0.12447877674489059,0.015002136069853478
1728332033776809500,0.1968095703125,-0.06755464524030685,0.06096888333559036,0.12305454164743423,0.24309466779232025,-0.19996856153011322,-0.9491667747497559,-0.07222668826580048,-0.01847630739212036,0.0017943382263183594,0.987087460198675,0.09932768128662557,0.12470214147236755,0.015550408738227302
1728332033786840300,0.20684033203125,0.09527181833982468,0.050790973007678986,0.25786852836608887,0.24319782853126526,-0.20058009028434753,-0.9490113258361816,-0.06918655335903168,0.009723111987113953,-0.01285696029663086,0.987032578436028,0.09951907494351546,0.12486111713133699,0.016510127828884395
1728332033796871400,0.216871337890625,0.1994141936302185,0.050727855414152145,0.3398704528808594,0.2431645393371582,-0.20274491608142853,-0.9485597014427185,-0.04615825414657593,0.05606214702129364,-0.03857707977294922,0.9868931639726654,0.10044538341506108,0.1250234653437811,0.017945426380000812
1728332033806902500,0.226902587890625,0.1815614402294159,0.058779601007699966,0.3167494237422943,0.2429797649383545,-0.2054542452096939,-0.9480239152908325,-0.022551238536834717,0.08223949372768402,-0.037373363971710205,0.9867275545332435,0.10163436685322878,0.1251338674921375,0.019512654560978848
1728332033816933400,0.236933349609375,0.028514888137578964,0.05705014616250992,0.20748713612556458,0.24301843345165253,-0.2071089744567871,-0.9476538896560669,-0.019431352615356445,0.06495806574821472,-0.01308518648147583,0.9866081977928437,0.10232238622228204,0.12531231717846295,0.020767142406772833
1728332033826964500,0.246964599609375,-0.1842283308506012,0.08325511962175369,0.03159040957689285,0.24349209666252136,-0.20656916499137878,-0.947650134563446,-0.031516969203948975,0.009913861751556396,0.01874089241027832,0.9865925442523197,0.10195620339697577,0.12561791398603905,0.021456736430961968
1728332033836995300,0.256995361328125,-0.27314913272857666,0.021776843816041946,0.01918194070458412,0.2437572032213211,-0.2045205533504486,-0.9480262398719788,-0.04180707037448883,-0.04636450111865997,0.047528862953186035,0.9866816041727836,0.10086972166884244,0.12574644608982843,0.021741969095708216
1728332033847026400,0.2670263671875,-0.3220095634460449,-0.010041113942861557,0.007278676610440016,0.2439604103565216,-0.20153649151325226,-0.9486128687858582,-0.03969094157218933,-0.08786173164844513,0.06450337171554565,0.9868255260616883,0.09931417932825057,0.12581834530823882,0.021956101780628703
1728332033857057300,0.277057373046875,-0.2505977153778076,0.04989785701036453,-0.01078874059021473,0.2442859411239624,-0.19863562285900116,-0.9491408467292786,-0.024818718433380127,-0.08478116989135742,0.052641212940216064,0.9869558799785848,0.09780939038902034,0.12594806224408883,0.02210639644770248
1728332033867087400,0.28708740234375,-0.10746951401233673,0.08127745985984802,0.06616941839456558,0.24488146603107452,-0.19697649776935577,-0.9493330717086792,-0.03939129412174225,-0.026183322072029114,0.043601930141448975,0.9869983242134642,0.09692262238542568,0.12625155391603085,0.02238218041827737
1728332033877118500,0.297118408203125,-0.023157291114330292,0.13099227845668793,0.10819224268198013,0.24570900201797485,-0.19659173488616943,-0.9491990208625793,-0.06200839579105377,0.017926529049873352,0.021525681018829346,0.9869513694410418,0.09664887653148237,0.12672601709781947,0.02294814003445166
1728332033887149300,0.3071494140625,0.05562220513820648,0.0981733500957489,0.10300999134778976,0.24655188620090485,-0.19698980450630188,-0.9488978981971741,-0.046097129583358765,0.0406634658575058,0.012557566165924072,0.9868612843175859,0.09677223478677734,0.12722496695755278,0.023534126499479287
1728332033897180700,0.3171806640625,0.08287779241800308,0.09072848409414291,0.05907662585377693,0.24700181186199188,-0.19704027473926544,-0.9487704038619995,-0.04053507745265961,0.03059735894203186,0.02843654155731201,0.9868201346594047,0.09674791068179105,0.12749371981961763,0.02390195944001178
1728332033907211500,0.32721142578125,0.10190488398075104,0.04278215393424034,0.10220491886138916,0.24689802527427673,-0.19824907183647156,-0.9485455751419067,-0.03550270199775696,0.005606815218925476,0.01659977436065674,0.9867537061922327,0.0973166693804383,0.12750170881095818,0.024289475792253507
1728332033917242600,0.33724267578125,0.15638037025928497,0.03856104612350464,0.1921401470899582,0.24626126885414124,-0.20107318460941315,-0.9481165409088135,-0.03530848026275635,0.0004658699035644531,0.027721703052520752,0.9866245412891516,0.09865936746869652,0.12731086483475565,0.0251105081245603
1728332033927273500,0.3472734375,0.1592681109905243,0.106047622859478,0.16909527778625488,0.2460276484489441,-0.204923614859581,-0.9473524689674377,-0.046763062477111816,0.015607789158821106,0.02944481372833252,0.9864045797627938,0.10050059882640854,0.1273710557353121,0.02612491959621632
1728332033937304600,0.3573046875,0.17436903715133667,0.12320450693368912,0.17156696319580078,0.24637356400489807,-0.20858371257781982,-0.9464633464813232,-0.0920308530330658,0.021175220608711243,0.030615627765655518,0.9861543912472078,0.10225368991404955,0.12772038411629943,0.02704290366496716
1728332033947335400,0.36733544921875,0.1874014139175415,0.12637537717819214,0.21021687984466553,0.2464931309223175,-0.21132101118564606,-0.9458248019218445,-0.11413833498954773,0.010744184255599976,0.03380703926086426,0.9859653114254336,0.10352864853545746,0.12794298595322717,0.02801912458604835
1728332033957366500,0.377366455078125,0.19621461629867554,0.1108534038066864,0.15501940250396729,0.24646250903606415,-0.21307596564292908,-0.9454389810562134,-0.09082281589508057,0.01132422685623169,0.024601638317108154,0.9858435029936603,0.10432048093025538,0.1280536643013641,0.028849734252759218
1728332033967397400,0.3873974609375,0.14565448462963104,0.14811789989471436,0.14898468554019928,0.24676714837551117,-0.21427762508392334,-0.9450879096984863,-0.1011677235364914,0.0014327317476272583,0.027866840362548828,0.985734135254154,0.10484468228857297,0.12831076434277058,0.02953632222947444
1728332033977428500,0.397428466796875,0.1133202612400055,0.16842450201511383,0.10017558932304382,0.24762099981307983,-0.2152600884437561,-0.9446411728858948,-0.09626904129981995,-0.003016918897628784,0.03672802448272705,0.9856023201121886,0.10526121798944586,0.12883898533687332,0.03014881996521426
1728332033987459300,0.407459228515625,0.07342949509620667,0.1577397882938385,0.035637348890304565,0.24870014190673828,-0.21609602868556976,-0.9441667199134827,-0.072323739528656,0.014756277203559875,0.025694429874420166,0.9854706484399964,0.10563257748801963,0.12945426506702631,0.03051434933769549
1728332033997490400,0.417490478515625,-0.0012348823947831988,0.11062447726726532,-0.023149270564317703,0.24958796799182892,-0.2163214534521103,-0.9438807368278503,-0.03849782049655914,0.01876586675643921,-0.002545595169067383,0.9853955212385901,0.10572936399333785,0.12992659035734214,0.030597911529885297
1728332034007521300,0.427521240234375,-0.0612664595246315,0.06912704557180405,-0.05045732110738754,0.249901682138443,-0.21560683846473694,-0.9439612627029419,-0.0009544789791107178,0.01791393756866455,-0.014077067375183105,0.9854188520424052,0.10537277172783145,0.13006134312557846,0.03050181021199706
1728332034017552400,0.437552490234375,-0.12774881720542908,0.05718570202589035,-0.05393674224615097,0.24908019602298737,-0.21426644921302795,-0.9444834589958191,0.018940478563308716,0.005037903785705566,-0.029546082019805908,0.9855545342584274,0.10470612262040517,0.12959518107130252,0.030399533136338613
1728332034027583500,0.44758349609375,-0.1887519210577011,0.056808385998010635,-0.06151103973388672,0.24761097133159637,-0.21261203289031982,-0.9452432990074158,0.014412999153137207,-0.006824657320976257,-0.03868913650512695,0.9857480732857847,0.103874450973447,0.1287961025011577,0.03037341377054043
1728332034037614300,0.4576142578125,-0.21198374032974243,0.041272833943367004,-0.06685547530651093,0.2467510998249054,-0.2105095088481903,-0.9459385275840759,0.00672796368598938,-0.008164241909980774,-0.029937326908111572,0.985927232973439,0.10281691894298255,0.12829430358133295,0.030280019396234384
1728332034047645400,0.4676455078125,-0.24336190521717072,0.03753652423620224,-0.06818598508834839,0.2458297163248062,-0.20841041207313538,-0.9466429352760315,0.016911417245864868,-0.006845369935035706,-0.03529059886932373,0.9861083792297796,0.10176050599506858,0.12776276785159343,0.030199087369786142
1728332034057676500,0.477676513671875,-0.27193546295166016,0.0511881560087204,-0.09283967316150665,0.24531535804271698,-0.20612181723117828,-0.9472772479057312,0.04216025769710541,-0.008447304368019104,-0.04101920127868652,0.9862714399627294,0.100603090356719,0.12743779905639568,0.03012411723482741
1728332034067707600,0.487707763671875,-0.2716071903705597,0.16885678470134735,-0.3698593080043793,0.24604319036006927,-0.20304304361343384,-0.9477533102035522,0.05930048227310181,-0.02075764536857605,-0.037445664405822754,0.9864135435292635,0.09911284634838888,0.12767146137334864,0.02941354888348299
1728332034077738500,0.497738525390625,-0.368682861328125,-0.16153603792190552,-0.08327040076255798,0.24648606777191162,-0.19936151802539825,-0.9484195113182068,0.07159870862960815,-0.07140573859214783,-0.03732872009277344,0.9866128350661734,0.09736052422725162,0.12771515097807587,0.0283726141379561
1728332034087769600,0.50776953125,-0.39610669016838074,-0.3468886911869049,0.24081607162952423,0.2435424029827118,-0.19591183960437775,-0.9498977065086365,0.16389784216880798,-0.11701545119285583,-0.028602659702301025,0.9869703169531695,0.09554706944485322,0.12618202424858996,0.0289565603213055
1728332034097800400,0.517800537109375,-0.3559662103652954,-0.34502795338630676,0.18585509061813354,0.23976071178913116,-0.1928001344203949,-0.9514951109886169,0.3094031512737274,-0.07209248840808868,0.008105218410491943,0.9873382550870731,0.09383738632274673,0.12428595247091809,0.030179003505385774
1728332034107830500,0.52783056640625,-0.23940983414649963,-0.20534929633140564,0.030684666708111763,0.23702572286128998,-0.19016136229038239,-0.9527105689048767,0.1470990926027298,-0.042092710733413696,-0.020876407623291016,0.9876289853543134,0.09244827669463523,0.12287399392014786,0.030731343683995407
1728332034117861600,0.537861572265625,-0.15492850542068481,-0.11986156553030014,0.021621663123369217,0.23554274439811707,-0.18831302225589752,-0.9534452557563782,-0.006630346179008484,-0.04903748631477356,-0.033889949321746826,0.9878117879612172,0.09150775039914762,0.12208074736109427,0.030832674741528614
1728332034127892500,0.547892578125,-0.13959833979606628,-0.09236598014831543,0.11687041819095612,0.23449255526065826,-0.18704813718795776,-0.953952968120575,-0.012187197804450989,-0.051614612340927124,-0.04258328676223755,0.9879285957052314,0.09082757358586478,0.12154781088883625,0.031205106005613603
1728332034137923600,0.557923583984375,-0.12484896928071976,-0.1019967645406723,0.13495968282222748,0.23339466750621796,-0.18606635928153992,-0.9544140696525574,0.04101945459842682,-0.03948909044265747,-0.009865045547485352,0.9880228266116563,0.09025247639318196,0.12102663294301413,0.03190765230365207
1728332034147954400,0.567954345703125,-0.14361919462680817,-0.04946010559797287,0.1554122269153595,0.23244263231754303,-0.1850946992635727,-0.9548352956771851,0.07372501492500305,-0.045328304171562195,0.02626168727874756,0.9881067424441604,0.08968273714002455,0.12057931639083135,0.032602904824487036
1728332034157985500,0.577985595703125,-0.33450794219970703,0.06461906433105469,0.9149239659309387,0.2325424700975418,-0.1840575933456421,-0.9550114274024963,0.07754670083522797,-0.0629974901676178,0.028039991855621338,0.9880493490585267,0.08879188740897669,0.12087302593372981,0.035558228069395084
1728332034168016400,0.588016357421875,-0.4772410988807678,-0.07849953323602676,1.630614161491394,0.23080646991729736,-0.18318748474121094,-0.9555996656417847,0.22814743220806122,-0.04557231068611145,0.04696935415267944,0.9879247157593348,0.08752814468500641,0.12057771519697864,0.042483155334087815
1728332034178047500,0.598047607421875,-0.5484068989753723,-0.35309886932373047,1.078010082244873,0.22605495154857635,-0.1815396100282669,-0.9570488929748535,0.4707682132720947,-0.052804917097091675,0.08806085586547852,0.9879654580019177,0.08592943979703771,0.1187084423156413,0.04948667214693671
1728332034188078300,0.608078369140625,-0.7361783981323242,-0.43494072556495667,0.6111683249473572,0.2208813726902008,-0.17712832987308502,-0.9590812921524048,0.3452197313308716,-0.16062501072883606,0.06821221113204956,0.9882611476263822,0.08330127580683012,0.11627655672902384,0.053671618124281936
1728332034198109400,0.618109375,-0.8179262280464172,-0.41236379742622375,0.60902339220047,0.21584492921829224,-0.17082089185714722,-0.9613694548606873,0.08739303052425385,-0.23077522218227386,0.058400094509124756,0.9886632981312404,0.07985110222422226,0.11375007367646019,0.05683151709043906
1728332034208140300,0.628140380859375,-0.8228045701980591,-0.3167881667613983,0.8657265901565552,0.21120533347129822,-0.16438592970371246,-0.9635193943977356,0.10480423271656036,-0.21914377808570862,0.052554428577423096,0.9889737868448769,0.07626221508962652,0.111464731344627,0.060751348734355864
1728332034218171400,0.63817138671875,-0.7389570474624634,-0.2585216760635376,1.1385916471481323,0.20690660178661346,-0.15884272754192352,-0.965380072593689,0.14189410209655762,-0.16278207302093506,0.024813055992126465,0.9891017482731479,0.07298185241941683,0.1094697214416904,0.06609027276814844
1728332034228202200,0.6482021484375,-0.625380277633667,-0.26323628425598145,1.233440637588501,0.20263713598251343,-0.15465816855430603,-0.9669638276100159,0.16326865553855896,-0.07683293521404266,0.022826313972473145,0.9890670734586068,0.0703190721788141,0.1075793337969431,0.07230762838567509
1728332034238233300,0.6582333984375,-0.5654690265655518,-0.2843703329563141,1.2397675514221191,0.198152557015419,-0.1513744443655014,-0.9684117436408997,0.19343379139900208,-0.026207372546195984,0.022519469261169434,0.988947910844443,0.06813304795798568,0.10560305247199114,0.07866428269983469
1728332034248264400,0.668264404296875,-0.5597842335700989,-0.3203953206539154,1.2866690158843994,0.19341346621513367,-0.14838288724422455,-0.9698318243026733,0.20860989391803741,-0.0012448281049728394,0.03771817684173584,0.9887738941538777,0.06612607533063157,0.1034960413909331,0.0851018750234297
1728332034258295600,0.678295654296875,-0.58772212266922,-0.34269076585769653,1.3576499223709106,0.18831424415111542,-0.1453477144241333,-0.9712938666343689,0.22800658643245697,-0.003913789987564087,0.06071043014526367,0.9885409372338153,0.06411429791861568,0.10120483522752471,0.09183598783827546
1728332034268326400,0.688326416015625,-0.6262016296386719,-0.33667320013046265,1.3752942085266113,0.18308238685131073,-0.14195294678211212,-0.9727950692176819,0.23892998695373535,-0.04484519362449646,0.07406765222549438,0.9882469406402398,0.06193859466887396,0.09882350721234581,0.09882105696217827
1728332034278357500,0.698357421875,-0.6795641779899597,-0.33094874024391174,1.359262228012085,0.17802943289279938,-0.13802942633628845,-0.9742963910102844,0.2114969789981842,-0.08276529610157013,0.07007580995559692,0.9879026846065146,0.05952582301139473,0.09648053856734808,0.10581398071562267
1728332034288388600,0.708388671875,-0.695795476436615,-0.315394788980484,1.3659642934799194,0.1730743944644928,-0.13363948464393616,-0.9758000373840332,0.1747802495956421,-0.08959662914276123,0.06381279230117798,0.9875116300655803,0.05691359559908975,0.09413189588452203,0.11278752098137469
1728332034298419500,0.71841943359375,-0.6963813900947571,-0.2576281428337097,1.3820838928222656,0.16854289174079895,-0.12918099761009216,-0.9771926999092102,0.16286279261112213,-0.07571405172348022,0.0735977292060852,0.9870358220321864,0.054274712862622546,0.0919668838214487,0.11981935798512641
1728332034308450600,0.728450439453125,-0.7204453945159912,-0.19138549268245697,1.408565878868103,0.16466301679611206,-0.12454646825790405,-0.9784550666809082,0.16385875642299652,-0.05347786098718643,0.0566716194152832,0.9864600403667918,0.05153060040704853,0.09009480905163246,0.12698130301814148
1728332034318481400,0.7384814453125,-0.7636799216270447,-0.14954431354999542,1.4341727495193481,0.16135886311531067,-0.11958665400743484,-0.979623556137085,0.1662321239709854,-0.03574784845113754,0.059594929218292236,0.9857863241587942,0.04860310781021654,0.08846438619694949,0.13430317967124755
1728332034328512500,0.748512451171875,-0.8520547747612,-0.1039174348115921,1.426206350326538,0.1585174947977066,-0.11396683007478714,-0.9807567596435547,0.17088927328586578,-0.04516711086034775,0.07435417175292969,0.9850363643070997,0.045335077474751406,0.08698484314380896,0.14171107479370149
1728332034338543000,0.758543212890625,-0.932604968547821,-0.07034695893526077,1.3746113777160645,0.15621629357337952,-0.10732655227184296,-0.9818744659423828,0.17111529409885406,-0.06859205663204193,0.09704780578613281,0.9842433312414713,0.04155587478589208,0.08564970763199019,0.1490044033287212
1728332034348574200,0.76857421875,-0.9487168192863464,-0.03981461375951767,1.3136029243469238,0.1543670892715454,-0.10008769482374191,-0.9829309582710266,0.15885011851787567,-0.07964561879634857,0.10031682252883911,0.9834251061574211,0.03749260382395383,0.08443239012777276,0.15601450838140513
1728332034358604000,0.77860400390625,-0.8405123353004456,-0.027149686589837074,1.2924104928970337,0.15287894010543823,-0.09313809126615524,-0.9838461875915527,0.14967237412929535,-0.06057898700237274,0.061040401458740234,0.9825614014876508,0.03358559460245666,0.083360124504095,0.1627773082699864
1728332034368635100,0.78863525390625,-0.6113271713256836,0.02093816176056862,1.3364938497543335,0.15175221860408783,-0.08789553493261337,-0.9845027327537537,0.14393262565135956,-0.011027216911315918,0.029836654663085938,0.9815849123929807,0.03051109890273963,0.08256937942643668,0.1695366267195642
1728332034378666200,0.798666259765625,-0.3575945198535919,0.1267697811126709,1.3728901147842407,0.15134000778198242,-0.08518008887767792,-0.9848048090934753,0.13821081817150116,0.04112793505191803,0.005770444869995117,0.9804484008574372,0.028625251471407157,0.08232969627666484,0.17641828777127141
1728332034388697000,0.808697021484375,-0.17912006378173828,0.2763577699661255,1.3823952674865723,0.15226209163665771,-0.08468523621559143,-0.98470538854599,0.11551444232463837,0.06445204466581345,-0.01083904504776001,0.9791558324311574,0.027715519745276543,0.08294072180564994,0.1833213391255185
1728332034398728200,0.818728271484375,-0.10158851742744446,0.402584969997406,1.4060732126235962,0.15456144511699677,-0.08550965040922165,-0.9842758178710938,0.07380163669586182,0.055114105343818665,-0.01023101806640625,0.9777233200091792,0.027314485390301776,0.08435648051552448,0.19024994170642304
1728332034408759000,0.828759033203125,-0.1600300669670105,0.4702053964138031,1.4300285577774048,0.15777692198753357,-0.08652491122484207,-0.9836767315864563,0.05070394277572632,0.009651094675064087,0.012347996234893799,0.976170695046855,0.02688586495594833,0.08624842292670915,0.19730518875065606
1728332034418790100,0.8387900390625,-0.38495638966560364,0.5012738108634949,1.421027660369873,0.16143660247325897,-0.0862029641866684,-0.9831110239028931,0.054978832602500916,-0.05549018085002899,0.016451478004455566,0.974553017947922,0.025718544329569496,0.08822157692815129,0.20445562270556636
1728332034428821000,0.848821044921875,-0.6640608906745911,0.47881150245666504,1.4275145530700684,0.16520243883132935,-0.08333300799131393,-0.9827328324317932,0.06381677091121674,-0.09603408724069595,0.014730513095855713,0.9729085315622995,0.023252023687024486,0.08996076917433952,0.2116968705748771
1728332034438852000,0.85885205078125,-0.8357194662094116,0.41873615980148315,1.431646466255188,0.16857542097568512,-0.07826123386621475,-0.9825769662857056,0.08273687958717346,-0.10702627897262573,0.017183899879455566,0.9712367986146917,0.01971267588945139,0.09123005313291592,0.2190609197555862
1728332034448883000,0.868883056640625,-0.8591421842575073,0.3679503798484802,1.3991752862930298,0.17145593464374542,-0.07224774360656738,-0.9825391173362732,0.10398049652576447,-0.1131923571228981,0.0011548399925231934,0.9695478414360146,0.015754496146985715,0.09209904291146512,0.2263773021137046
1728332034458914000,0.8789140625,-0.7448326349258423,0.33624839782714844,1.388848066329956,0.1740730255842209,-0.066669762134552,-0.9824732542037964,0.095229372382164,-0.08024188876152039,-0.03244978189468384,0.9678312334249631,0.01204183248102098,0.09283511193083391,0.2335368299669474
1728332034468945200,0.888945068359375,-0.5001729130744934,0.34830519556999207,1.4154586791992188,0.17660421133041382,-0.06296630203723907,-0.982265830039978,0.06900128722190857,-0.002905912697315216,-0.0497470498085022,0.9660354007914901,0.009246639351951857,0.09371005920991572,0.24064194793983684
1728332034478976000,0.89897607421875,-0.25752806663513184,0.43028023838996887,1.4580799341201782,0.1796334832906723,-0.061836790293455124,-0.981788158416748,0.051644012331962585,0.07901816070079803,-0.08066606521606445,0.9641058177988099,0.007623353864167393,0.0951198978951597,0.24777860207057018
1728332034489007000,0.909007080078125,-0.056893616914749146,0.5153668522834778,1.5279207229614258,0.1834864765405655,-0.0630742534995079,-0.9809966087341309,0.03245595097541809,0.1404362916946411,-0.10341501235961914,0.9619960215553752,0.007003951660334838,0.09722467571260865,0.255072626314852
1728332034499038000,0.919037841796875,0.02052181214094162,0.5283524394035339,1.5802204608917236,0.18777413666248322,-0.0659138634800911,-0.9799980521202087,0.020233720541000366,0.1557270586490631,-0.09872198104858398,0.9597118303937714,0.007046034602449858,0.09975626598752972,0.2625877223832555
1728332034509069000,0.929069091796875,-0.05481129139661789,0.47375625371932983,1.5685709714889526,0.19173480570316315,-0.06886870414018631,-0.979027509689331,0.017127513885498047,0.11148647964000702,-0.07334059476852417,0.9573432683811385,0.007137040532378172,0.10215335528139448,0.2701991993062453
1728332034519100000,0.939099853515625,-0.2537992000579834,0.4061526954174042,1.5302150249481201,0.195094496011734,-0.0704183354973793,-0.9782532453536987,0.001240372657775879,0.046568818390369415,-0.04165947437286377,0.9549852100201459,0.006604916852202722,0.10406610257509023,0.2777231951684068
1728332034529131300,0.94913134765625,-0.450236439704895,0.3305889070034027,1.4983996152877808,0.19772788882255554,-0.0699642226099968,-0.9777569770812988,-0.025181472301483154,-0.006345018744468689,-0.024760723114013672,0.9526563726333693,0.005190187736807952,0.10533079536229162,0.285174389378955
1728332034539162000,0.959162109375,-0.615962028503418,0.26720115542411804,1.4402081966400146,0.1997581571340561,-0.06767997145652771,-0.9775050282478333,-0.042836740612983704,-0.04914134740829468,-0.011707007884979248,0.950370130057734,0.0029805968898399837,0.10601224292442435,0.2924880599727998
1728332034549193200,0.969193115234375,-0.770584225654602,0.21831157803535461,1.3436681032180786,0.20130299031734467,-0.06370428204536438,-0.9774553179740906,-0.06318040192127228,-0.06248593330383301,-0.029228031635284424,0.9481736277739933,0.000057847644347464325,0.10617129684333257,0.29949046757602227
1728332034559224000,0.97922412109375,-0.8095654249191284,0.17465119063854218,1.2542881965637207,0.2025488317012787,-0.05848311632871628,-0.9775242805480957,-0.0903509259223938,-0.030963938683271408,-0.0504908561706543,0.9460850899261221,-0.003371019140623332,0.10595517590439127,0.30608064220743825
1728332034569255200,0.989255126953125,-0.6794113516807556,0.08995078504085541,1.192549467086792,0.2033083736896515,-0.05367422103881836,-0.9776424765586853,-0.1027071475982666,0.026940789073705673,-0.0799899697303772,0.9440928678577428,-0.006478858909630228,0.10553099488013398,0.31226612252196584
1728332034579286000,0.9992861328125,-0.5818957090377808,0.01624540612101555,1.1275932788848877,0.2032839059829712,-0.04990895465016365,-0.9778469800949097,-0.10425432026386261,0.06600694358348846,-0.11753571033477783,0.9422025988219404,-0.008917365377093171,0.10486648104435799,0.3180848758975792
1728332034589317000,1.009317138671875,-0.47429585456848145,-0.0009988825768232346,1.072776436805725,0.2029280811548233,-0.04696405678987503,-0.9780667424201965,-0.12309406697750092,0.10213980078697205,-0.12854641675949097,0.9403983625943836,-0.010865345819433776,0.10415646012044555,0.3235496023512766
1728332034599348000,1.019347900390625,-0.3100762963294983,-0.03076183795928955,1.0189470052719116,0.2024095356464386,-0.045278895646333694,-0.9782536625862122,-0.15435956418514252,0.1353209763765335,-0.12536877393722534,0.9386653049792144,-0.012145793183960528,0.1035647224524364,0.3286860811948784
1728332034609378000,1.0293779296875,-0.3323970139026642,-0.032444000244140625,0.8733940720558167,0.20168377459049225,-0.04430222883820534,-0.9784482717514038,-0.19355079531669617,0.09779950976371765,-0.08113729953765869,0.9370811426260139,-0.012995398752402104,0.10299027105773029,0.33332135403454566
1728332034619409200,1.0394091796875,-0.4660743772983551,-0.045366719365119934,0.7174052596092224,0.20117825269699097,-0.04202895238995552,-0.9786525964736938,-0.2571016848087311,0.025671500712633133,0.0038448572158813477,0.9357343851557371,-0.014412064898724548,0.10230346556192141,0.33723530622295356
1728332034629440000,1.04943994140625,-0.7604328393936157,-0.05718278884887695,0.6649037003517151,0.20035088062286377,-0.03758016973733902,-0.9790031909942627,-0.3322173058986664,-0.050463076680898666,0.1343071460723877,0.9345557507285169,-0.01674974538163135,0.1010833731133711,0.34074501914060457
1728332034639471000,1.05947119140625,-1.3560397624969482,-0.012670185416936874,0.7040058374404907,0.20019909739494324,-0.02887694165110588,-0.9793295860290527,-0.35368722677230835,-0.1350635141134262,0.2473350167274475,0.9332442998271944,-0.021234896134593298,0.09941973644313105,0.3445575047392643
1728332034649502000,1.069501953125,-1.9440242052078247,-0.10207505524158478,0.639505922794342,0.19966968894004822,-0.013917598873376846,-0.9797644019126892,-0.30063706636428833,-0.11416471004486084,0.23235845565795898,0.9318925085293299,-0.028597857042363024,0.09643625863682845,0.3485092484186742
1728332034659533000,1.079532958984375,-2.243594169616699,-0.31802892684936523,0.5371454954147339,0.19762450456619263,0.005503254476934671,-0.9802623391151428,-0.29276302456855774,-0.12874852120876312,0.3845744729042053,0.9306038223676518,-0.03774366278530636,0.09189255482629244,0.35228936404286604
1728332034669564000,1.08956396484375,-2.618591785430908,-0.35434815287590027,0.49727126955986023,0.19441121816635132,0.028583329170942307,-0.9805035591125488,-0.2569417357444763,-0.1803625226020813,0.3668561577796936,0.9293309343949048,-0.04833897183043031,0.08609037116332853,0.3558032949057044
1728332034679595000,1.099594970703125,-2.7791364192962646,-0.3249753415584564,0.628969669342041,0.1913522481918335,0.05408971384167671,-0.9800298810005188,-0.2304757535457611,-0.1493503451347351,0.3815344572067261,0.9277427814133247,-0.06009534905751309,0.07983479805599054,0.3595946824092964
1728332034689625900,1.1096259765625,-2.7685742378234863,-0.3440745174884796,0.7943170666694641,0.1887291520833969,0.08022122085094452,-0.9787470698356628,-0.18796619772911072,-0.04761321097612381,0.4163234233856201,0.9256267022374552,-0.072256002255143,0.07352228483192676,0.36412732720027347
1728332034699657000,1.119656982421875,-2.5384740829467773,-0.48685216903686523,0.8572263121604919,0.185471311211586,0.10467284917831421,-0.9770588278770447,-0.09036324918270111,0.1122613400220871,0.24187511205673218,0.9231961296155063,-0.0835038054225847,0.06706481404210184,0.36910512480881663
1728332034709688000,1.12968798828125,-2.0761537551879883,-0.583055853843689,0.778466522693634,0.18128198385238647,0.12586787343025208,-0.9753430485725403,0.01680763065814972,0.24328798055648804,0.03546273708343506,0.9207947826116533,-0.0929871820547235,0.06067821316335355,0.37390973427203605
1728332034719719200,1.13971923828125,-1.4034876823425293,-0.6759671568870544,0.5949792265892029,0.17612561583518982,0.14167629182338715,-0.9741188883781433,0.12300771474838257,0.38433992862701416,-0.2068656086921692,0.9188344437309527,-0.09965641074360265,0.05485576056735802,0.37789283816933683
1728332034729750300,1.149750244140625,-0.8432782292366028,-0.7085102796554565,0.4177178740501404,0.1701314002275467,0.1515207439661026,-0.973702609539032,0.1881144791841507,0.4753560721874237,-0.37181735038757324,0.9174938831737542,-0.10326582853475341,0.04984836287501112,0.380862957442501
1728332034739781000,1.159781005859375,-0.5848064422607422,-0.8262931108474731,0.28058505058288574,0.1633652299642563,0.1577765792608261,-0.9738677144050598,0.1847640573978424,0.5728142261505127,-0.4435516595840454,0.9166217051657237,-0.10497201779620063,0.04524389455671298,0.38306476130565403
1728332034749812200,1.169812255859375,-0.5589855909347534,-1.0221463441848755,0.028057193383574486,0.15460480749607086,0.16283312439918518,-0.9744653701782227,0.16320528090000153,0.6453486680984497,-0.40509700775146484,0.9162204661835448,-0.10566050516553065,0.0400396904545355,0.3844125107925234
1728332034759843000,1.179843017578125,-0.8874800801277161,-1.0657085180282593,-0.23073014616966248,0.14418742060661316,0.16991958022117615,-0.974852442741394,0.13327841460704803,0.531389594078064,-0.3175211548805237,0.9162450049908599,-0.10691594812420072,0.03380455617906325,0.3846054172147046
1728332034769874200,1.189874267578125,-1.0969032049179077,-1.0975972414016724,-0.317653089761734,0.133206307888031,0.1801682412624359,-0.9745745062828064,0.04660329222679138,0.4328383207321167,-0.2092939019203186,0.9164124444652993,-0.1095238551268924,0.026781808837574608,0.3840256405754604
1728332034779905000,1.199905029296875,-0.9633696675300598,-1.2233794927597046,-0.30790191888809204,0.12137911468744278,0.19080190360546112,-0.974095344543457,-0.01882477104663849,0.4379975199699402,-0.12134838104248047,0.9165575895834871,-0.11215953269187544,0.01930193127930912,0.38336666639787415
1728332034789936000,1.20993603515625,-0.5802432894706726,-1.2600760459899902,-0.37320342659950256,0.10863759368658066,0.1987810581922531,-0.9740040898323059,-0.05027269572019577,0.4722394347190857,-0.1870829463005066,0.9168491075940524,-0.11338271830293829,0.011929443046717537,0.3826094192110452
1728332034799967000,1.219967041015625,-0.12789209187030792,-1.2821712493896484,-0.5147168636322021,0.09540566802024841,0.20263613760471344,-0.9745954871177673,-0.09935767203569412,0.48373472690582275,-0.23135238885879517,0.9175580725330275,-0.11258406081501464,0.005204233085002519,0.3812941715216218
1728332034809998000,1.229998046875,0.14985410869121552,-1.2718371152877808,-0.6668954491615295,0.08187737315893173,0.2028549760580063,-0.97577965259552,-0.16201651096343994,0.44269859790802,-0.21143043041229248,0.9187023578367794,-0.11004274065781364,-0.000872533041458949,0.3793097524324535
1728332034820029000,1.24002880859375,0.06216047331690788,-1.3637937307357788,-0.8933832049369812,0.06750397384166718,0.202145054936409,-0.9770264029502869,-0.19413664937019348,0.4118381142616272,-0.18808895349502563,0.9202115168871688,-0.10694288154472174,-0.007072296868479367,0.3764625964413363
1728332034830060000,1.25006005859375,-0.07629860937595367,-1.493499517440796,-1.0854392051696777,0.05163180083036423,0.20286954939365387,-0.9778435826301575,-0.20579133927822113,0.39149078726768494,-0.14714109897613525,0.9220023237067737,-0.10429762026492959,-0.014149417477782564,0.3726038551587115
1728332034840091000,1.2600908203125,-0.21166682243347168,-1.6203639507293701,-1.1623244285583496,0.03412826731801033,0.2047301083803177,-0.9782233238220215,-0.18879133462905884,0.282406747341156,-0.09828424453735352,0.9238733019290937,-0.10196555098084346,-0.02216687641964963,0.36819806348245554
1728332034850122000,1.2701220703125,-0.2724948227405548,-1.674773097038269,-1.2518609762191772,0.01559534016996622,0.20741526782512665,-0.9781286716461182,-0.19070519506931305,0.18740589916706085,-0.061605215072631836,0.9257411715172783,-0.09993299929255713,-0.03080679648931706,0.36341138592798977
1728332034860152000,1.280152099609375,-0.2905784845352173,-1.7045507431030273,-1.3493139743804932,-0.0036489430349320173,0.2102380245923996,-0.9776434302330017,-0.24331454932689667,0.1971411257982254,-0.03177124261856079,0.9276495473091859,-0.09795507539837142,-0.039788066837142914,0.35817348453202774
1728332034870183000,1.290182861328125,-0.2451767772436142,-1.6735470294952393,-1.4421701431274414,-0.023033102974295616,0.2125931978225708,-0.9768692851066589,-0.24739840626716614,0.1895521879196167,-0.024137794971466064,0.9296346216775644,-0.09586682364800891,-0.048733010990402906,0.35244040842307345
1728332034880214000,1.300214111328125,-0.2602398693561554,-1.5935404300689697,-1.492488145828247,-0.042001210153102875,0.2146129608154297,-0.9757956862449646,-0.23262646794319153,0.11657905578613281,0.0088157057762146,0.9316561619920687,-0.09383610057473346,-0.057419089838483026,0.34628722995602923
1728332034890244900,1.310244873046875,-0.29749795794487,-1.5755987167358398,-1.5150721073150635,-0.06065924093127251,0.21654368937015533,-0.9743866324424744,-0.2476751059293747,0.07457874715328217,0.07868045568466187,0.9336230924721676,-0.0919532178482075,-0.06596431745524294,0.3399140317127338
1728332034900276200,1.320276123046875,-0.3632016181945801,-1.616233229637146,-1.5613937377929688,-0.07938016206026077,0.21859553456306458,-0.9725815057754517,-0.21497714519500732,0.07776066660881042,0.11650240421295166,0.9355063778363495,-0.09025559972733956,-0.07458667429934938,0.3333447496481861
1728332034910307000,1.33030712890625,-0.5413578152656555,-1.5947108268737793,-1.68740975856781,-0.09865883737802505,0.22160561382770538,-0.9701326489448547,-0.14615316689014435,0.05186240375041962,0.09591090679168701,0.9373366506986541,-0.08909420448136952,-0.08364141363807547,0.3262921913635484
1728332034920338200,1.340338134765625,-0.6986172199249268,-1.4980919361114502,-1.7412649393081665,-0.117418073117733,0.22564169764518738,-0.9671084880828857,-0.1092665046453476,-0.06560751795768738,0.08022189140319824,0.9391760486446807,-0.08871316436306696,-0.09260522955263562,0.3185950687053506
1728332034930369000,1.350369140625,-0.8739309906959534,-1.3868378400802612,-1.6181904077529907,-0.13519100844860077,0.2311917394399643,-0.9634696841239929,-0.10995669662952423,-0.202337384223938,0.06820601224899292,0.9407808937779097,-0.08936642830597571,-0.10138448568003776,0.3109118914496264
1728332034940400000,1.360400146484375,-0.8680030703544617,-1.255513072013855,-1.4860998392105103,-0.15146760642528534,0.23742932081222534,-0.9595232605934143,-0.054037779569625854,-0.19813793897628784,0.0719957947731018,0.9420712892563085,-0.09066861426378663,-0.10962469499714989,0.3037487375318655
1728332034950431200,1.37043115234375,-0.8406738638877869,-1.0667967796325684,-1.4541187286376953,-0.166097030043602,0.2433045655488968,-0.955622673034668,0.01184593141078949,-0.1550629734992981,0.06943798065185547,0.9432192332865952,-0.09213200037320576,-0.11704853192179422,0.29689911076089104
1728332034960462000,1.380462158203125,-0.7168786525726318,-0.9560707807540894,-1.4184094667434692,-0.17917746305465698,0.248344287276268,-0.9519562125205994,0.04706686735153198,-0.1706312894821167,0.09581607580184937,0.9443655603129831,-0.09352166992105887,-0.12359452110457737,0.2900897443227522
1728332034970493200,1.3904931640625,-0.4901439845561981,-0.8293350338935852,-1.3773448467254639,-0.19113193452358246,0.2515510320663452,-0.9487837553024292,0.08261142671108246,-0.1942848265171051,0.061119019985198975,0.9455243219870204,-0.09424367832817689,-0.12932996239044434,0.283506083393249
1728332034980524000,1.40052392578125,-0.23862972855567932,-0.685068666934967,-1.3127621412277222,-0.20162519812583923,0.252281129360199,-0.9464150667190552,0.11416181921958923,-0.19519799947738647,0.02042025327682495,0.946752017676191,-0.09399168474547585,-0.13400752953494943,0.277251150925405
1728332034990555100,1.41055517578125,-0.1409022957086563,-0.566336989402771,-1.3010793924331665,-0.21073444187641144,0.25135019421577454,-0.9446766972541809,0.08834369480609894,-0.18897229433059692,0.0027059316635131836,0.9480343633259125,-0.09314126755827448,-0.13779095290960924,0.27123676167887745
1728332035000586000,1.4205859375,-0.14895568788051605,-0.5068667531013489,-1.3761725425720215,-0.21905498206615448,0.2496606558561325,-0.9432308673858643,0.051833897829055786,-0.1920434534549713,0.04566311836242676,0.9494002389935584,-0.09209716536290136,-0.1410768450998267,0.2650559349635749
1728332035010617000,1.4306171875,-0.6848298907279968,-0.46496978402137756,-1.512265920639038,-0.22725547850131989,0.25002357363700867,-0.9411924481391907,0.02637350559234619,-0.2542044520378113,0.16529828310012817,0.9507747769916173,-0.09224118322404368,-0.14455224504684783,0.2581155967191422
1728332035020648000,1.44064794921875,-1.344415545463562,-0.3879985809326172,-1.467447280883789,-0.23498094081878662,0.25615257024765015,-0.9376405477523804,0.015818938612937927,-0.30670493841171265,0.32480180263519287,0.9519126148987391,-0.09547885450950001,-0.1485378784890532,0.2503655143302532
1728332035030679000,1.450678955078125,-2.0691850185394287,-0.3867155909538269,-1.215043544769287,-0.24206672608852386,0.26883137226104736,-0.932273268699646,0.04420597851276398,-0.33908283710479736,0.4870675802230835,0.9524438697440039,-0.10208455501166967,-0.15310819876475357,0.24287322500337294
1728332035040710000,1.4607099609375,-2.7111313343048096,-0.25868624448776245,-1.117783546447754,-0.2483062893152237,0.2884945869445801,-0.9247242212295532,0.13427734375,-0.3741573989391327,0.4551349878311157,0.9522723237911619,-0.11233160495480034,-0.15817552903952092,0.23566862143666653
1728332035050741000,1.470740966796875,-2.8845479488372803,-0.06567257642745972,-1.0385981798171997,-0.2530900835990906,0.31186556816101074,-0.9157975912094116,0.15195485949516296,-0.29872778058052063,0.3538622260093689,0.951729574525482,-0.12477175328687645,-0.1628901544585212,0.22827545136146118
1728332035060772000,1.480772216796875,-2.5991950035095215,-0.012168074026703835,-0.9745182394981384,-0.25655531883239746,0.33454179763793945,-0.9067862033843994,0.11364147067070007,-0.17900893092155457,0.18661713600158691,0.9510189578588873,-0.1370840875414552,-0.1667778852131511,0.22126032717955949
1728332035070803200,1.49080322265625,-2.165555000305176,0.04814155399799347,-1.0093436241149902,-0.25970765948295593,0.353536993265152,-0.8986454010009766,0.14268800616264343,-0.08322751522064209,-0.008596420288085938,0.9504252580345304,-0.14763179155101777,-0.16994749640790738,0.21451044198350447
1728332035080834000,1.500833984375,-1.7743273973464966,0.05508068948984146,-0.9752730131149292,-0.26283755898475647,0.36858490109443665,-0.8916622996330261,0.11397278308868408,-0.015389680862426758,-0.06883269548416138,0.9500339765902274,-0.15620975159482367,-0.17253221927010867,0.20800683623921962
1728332035090865200,1.510865234375,-1.554421067237854,0.10451087355613708,-0.8488935232162476,-0.2655332088470459,0.3808000385761261,-0.8857107162475586,0.0866696834564209,-0.008302450180053711,0.041960716247558594,0.9497289717978449,-0.1633205308570679,-0.17455954533651097,0.2021647133081338
1728332035100895200,1.520895263671875,-1.647696852684021,0.2118714153766632,-0.8056696057319641,-0.2671939432621002,0.39271146059036255,-0.8799915909767151,0.09013092517852783,-0.06551721692085266,0.1472187638282776,0.9493570067307668,-0.17034557973161255,-0.17603009324483093,0.19676728381057287
1728332035110926000,1.530926025390625,-1.0981884002685547,0.348530113697052,-0.38386431336402893,-0.26733139157295227,0.40425679087638855,-0.8747059106826782,0.04877972602844238,-0.14356034994125366,0.2644459009170532,0.94894446324953,-0.17725127384372072,-0.17671736451975015,0.1919832508366217
1728332035120957200,1.540957275390625,0.6969223618507385,-0.30579978227615356,0.20198558270931244,-0.26692840456962585,0.40534690022468567,-0.874324381351471,-0.010308533906936646,-0.2953920364379883,0.40401798486709595,0.9488845840104242,-0.17789621225961497,-0.176608997152524,0.1917823253520879
1728332035130988000,1.550988037109375,1.0495985746383667,0.1582842469215393,-0.3648214042186737,-0.26855558156967163,0.3972034454345703,-0.877557635307312,0.17477506399154663,-0.3374652564525604,-0.2730313539505005,0.949595582613598,-0.17335917794608513,-0.17654400241075233,0.19247673000538637
1728332035141019100,1.56101904296875,1.3124231100082397,0.4552445709705353,-0.531917929649353,-0.2670409083366394,0.3854067325592041,-0.8832614421844482,-0.013125717639923096,0.1270139217376709,-0.412728488445282,0.9514301316000512,-0.1676513631378363,-0.17396058330692235,0.19081795165883655
1728332035151050000,1.571050048828125,1.1964811086654663,0.025552621111273766,-0.17039437592029572,-0.26620036363601685,0.3730756640434265,-0.8887923955917358,-0.20424339175224304,0.4369371831417084,-0.05034029483795166,0.9530464883747553,-0.16146894538422643,-0.1718475504649547,0.18999644567366875
1728332035161081000,1.5810810546875,0.9210325479507446,-0.3692314326763153,0.0862259566783905,-0.26788267493247986,0.36356016993522644,-0.8922235369682312,0.18508848547935486,0.34258607029914856,-0.315479040145874,0.9537584196492391,-0.15621834449946542,-0.1717092005187421,0.19093633014581218
1728332035171112000,1.59111181640625,0.551129937171936,-0.4735032021999359,0.10685666650533676,-0.27136772871017456,0.35710155963897705,-0.8937774300575256,0.4022881090641022,0.06181323528289795,-0.35494083166122437,0.9538616642146402,-0.1522886741738277,-0.17297240836653344,0.1924495317661466
1728332035181143000,1.60114306640625,-0.2803347408771515,-0.4927610754966736,0.1003715991973877,-0.2752552330493927,0.3558279573917389,-0.8930963277816772,0.3565388023853302,-0.237282395362854,-0.34436094760894775,0.9534867618348112,-0.15109499729891246,-0.17499183195450568,0.1934198587412401
1728332035191174100,1.611174072265625,-1.134900689125061,-0.634356677532196,0.14046336710453033,-0.2796783447265625,0.36285513639450073,-0.8888848423957825,0.2318115532398224,-0.3301860988140106,-0.19181889295578003,0.95230726726108,-0.1542451983126723,-0.17823022174268757,0.19378728868796274
1728332035201205000,1.621205078125,-1.3135745525360107,-0.7610312700271606,0.059476371854543686,-0.2855162024497986,0.3744112551212311,-0.8822112679481506,0.16796249151229858,-0.21048608422279358,0.06037294864654541,0.9505717540185216,-0.1597061667122392,-0.18272466699673942,0.19369827935054168
1728332035211236000,1.631236083984375,-0.9273694157600403,-0.6977959275245667,-0.0442015565931797,-0.2919934391975403,0.3845597505569458,-0.8757017850875854,0.08097964525222778,-0.0143357515335083,0.013656556606292725,0.948943639351795,-0.16446601639693934,-0.18735001665690745,0.19327938391739438
1728332035221267000,1.641266845703125,-0.16497933864593506,-0.5020610094070435,-0.13752244412899017,-0.29752102494239807,0.38925132155418396,-0.8717595338821411,-0.049677491188049316,0.17752116918563843,-0.05229747295379639,0.9480015197289403,-0.16649993951563724,-0.19078260222880072,0.19280301753494078
1728332035231298000,1.651298095703125,0.5519012808799744,-0.38495492935180664,-0.09234991669654846,-0.30177295207977295,0.3869209587574005,-0.8713353276252747,-0.12373363971710205,0.3211784064769745,-0.12823736667633057,0.9478917671067788,-0.16489805439775737,-0.19271989611790405,0.19279263034212407
1728332035241329000,1.661328857421875,0.7257103323936462,-0.33228904008865356,0.03339709714055061,-0.3049299716949463,0.38088396191596985,-0.8728947043418884,-0.1208360493183136,0.33380722999572754,-0.19418293237686157,0.9481324925706659,-0.1612932069597087,-0.19374509042526206,0.19362891019664225
1728332035251360300,1.6713603515625,0.263936311006546,-0.30889296531677246,0.1030171811580658,-0.3074209988117218,0.3764728009700775,-0.8739339709281921,-0.0435311496257782,0.21401184797286987,-0.05877476930618286,0.948180177876566,-0.15854271556935068,-0.19467208527256416,0.19473431409872238
1728332035261391000,1.68139111328125,-0.44994503259658813,-0.3290421664714813,0.19625020027160645,-0.3095162510871887,0.37770816683769226,-0.8726604580879211,-0.005928725004196167,-0.004356086254119873,0.13659173250198364,0.9476663994072956,-0.1588116864377287,-0.1960831965814544,0.19559854548501523
1728332035271422200,1.691422119140625,-1.0849759578704834,-0.40653473138809204,0.22008895874023438,-0.3118996322154999,0.38521671295166016,-0.8685199022293091,0.01551288366317749,-0.26480957865715027,0.24170410633087158,0.9464590671708036,-0.16238099772424958,-0.19842497135576037,0.19615167462512098
1728332035281453000,1.701453125,-1.4920445680618286,-0.42120128870010376,0.1846121847629547,-0.314621239900589,0.3971642851829529,-0.8621334433555603,0.04495266079902649,-0.4588403105735779,0.2419704794883728,0.9447687747004554,-0.16836187394627128,-0.20146357527941763,0.19616004337538007
1728332035291484200,1.711484130859375,-1.3802663087844849,-0.43119025230407715,0.08862359821796417,-0.3177229166030884,0.4103413224220276,-0.8547936081886292,0.04146254062652588,-0.4586659073829651,0.14320003986358643,0.942920395612781,-0.17508218897335048,-0.20481556522331754,0.19569849291672375
1728332035301515000,1.721514892578125,-0.987232506275177,-0.384538859128952,-0.0684344619512558,-0.32119429111480713,0.42046058177948,-0.8485559821128845,0.05181559920310974,-0.3005112111568451,0.0033411383628845215,0.9414330812380813,-0.18026933371396417,-0.20790619885874395,0.19488968626045713
1728332035311546000,1.731546142578125,-0.564800500869751,-0.2441651076078415,-0.0732574462890625,-0.3241714537143707,0.4268176853656769,-0.8442390561103821,0.02189481258392334,-0.07359194755554199,-0.13586348295211792,0.9404787695174546,-0.18356495155707545,-0.2102008265586596,0.19395688878771167
1728332035321577000,1.741576904296875,-0.21769528090953827,-0.11119638383388519,0.022206226363778114,-0.3256787061691284,0.4299103617668152,-0.8420869708061218,-0.022603154182434082,0.16522818803787231,-0.1440579891204834,0.9399717349312517,-0.18513724732631295,-0.21137811981852384,0.19364068329553535
1728332035331608000,1.751608154296875,-0.2545164227485657,-0.04185992106795311,0.03763392195105553,-0.3261221647262573,0.4318183958530426,-0.8409383296966553,-0.029239803552627563,0.24887624382972717,-0.08517861366271973,0.9396711066687939,-0.1861140509230242,-0.21187827191291847,0.19361681396977168
1728332035341639200,1.76163916015625,-0.43286406993865967,-0.02097674459218979,0.09909914433956146,-0.32603538036346436,0.4349451959133148,-0.8393591046333313,-0.07125774025917053,0.17822927236557007,0.0226934552192688,0.9392528150751094,-0.18778302399640226,-0.21226866792115862,0.19360777586723701
1728332035351670000,1.771669921875,-0.5431674718856812,0.0100381625816226,0.1473681479692459,-0.3255046606063843,0.4395022988319397,-0.8371884226799011,-0.05567517876625061,0.07294890284538269,0.10842865705490112,0.938662323826038,-0.1902386715816508,-0.2126382537701541,0.19366825467778245
1728332035361701000,1.781701171875,-0.5106713175773621,0.016040928661823273,0.19081735610961914,-0.3245578706264496,0.44457104802131653,-0.8348764777183533,-0.022762686014175415,-0.0009827613830566406,0.09445905685424805,0.9380005101801759,-0.19297175417679618,-0.21289351863374853,0.19388996725940288
1728332035371732000,1.79173193359375,-0.19839468598365784,0.02327263541519642,0.16169089078903198,-0.32353055477142334,0.44824373722076416,-0.8333100080490112,-0.02183687686920166,-0.027589410543441772,0.061322152614593506,0.937494043055543,-0.19492477731528163,-0.2129538088926052,0.19431935509758255
1728332035381763000,1.80176318359375,0.15410344302654266,0.09342269599437714,0.15665379166603088,-0.3223671317100525,0.44892242550849915,-0.8333955407142639,-0.0334068238735199,-0.002648591995239258,-0.016808927059173584,0.9373815223805829,-0.19524382766910456,-0.21256074683476564,0.19497135093884588
1728332035391794000,1.8117939453125,0.7396395206451416,0.23674432933330536,0.19974693655967712,-0.3201804459095001,0.44605401158332825,-0.8357753157615662,-0.07158899307250977,0.06630566716194153,-0.014215528964996338,0.9377812778556476,-0.1936590325342101,-0.21120728994440544,0.19609732287511056
1728332035401825000,1.821824951171875,1.8420404195785522,0.5041621923446655,0.14299815893173218,-0.3163250982761383,0.43578022718429565,-0.8426352143287659,-0.1033984124660492,0.11858686804771423,0.07206636667251587,0.9392188792710486,-0.18814099391917283,-0.20805136295389864,0.19795374187715342
1728332035411856100,1.831856201171875,2.8314714431762695,0.9331632852554321,0.03931171074509621,-0.30984386801719666,0.41624417901039124,-0.854831874370575,-0.17440906167030334,0.14999425411224365,0.030231714248657227,0.9420038384278056,-0.17796767692067372,-0.20226605229135078,0.20011193650485962
1728332035421887200,1.84188720703125,3.876699447631836,1.215370535850525,0.1733134537935257,-0.2999464273452759,0.3872193396091461,-0.871833324432373,-0.292720228433609,0.35948479175567627,0.03987836837768555,0.9459105478545956,-0.16316330690257957,-0.19354862671432313,0.2029039392886189
1728332035431918000,1.85191796875,4.078093528747559,0.8244444131851196,0.6655527353286743,-0.28894364833831787,0.35273030400276184,-0.8899960517883301,-0.31374800205230713,0.646705150604248,-0.003695964813232422,0.9496367982912166,-0.1454596244901611,-0.1839659927048266,0.20781742637855327
1728332035441949200,1.86194921875,3.8646225929260254,0.09372496604919434,0.9700961112976074,-0.2820035517215729,0.3190859258174896,-0.9047973155975342,-0.1283358335494995,0.6130582690238953,-0.19554448127746582,0.9518700344645338,-0.12758357461341932,-0.17698524930456075,0.21527204860188448
1728332035451980000,1.87197998046875,2.9290146827697754,0.13010087609291077,0.36170387268066406,-0.2791641056537628,0.2895817756652832,-0.9155380129814148,0.20518949627876282,-0.039841145277023315,-0.4017837643623352,0.953218529923414,-0.11179557671208902,-0.17243188477834673,0.22168328941316967
1728332035462011100,1.88201123046875,1.9016450643539429,0.3169565200805664,-0.3011971414089203,-0.2768181562423706,0.2678561508655548,-0.9228352308273315,0.2566154897212982,-0.6331210136413574,-0.17059433460235596,0.9546998938422927,-0.10081206434643906,-0.16858032842124326,0.22353028563729724
1728332035472042000,1.8920419921875,1.7412220239639282,0.15094095468521118,-0.22521181404590607,-0.2752571403980255,0.2502509355545044,-0.9282284379005432,0.141513854265213,-0.5115882158279419,0.2069607377052307,0.9561285289588897,-0.09219039342343456,-0.16548934628109782,0.22345613627827518
1728332035482073000,1.902072998046875,1.9225167036056519,-0.07628820091485977,0.14415398240089417,-0.2750329375267029,0.23347249627113342,-0.9326561689376831,0.279778391122818,-0.16074910759925842,0.2552574872970581,0.9569798759514526,-0.08362155124060638,-0.1633381824918764,0.22476133057524372
1728332035492104000,1.91210400390625,2.2711713314056396,-0.04374762624502182,0.19233189523220062,-0.27523744106292725,0.21403557062149048,-0.937247633934021,0.34548890590667725,0.11657662689685822,0.2113412618637085,0.9575429201328178,-0.07347760204635549,-0.16117451720894804,0.227454219585841
1728332035502135000,1.922135009765625,2.244335889816284,0.09747342020273209,0.055670443922281265,-0.2747310996055603,0.1929875612258911,-0.9419546723365784,0.13042870163917542,0.2587183713912964,0.15989595651626587,0.958200818267105,-0.06270758971059473,-0.1583995360617141,0.22984484294965954
1728332035512166100,1.932166259765625,2.174558639526367,0.11164915561676025,0.11086844652891159,-0.27325743436813354,0.17240841686725616,-0.9463644623756409,-0.14915162324905396,0.27250730991363525,0.21333229541778564,0.9588577090603781,-0.05237901622737783,-0.1551586189387129,0.23189293747865744
1728332035522197000,1.942197021484375,2.176283359527588,-0.16977933049201965,0.12765543162822723,-0.27331849932670593,0.1519707888364792,-0.9498431086540222,-0.22063905000686646,0.10936649143695831,0.11964291334152222,0.9591979007299404,-0.04192759016966164,-0.15271062301580177,0.2342242752250944
1728332035532228000,1.95222802734375,1.8557827472686768,-0.1919352263212204,0.011420425027608871,-0.2750280201435089,0.13275161385536194,-0.9522271752357483,-0.15038704872131348,-0.14122024178504944,-0.1469549536705017,0.9593384672348712,-0.031961567266654084,-0.15121133265266085,0.236184962012065
1728332035542259000,1.962259033203125,1.4463834762573242,-0.134752094745636,-0.1472054272890091,-0.27661383152008057,0.11682351678609848,-0.9538537859916687,-0.12759152054786682,-0.21084818243980408,-0.0779150128364563,0.959532216718517,-0.023802110387762934,-0.15002187551190774,0.2371178526479937
1728332035552289000,1.9722890625,0.9704819321632385,-0.08428439497947693,-0.22453829646110535,-0.2778266370296478,0.10458160191774368,-0.9549214839935303,-0.12804192304611206,-0.18473604321479797,0.08687949180603027,0.9598183556155019,-0.017653201605826577,-0.1490892855486905,0.2370856828735907
1728332035562320000,1.98231982421875,0.3999577462673187,-0.09005306661128998,-0.1335388869047165,-0.2787720561027527,0.09755537658929825,-0.9553894996643066,-0.1240142285823822,-0.15544722974300385,0.15189218521118164,0.9600348205739082,-0.014150903991612736,-0.14867749877480776,0.23670244238639357
1728332035572351000,1.99235107421875,-0.2813835144042969,-0.10763232409954071,-0.06960704922676086,-0.2798238694667816,0.09648148715496063,-0.9551910161972046,-0.12329807877540588,-0.16008013486862183,0.27365726232528687,0.9600762197747309,-0.013553865216605928,-0.14906633659633103,0.2363243197950309
1728332035582382000,2.002382080078125,-1.4139872789382935,-0.01431303657591343,-0.14166899025440216,-0.28047066926956177,0.10410470515489578,-0.9542003870010376,-0.13847464323043823,-0.2766816318035126,0.3504864573478699,0.9600819771558025,-0.01738211754757647,-0.15032517106425472,0.23525065648105187
1728332035592413200,2.0124130859375,-2.5890777111053467,0.044564928859472275,-0.2076951414346695,-0.280456006526947,0.12289867550134659,-0.9519665837287903,-0.19303950667381287,-0.4138380289077759,0.4216473698616028,0.9600878560538643,-0.026994330612084578,-0.15260412532285764,0.23284042842583144
1728332035602444300,2.0224443359375,-3.511385440826416,0.12585818767547607,-0.1942799985408783,-0.2799304127693176,0.1516680270433426,-0.9479640126228333,-0.20230835676193237,-0.48963499069213867,0.457302451133728,0.959860703766215,-0.04176090381892287,-0.15580120111172177,0.2294550031153536
1728332035612475100,2.03247509765625,-3.6100594997406006,0.19163614511489868,-0.14473828673362732,-0.27865058183670044,0.18558993935585022,-0.9422898888587952,-0.11540764570236206,-0.4502994120121002,0.45559555292129517,0.9592645063453145,-0.05927453523102917,-0.15919039591706305,0.22573607667993245
1728332035622506200,2.04250634765625,-2.704118013381958,0.09768673777580261,-0.07259618490934372,-0.2773210406303406,0.21554864943027496,-0.936286211013794,-0.05159744620323181,-0.29474174976348877,0.26290059089660645,0.9584426971768024,-0.07481933258377374,-0.16204617894626933,0.22255556358925468
1728332035632537000,2.052537109375,-1.4423141479492188,-0.08876671642065048,-0.1327439397573471,-0.2775174379348755,0.23462054133415222,-0.9316315054893494,-0.0031985342502593994,-0.06948992609977722,-0.24437862634658813,0.9577132151736931,-0.08465304153718427,-0.16437183653240958,0.22045707887416405
1728332035642568200,2.062568115234375,-0.47073838114738464,-0.18427884578704834,-0.2902345061302185,-0.27928513288497925,0.24275213479995728,-0.9290162920951843,0.10171857476234436,0.2920226454734802,-0.6415250897407532,0.9574372769303136,-0.08882507866000146,-0.16613839043087808,0.21868289250405532
1728332035652599000,2.07259912109375,0.22029396891593933,-0.415524423122406,-0.21789824962615967,-0.2826116681098938,0.24292242527008057,-0.9279651641845703,0.1667669117450714,0.6348241567611694,-0.5646800994873047,0.957442272314783,-0.08876129779840741,-0.16774638013533155,0.21745562714346967
1728332035662630100,2.082630126953125,0.1812906414270401,-0.622040867805481,-0.18463216722011566,-0.2879830598831177,0.23991231620311737,-0.9270964860916138,0.2344551980495453,0.6068894267082214,-0.34838569164276123,0.9573146037156848,-0.08674905522320987,-0.1700775271202308,0.21701881620739175
1728332035672661000,2.092660888671875,-0.7425472736358643,-0.5718391537666321,-0.28654974699020386,-0.2941560447216034,0.24146415293216705,-0.9247525930404663,0.248166024684906,0.22385261952877045,-0.2025514841079712,0.9569459018479873,-0.08704879635525456,-0.17333846018785287,0.21594220554880048
1728332035682692000,2.102692138671875,-1.8737646341323853,-0.44892096519470215,-0.24775521457195282,-0.29950132966041565,0.2528327405452728,-0.9199861884117126,0.09750545024871826,-0.19547495245933533,0.046435773372650146,0.9562131968802773,-0.09258986877304229,-0.1772964262982439,0.21365753342276855
1728332035692723000,2.112722900390625,-2.612004518508911,-0.47272220253944397,-0.0911237969994545,-0.30403828620910645,0.2732318937778473,-0.9126363396644592,-0.019417554140090942,-0.4597705602645874,0.22452598810195923,0.95487056570632,-0.10286059674013795,-0.1819382597159415,0.2110462561334256
1728332035702754000,2.122754150390625,-2.65588641166687,-0.5185376405715942,-0.18824101984500885,-0.30891576409339905,0.2974461317062378,-0.903380811214447,0.00392305850982666,-0.4702976644039154,0.23805183172225952,0.9530632792928143,-0.11514172472266053,-0.1872217373753411,0.20823281143801733
1728332035712785000,2.132784912109375,-1.941473364830017,-0.41305407881736755,-0.3278042674064636,-0.31396839022636414,0.31746962666511536,-0.8947831988334656,0.012332618236541748,-0.25355055928230286,0.24279040098190308,0.9515006517590183,-0.12544909039659272,-0.1920180702759374,0.20503239368376147
1728332035722816000,2.14281591796875,-1.2044517993927002,-0.24058988690376282,-0.250824511051178,-0.3178883194923401,0.3306051194667816,-0.8886210322380066,-0.0625285804271698,0.04016822576522827,0.1524607539176941,0.9504711420035533,-0.13233443708590417,-0.1953895801055441,0.20227535125814
1728332035732846800,2.152846923828125,-0.4854133427143097,-0.08410367369651794,-0.15443432331085205,-0.31991851329803467,0.33738628029823303,-0.8853375911712646,-0.07429233193397522,0.30450522899627686,0.05413031578063965,0.9499512817386673,-0.13594805038478291,-0.19710231939716333,0.20065270513978878
1728332035742878000,2.1628779296875,-0.18946343660354614,0.017098842188715935,-0.17011554539203644,-0.32065632939338684,0.3395235240459442,-0.8842529654502869,-0.04537153244018555,0.3728483319282532,-0.09385067224502563,0.9498821311370244,-0.13718753692977187,-0.19761855631875505,0.19962582474906526
1728332035752909000,2.172908935546875,-0.4381343126296997,-0.07080794870853424,-0.22600437700748444,-0.321419894695282,0.3414004147052765,-0.8832525610923767,-0.041983455419540405,0.1999967098236084,-0.2282128930091858,0.949867901667561,-0.13832633517793835,-0.19808975039521667,0.19843760920590903
1728332035762940200,2.182940185546875,-0.8737670183181763,-0.2142692357301712,-0.30755358934402466,-0.32358717918395996,0.3464093506336212,-0.8805066347122192,-0.008795052766799927,-0.04777956008911133,-0.20784175395965576,0.9495250433329756,-0.1410810433487043,-0.19960667744483587,0.19661007719566057
1728332035772970000,2.192969970703125,-1.1286957263946533,-0.30838072299957275,-0.37792813777923584,-0.3271001875400543,0.3542657792568207,-0.8760714530944824,0.03181210160255432,-0.24310550093650818,-0.1627010703086853,0.9488645740619006,-0.145328058353754,-0.20209903038591423,0.1941436726469806
1728332035783001000,2.2030009765625,-1.1281225681304932,-0.24946442246437073,-0.4078008234500885,-0.33102837204933167,0.36290615797042847,-0.8710449934005737,0.024738669395446777,-0.2907778322696686,-0.14531242847442627,0.9481162270486425,-0.1500495163296244,-0.20484788766953332,0.19130634924038967
1728332035793032200,2.2130322265625,-1.0510395765304565,-0.16267113387584686,-0.3243170976638794,-0.3341091573238373,0.37121444940567017,-0.8663550019264221,-0.020993411540985107,-0.13783124089241028,-0.05664914846420288,0.9474307983289952,-0.15468777702635772,-0.20710913937892086,0.18855400162061095
1728332035803063000,2.22306298828125,-0.8561657071113586,-0.11690418422222137,-0.2188950628042221,-0.33626091480255127,0.37866440415382385,-0.862288773059845,-0.05633249878883362,0.07192766666412354,0.08056575059890747,0.9467853882123527,-0.15885693468217416,-0.20885423131702172,0.1863920985620664
1728332035813094100,2.23309423828125,-0.6890902519226074,-0.09321290999650955,-0.19273510575294495,-0.33795681595802307,0.3846285939216614,-0.8589796423912048,-0.039423584938049316,0.11517307162284851,0.10350179672241211,0.9462375421185908,-0.16219643049308302,-0.21024386561344544,0.18472807861282456
1728332035823125200,2.243125244140625,-0.5632156729698181,-0.033725619316101074,-0.2365289181470871,-0.33922290802001953,0.38923585414886475,-0.8564013838768005,-0.010539084672927856,0.007599502801895142,0.07461732625961304,0.9458683115345369,-0.16486005104916446,-0.21123560312899145,0.1831226822512707
1728332035833156000,2.253156005859375,-0.5322473049163818,-0.0035382062196731567,-0.26005929708480835,-0.34036365151405334,0.3930533826351166,-0.854202389717102,-0.012953639030456543,-0.07823401689529419,0.08932507038116455,0.9456264155233013,-0.16716221983764504,-0.21202736825925325,0.18136190448000286
1728332035843187200,2.263187255859375,-0.6217949986457825,0.01500112283974886,-0.2510641813278198,-0.341304212808609,0.3969563841819763,-0.8520194292068481,-0.02238905429840088,-0.05049028992652893,0.06954872608184814,0.9453964369186372,-0.16954593782817534,-0.21270742266484316,0.1795427273182073
1728332035853218000,2.273218017578125,-0.5802367329597473,0.01415019016712904,-0.19043706357479095,-0.34184134006500244,0.4015461206436157,-0.8496500849723816,-0.012177854776382446,0.053379446268081665,0.004999876022338867,0.9451006568534119,-0.17231617186149603,-0.2132652902711946,0.17779232285301294
1728332035863249200,2.283249267578125,-0.39103856682777405,-0.02746329829096794,-0.2281692624092102,-0.3428405225276947,0.4050031900405884,-0.8476041555404663,0.002691596746444702,0.10540330410003662,-0.044363558292388916,0.9448298924963622,-0.17438792601623787,-0.21397843738955621,0.17634799780435534
1728332035873280000,2.293280029296875,-0.22525040805339813,0.08432847261428833,-0.28409698605537415,-0.3436070382595062,0.4066559672355652,-0.8465017676353455,0.008096754550933838,0.001989692449569702,-0.14585357904434204,0.9448353166343226,-0.17556316573149278,-0.21430515516251386,0.17474944943193174
1728332035883311000,2.30331103515625,-0.07073086500167847,0.10492908954620361,-0.21649448573589325,-0.3437957167625427,0.40710708498954773,-0.8462082147598267,-0.052444517612457275,-0.04951736330986023,-0.09074240922927856,0.9450282510282444,-0.17612037938823114,-0.21419034553608418,0.1732795736451335
1728332035893342000,2.313342041015625,0.3095276653766632,0.18431313335895538,-0.1468254029750824,-0.34332048892974854,0.4055235683917999,-0.8471609950065613,-0.06421124935150146,0.015344351530075073,0.05121678113937378,0.9454328075067671,-0.1755078689207007,-0.21358020554490795,0.17244521537103805
1728332035903373000,2.323373046875,0.7281677722930908,0.3460772633552551,-0.15305985510349274,-0.3416641652584076,0.4006028473377228,-0.8501664400100708,-0.058116137981414795,0.08995199203491211,0.0641099214553833,0.9462967901287377,-0.17312026391848437,-0.21200506997498486,0.1720632141152484
1728332035913404000,2.33340380859375,1.0439937114715576,0.47786688804626465,-0.10031995922327042,-0.33855879306793213,0.3924145996570587,-0.8552126884460449,-0.09105241298675537,0.15613889694213867,0.06195402145385742,0.9476351643029463,-0.16905007562627686,-0.20932206677170678,0.1720291980063823
1728332035923435000,2.34343505859375,1.2265781164169312,0.47670257091522217,-0.046447932720184326,-0.334598571062088,0.38236647844314575,-0.8613011837005615,-0.08372116088867188,0.19241687655448914,0.08652091026306152,0.949155408473418,-0.1639758080503575,-0.206061504981829,0.17249565127156744
1728332035933465900,2.3534658203125,1.141567587852478,0.41649895906448364,-0.1059485450387001,-0.3309478759765625,0.37167173624038696,-0.867371678352356,-0.006011992692947388,0.15123173594474792,0.05461227893829346,0.950655338534746,-0.15854730085537033,-0.2029209246003571,0.17303304000528683
1728332035943497200,2.363497314453125,0.8366718888282776,0.30996453762054443,-0.10444359481334686,-0.3281722068786621,0.3626055419445038,-0.8722500801086426,0.03689715266227722,0.032307177782058716,0.009075641632080078,0.9519040696661859,-0.15399699000563594,-0.20039928179747915,0.17321627258544267
1728332035953528000,2.373528076171875,0.47034090757369995,0.21810123324394226,-0.025707770138978958,-0.32601237297058105,0.35668644309043884,-0.8754945993423462,0.04950782656669617,-0.061154186725616455,0.04573690891265869,0.9527276142974781,-0.15105550984281507,-0.19858232029776257,0.17337123904094548
1728332035963559200,2.38355908203125,0.26416510343551636,0.11629978567361832,-0.05731469392776489,-0.3246801793575287,0.3534872829914093,-0.8772853016853333,0.07796081900596619,-0.10940772294998169,0.05004537105560303,0.9531852120798417,-0.1494855606715172,-0.19751305794535953,0.17343775237228198
1728332035973590000,2.393590087890625,0.2168334722518921,0.0719173476099968,-0.05218251794576645,-0.32403916120529175,0.3512260615825653,-0.8784298300743103,0.02814069390296936,-0.10000535845756531,0.06708943843841553,0.9535066039470285,-0.14838642957595155,-0.19689227213395522,0.17332116059626992
1728332035983621000,2.40362109375,0.4697378873825073,0.07667295634746552,-0.05881538614630699,-0.3235507905483246,0.3481106460094452,-0.8798487782478333,-0.0512661337852478,-0.0529293417930603,0.04597121477127075,0.9538662631662546,-0.14679421683797733,-0.19628312151300398,0.17338869586886108
1728332035993651200,2.413651123046875,0.5542098879814148,0.15939685702323914,-0.12250915169715881,-0.32283881306648254,0.3431996703147888,-0.8820369243621826,-0.06383419036865234,-0.01274004578590393,-0.04934430122375488,0.9544453481522351,-0.14431112588253373,-0.19533520303807253,0.17335715260865736
1728332036003682000,2.42368212890625,0.5433061122894287,0.1900317370891571,-0.0689639002084732,-0.32155802845954895,0.3379485607147217,-0.8845288157463074,-0.09111595153808594,0.03863835334777832,-0.07509642839431763,0.9551081795783676,-0.14170723436734087,-0.1940480591348093,0.1733000891035328
1728332036013713200,2.433713134765625,0.44970792531967163,0.1546015739440918,-0.053310900926589966,-0.3201422691345215,0.33332961797714233,-0.8867921233177185,-0.07597586512565613,0.07589584589004517,-0.02836894989013672,0.955681418881052,-0.13941268210420615,-0.19279012864052839,0.1734046170784738
1728332036023744000,2.443743896484375,0.307232528924942,0.052429404109716415,-0.12908422946929932,-0.3194769024848938,0.3296164274215698,-0.8884185552597046,-0.012600123882293701,0.023502469062805176,-0.026650965213775635,0.9561279879847268,-0.13757230082605093,-0.19200151734461435,0.1732875858885751
1728332036033775000,2.453775146484375,0.04092542082071304,-0.003417564556002617,-0.14466877281665802,-0.31972742080688477,0.32762476801872253,-0.8890649080276489,0.010645359754562378,-0.08011195063591003,0.007457852363586426,0.9563969558306976,-0.13663433963907243,-0.19182961607325083,0.1727351840781066
1728332036043806000,2.463805908203125,-0.0807884931564331,-0.0722552239894867,-0.0678086206316948,-0.3203345835208893,0.32760027050971985,-0.8888553380966187,0.009848743677139282,-0.12323927879333496,0.07058751583099365,0.9564373760213063,-0.13667811068357757,-0.1920713915269574,0.17220723863672308
1728332036053837000,2.473837158203125,0.0992262065410614,-0.08630429953336716,-0.09187134355306625,-0.3213041424751282,0.327330082654953,-0.8886048793792725,0.016876041889190674,-0.0728592574596405,0.12186604738235474,0.9564234896896671,-0.13651739656117418,-0.19251116640150365,0.17192041442892947
1728332036063868200,2.4838681640625,0.15169793367385864,-0.01296883262693882,-0.06067906692624092,-0.3220215141773224,0.3257731795310974,-0.8889173269271851,-0.0052947998046875,-0.00022688508033752441,0.05587899684906006,0.9565501200017993,-0.1357056918687013,-0.19267926959557224,0.17167020980066533
1728332036073899000,2.49389892578125,0.25630027055740356,-0.032520592212677,0.04059269279241562,-0.32209670543670654,0.3241850733757019,-0.8894705176353455,-0.060944706201553345,0.08543714880943298,0.03731292486190796,0.9566641272735943,-0.13484566070658738,-0.19256528875279358,0.1718405784841954
1728332036083930000,2.50393017578125,0.34397152066230774,-0.11673559248447418,-0.07356131076812744,-0.32284507155418396,0.32116320729255676,-0.8902950882911682,-0.023407399654388428,0.11052322387695312,0.018804609775543213,0.9568157170531552,-0.13315455698055603,-0.19267156442162509,0.17219576156598218
1728332036093961000,2.5139609375,0.0835200846195221,-0.09911122918128967,-0.10022621601819992,-0.3240041136741638,0.3189445436000824,-0.8906714916229248,0.012038171291351318,-0.016561120748519897,-0.12840193510055542,0.9569509754452238,-0.1319576789992195,-0.1930062498903228,0.1719904944296968
1728332036103992000,2.523991943359375,-0.014301015995442867,-0.2268715798854828,-0.07021451741456985,-0.32570645213127136,0.3184160590171814,-0.8902395963668823,-0.025184690952301025,-0.08745899796485901,-0.029926419258117676,0.9568819712754287,-0.13159579779007288,-0.1938110956440511,0.17174653465297499
1728332036114023000,2.53402294921875,-0.0805492177605629,-0.23621422052383423,-0.0570816695690155,-0.3280371129512787,0.3186552822589874,-0.8892977237701416,0.0054052770137786865,-0.11022022366523743,0.024170219898223877,0.9566711966683478,-0.13156945086169541,-0.19504002211119376,0.1715490639775891
1728332036124054000,2.544053955078125,-0.06739666312932968,-0.1703377366065979,-0.02933659218251705,-0.3299797475337982,0.3191947937011719,-0.8883851170539856,-0.00867384672164917,-0.08700180053710938,0.012637436389923096,0.9564610854436983,-0.1317218560975327,-0.19610404565779133,0.17139153100565088
1728332036134085000,2.554085205078125,0.06979048997163773,-0.139218270778656,0.030394913628697395,-0.33131688833236694,0.31929653882980347,-0.8878507018089294,-0.031186193227767944,0.011163055896759033,0.06401342153549194,0.9563053042258854,-0.13164731018385098,-0.19683402778367481,0.17148079184362539
1728332036144116200,2.5641162109375,0.1941625028848648,-0.08802246302366257,0.04726151376962662,-0.33220174908638,0.31815072894096375,-0.8879314064979553,-0.023770540952682495,0.06983450055122375,0.09708362817764282,0.9562518568909576,-0.13089882275972967,-0.19723033911326734,0.1718961005418156
1728332036154147000,2.57414697265625,0.1075161024928093,0.001780712977051735,0.0838347002863884,-0.33237114548683167,0.31682005524635315,-0.8883436918258667,-0.021037697792053223,0.03831303119659424,0.0421522855758667,0.9562735686227667,-0.1301003706959968,-0.19723599826117558,0.1723746280769631
1728332036164178200,2.58417822265625,-0.07712671905755997,-0.036917947232723236,0.16168662905693054,-0.3320428133010864,0.3182905316352844,-0.8879407048225403,-0.043598055839538574,0.002449214458465576,0.07698184251785278,0.9560507129955427,-0.1307511059194006,-0.1973164757448658,0.17302448982184795
1728332036174209000,2.594208984375,0.22609128057956696,-0.15527568757534027,0.04210403561592102,-0.3321830630302429,0.31745645403862,-0.8881868720054626,-0.0037544667720794678,0.020876705646514893,0.10167253017425537,0.955985586039955,-0.13016223348084463,-0.19739394942924363,0.1737388762999142
1728332036184240000,2.604240234375,-0.0387054942548275,-0.06114280968904495,-0.07105927169322968,-0.3334343433380127,0.31539443135261536,-0.8884525299072266,0.040343523025512695,-0.059016257524490356,-0.12122148275375366,0.9560588171399445,-0.12900087583027722,-0.1978193599950857,0.17371803365225783
1728332036194271000,2.61427099609375,-0.33521604537963867,-0.14116862416267395,0.0805789902806282,-0.3342387080192566,0.3165332078933716,-0.8877450227737427,-0.022435516119003296,-0.0752917230129242,-0.09562289714813232,0.9559172682371524,-0.12957063714991007,-0.19834045740698625,0.17347843521863307
1728332036204301000,2.624301025390625,-0.23642024397850037,-0.26598697900772095,0.11668799072504044,-0.33593741059303284,0.3190527558326721,-0.8862005472183228,-0.02771008014678955,-0.0019140839576721191,0.13473570346832275,0.9554494443572079,-0.13065577645508208,-0.19957154117593537,0.17382937357073447
1728332036214332200,2.634332275390625,-0.16462960839271545,-0.11246655881404877,-0.0016213413327932358,-0.33780330419540405,0.32114434242248535,-0.884734570980072,0.018696218729019165,-0.056633204221725464,-0.013687670230865479,0.9550332157253938,-0.13154254892632924,-0.20082147771331127,0.17400859228993285
1728332036224363000,2.644363037109375,-0.1463555097579956,-0.02618812397122383,0.005976125132292509,-0.33864086866378784,0.3231905996799469,-0.8836686611175537,-0.061734527349472046,-0.10267055034637451,-0.06460404396057129,0.954778562488915,-0.13255740779109054,-0.2014800510718672,0.17387490132781358
1728332036234394000,2.65439404296875,-0.1119631975889206,-0.060591213405132294,0.03676226735115051,-0.33908066153526306,0.3247218132019043,-0.8829383254051208,-0.07475298643112183,-0.05134531855583191,0.01901620626449585,0.9545808157431851,-0.1333041638183464,-0.20189312924086586,0.17391037929680941
1728332036244425000,2.664425048828125,-0.10710825771093369,-0.046096958220005035,-0.023099469020962715,-0.3399527668952942,0.3258035182952881,-0.8822041749954224,0.0012533962726593018,-0.0024087131023406982,0.012727856636047363,0.9543985334597692,-0.13380258500462125,-0.2024716726123973,0.17385528677947806
1728332036254456000,2.6744560546875,-0.15256847441196442,-0.036470431834459305,-0.10338658839464188,-0.34073472023010254,0.3271144926548004,-0.8814170360565186,0.013067454099655151,-0.019695639610290527,-0.0018379688262939453,0.9542642466809209,-0.13449958535172388,-0.20298114143733817,0.17345992986526843
1728332036264487000,2.68448681640625,-0.4575917720794678,-0.06390498578548431,-0.12206413596868515,-0.3409245014190674,0.3284221291542053,-0.8808571696281433,0.002606630325317383,-0.06861075758934021,-0.024858713150024414,0.9542699569185934,-0.13533891293479686,-0.20311273861216478,0.17261946108785406
1728332036274518000,2.69451806640625,-0.6182087063789368,-0.11963758617639542,-0.08048579841852188,-0.34197983145713806,0.3319326937198639,-0.8791305422782898,-0.0038453638553619385,-0.08261933922767639,0.02860569953918457,0.9540052272357552,-0.13729168300167313,-0.2039257915030003,0.1715788728248829
1728332036284549000,2.704549072265625,-0.7689217925071716,-0.0743902176618576,-0.12530040740966797,-0.3438761234283447,0.3378734290599823,-0.8761225938796997,-0.0013997852802276611,-0.09138292074203491,0.04079544544219971,0.9534221784658676,-0.14046414421874354,-0.20544714071631986,0.17043354515742107
1728332036294580000,2.714580078125,-0.942206859588623,-0.020755168050527573,-0.12858940660953522,-0.3446173071861267,0.34513118863105774,-0.8729968070983887,-0.015276521444320679,-0.13385796546936035,-0.06070375442504883,0.9528719329830622,-0.14450289155244642,-0.20644737661076307,0.16891881961825325
1728332036304611000,2.724611083984375,-0.7681604623794556,-0.02682691067457199,-0.1373637169599533,-0.34523868560791016,0.3520849943161011,-0.8699691891670227,-0.04007628560066223,-0.11404785513877869,-0.0056563615798950195,0.9523339927035049,-0.14839120046612828,-0.20735342897814402,0.16746530682891353
1728332036314642000,2.734641845703125,-0.5934476852416992,0.04203018546104431,-0.18888869881629944,-0.3458234965801239,0.35772037506103516,-0.8674342632293701,-0.00041368603706359863,-0.07424259185791016,-0.022244632244110107,0.9519361987848008,-0.15162117264365005,-0.20807181301604002,0.1659355433678333
1728332036324673300,2.74467333984375,-0.24280735850334167,0.1387641876935959,-0.16262513399124146,-0.34561246633529663,0.36067408323287964,-0.8662945628166199,-0.016661733388900757,0.01681312918663025,0.015540778636932373,0.9518720231444853,-0.15347744467694704,-0.20808025950347225,0.1645814912400721
1728332036334703600,2.75470361328125,-0.0680895447731018,0.24770675599575043,-0.136208176612854,-0.344452828168869,0.36140209436416626,-0.8664529919624329,-0.04174712300300598,0.09128040075302124,-0.003923535346984863,0.9520867434267385,-0.15416492288245756,-0.20738051589868176,0.1635769023908172
1728332036344734700,2.764734619140625,-0.0969691276550293,0.2721356451511383,-0.13527633249759674,-0.34258419275283813,0.36153560876846313,-0.8671378493309021,-0.05504462122917175,0.11147162318229675,-0.061573028564453125,0.9524243428195127,-0.15457456102158268,-0.20624686472387194,0.16265570740466626
1728332036354765600,2.774765625,-0.28573450446128845,0.22112426161766052,-0.10807694494724274,-0.34082573652267456,0.3627411723136902,-0.8673273324966431,-0.06034311652183533,0.0660460889339447,-0.025159239768981934,0.9526399660310031,-0.15554674147499684,-0.20528408130752723,0.16168100669106894
1728332036364796700,2.784796630859375,-0.5342165231704712,0.16160766780376434,-0.08193961530923843,-0.3394944965839386,0.3659617602825165,-0.8664960861206055,-0.0414564311504364,-0.05619308352470398,0.049052298069000244,0.9525921761376892,-0.15754887480891444,-0.2047689138157095,0.1606740909940311
1728332036374827500,2.79482763671875,-0.641533374786377,0.17282052338123322,-0.07876592874526978,-0.338318794965744,0.37097424268722534,-0.8648228049278259,-0.01048189401626587,-0.13797250390052795,0.031036853790283203,0.9523431323821879,-0.16050759456008973,-0.2045138048249776,0.15954334417215438
1728332036384859000,2.80485888671875,-0.6304330825805664,0.13581830263137817,-0.061669763177633286,-0.3372141122817993,0.3763524889945984,-0.8629284501075745,-0.008855253458023071,-0.108713299036026,0.05172544717788696,0.9520352570259922,-0.16365802747192199,-0.20433264473342094,0.1584085514926425
1728332036394889700,2.8148896484375,-0.35158491134643555,0.19280755519866943,-0.08375909179449081,-0.33605772256851196,0.3803764879703522,-0.8616141676902771,-0.012681931257247925,-0.017842888832092285,0.0622825026512146,0.9518452536825531,-0.16605990729918027,-0.2040025196187624,0.15747308753120873
1728332036404920800,2.8249208984375,-0.13241685926914215,0.29981204867362976,-0.11449117213487625,-0.3342934250831604,0.38211536407470703,-0.8615310788154602,-0.016674011945724487,0.06762221455574036,-0.026118457317352295,0.9519780106618558,-0.16730128932986355,-0.2030880235522448,0.15653571838769884
1728332036414951700,2.83495166015625,0.10757435113191605,0.3628316819667816,-0.08457641303539276,-0.33178070187568665,0.3818435072898865,-0.8626222610473633,-0.05683016777038574,0.10970315337181091,-0.03360271453857422,0.9523883954099078,-0.16749413172457236,-0.20158024724313536,0.15578058035073472
1728332036424981800,2.844981689453125,0.11518619954586029,0.4295350909233093,-0.057987410575151443,-0.328583687543869,0.380509614944458,-0.8644334673881531,-0.06118685007095337,0.06289556622505188,-0.004524052143096924,0.9529535887789259,-0.16712947861554503,-0.1996271407727064,0.15523027641314327
1728332036435012900,2.855012939453125,-0.0038461117073893547,0.3998335599899292,-0.0018519707955420017,-0.32498112320899963,0.379872590303421,-0.8660739660263062,-0.047928452491760254,-0.017277956008911133,0.0027164220809936523,0.9534557960092004,-0.16713636468953177,-0.19755622000537706,0.15478714685538833
1728332036445043700,2.865043701171875,-0.06796491146087646,0.32031476497650146,0.04053916409611702,-0.321766197681427,0.3804076910018921,-0.8670389652252197,-0.031627386808395386,-0.0543883740901947,0.06383156776428223,0.9537474066113354,-0.1676902112817637,-0.19585842412717838,0.15454909993334098
1728332036455074800,2.87507470703125,0.0832299292087555,0.28779762983322144,0.011844133958220482,-0.31902551651000977,0.38045287132263184,-0.8680313229560852,-0.005605250597000122,-0.04456111788749695,0.045872509479522705,0.9540255048189016,-0.1679265851211888,-0.19438366095133244,0.15443783413665957
1728332036465105700,2.885105712890625,0.3959159255027771,0.33148545026779175,0.03351188078522682,-0.3162023723125458,0.37858453392982483,-0.8698791861534119,-0.024373799562454224,0.02636849880218506,-0.004128932952880859,0.9545006844473954,-0.16712737885117812,-0.19268844245670658,0.1544932901023931
1728332036475136800,2.89513671875,0.8031697869300842,0.35863858461380005,0.06224685534834862,-0.31298068165779114,0.3734700381755829,-0.8732486963272095,-0.07552337646484375,0.112079918384552,-0.03532063961029053,0.9552957836672767,-0.16455517105018078,-0.1905183772456852,0.15503047561689245
1728332036485167600,2.905167724609375,0.9807062149047852,0.39935433864593506,0.10376446694135666,-0.30930259823799133,0.36573663353919983,-0.8778204321861267,-0.09188151359558105,0.13050973415374756,-0.09959656000137329,0.9563408539801751,-0.16057493574918688,-0.1878975386067632,0.15595703048182039
1728332036495198700,2.91519873046875,1.0761387348175049,0.4167701303958893,0.21059691905975342,-0.30507850646972656,0.3571934401988983,-0.8828023672103882,-0.09342002868652344,0.11228901147842407,-0.060343384742736816,0.9574119211129938,-0.15613557926710628,-0.1849878437646068,0.15736522195786118
1728332036505229800,2.925229736328125,1.0928072929382324,0.3989029824733734,0.2929101586341858,-0.300525426864624,0.34813830256462097,-0.8879663348197937,-0.041454583406448364,0.08807998895645142,0.0328790545463562,0.9584471746661909,-0.1513861359756103,-0.1819315156778058,0.1592552052164081
1728332036515260700,2.9352607421875,1.0105841159820557,0.33786046504974365,0.40761277079582214,-0.2959432005882263,0.33985137939453125,-0.8927029967308044,-0.013749182224273682,0.08547207713127136,0.08742046356201172,0.9592846712665396,-0.14697535734329828,-0.17901603118700396,0.16163071324100534
1728332036525291800,2.945291748046875,0.8777980804443359,0.21813830733299255,0.4882247745990753,-0.2918926477432251,0.33266571164131165,-0.8967341780662537,-0.015678733587265015,0.12088653445243835,0.19623374938964844,0.9598562683430574,-0.14304070026079138,-0.17655668623266205,0.16444770062264558
1728332036535322600,2.955322509765625,0.8492531180381775,0.14106419682502747,0.5174759030342102,-0.2885935604572296,0.32630419731140137,-0.900132954120636,-0.014110326766967773,0.11449170112609863,0.1448686718940735,0.960210073590775,-0.13945083912125206,-0.17460522213747945,0.16752078287725927
1728332036545353700,2.965353759765625,0.669134259223938,0.04720854014158249,0.4810960292816162,-0.28609713912010193,0.3208622336387634,-0.9028819799423218,-0.02280181646347046,0.03297385573387146,0.05640065670013428,0.9603904279438127,-0.1362963203425581,-0.1731540451936489,0.1705616382862322
1728332036555384600,2.975384521484375,0.7031436562538147,-0.006851818412542343,0.41561636328697205,-0.2844561040401459,0.31615471839904785,-0.9050585031509399,-0.01879703998565674,-0.06641411781311035,-0.06079226732254028,0.9604690001370326,-0.1335203532850793,-0.17217158857617915,0.17328754996716364
1728332036565415700,2.985415771484375,0.8648990392684937,-0.04081937298178673,0.3061947822570801,-0.28347858786582947,0.30998334288597107,-0.9074966907501221,0.00972062349319458,-0.12316995859146118,-0.11142420768737793,0.9606552714460379,-0.12999461164677412,-0.17132734629569854,0.17575514581517127
1728332036575446800,2.99544677734375,0.7486003041267395,-0.05352749302983284,0.1833820790052414,-0.2832162082195282,0.3032490909099579,-0.9098508954048157,0.04537743330001831,-0.124400794506073,-0.14176958799362183,0.9609214639742873,-0.1262341224829488,-0.17070298979609336,0.17763872376354115
1728332036585478000,3.005477783203125,0.7362131476402283,-0.03931234031915665,0.21361853182315826,-0.2830037772655487,0.2970382273197174,-0.9119633436203003,0.041136711835861206,-0.03763881325721741,0.029501795768737793,0.9611810175106399,-0.12280209846826516,-0.17011164093213113,0.17920040313629026
1728332036595508700,3.0155087890625,0.9628329277038574,0.01127003412693739,0.2615940272808075,-0.2824655771255493,0.29017069935798645,-0.9143381118774414,0.04764804244041443,0.05248069763183594,0.1591043472290039,0.9614409109885989,-0.1190097168562912,-0.16931517515588418,0.1811091770919979
1728332036605539800,3.025539794921875,1.3057063817977905,0.1251438707113266,0.19390049576759338,-0.28107985854148865,0.2801707983016968,-0.9178771376609802,0.04116591811180115,0.09728586673736572,0.039199769496917725,0.9619737677895791,-0.11368626489830794,-0.16774047383419086,0.1831531800635571
1728332036615570700,3.03557080078125,1.4050939083099365,0.12669910490512848,0.251394122838974,-0.27918490767478943,0.2682062089443207,-0.9220201969146729,-0.04761260747909546,0.1563543677330017,-0.12526679039001465,0.9626538276946657,-0.10742761728978967,-0.16567803167069145,0.1852236561310477
1728332036625601800,3.045601806640625,1.6051852703094482,-0.05146530643105507,0.36380377411842346,-0.27797186374664307,0.2551364302635193,-0.926086962223053,-0.09832513332366943,0.2104855477809906,-0.04504340887069702,0.9631803642758543,-0.10046074083085917,-0.16390290004103997,0.18795517350975652
1728332036635632600,3.055632568359375,1.5099636316299438,-0.12638944387435913,0.38778525590896606,-0.27784836292266846,0.24150216579437256,-0.9297725558280945,-0.01660051941871643,0.13334526121616364,0.05483359098434448,0.9635121460855701,-0.09306020263323357,-0.16264537744101493,0.1911302083977656
1728332036645662700,3.065662841796875,1.421425461769104,-0.20032998919487,0.3061572313308716,-0.2785513997077942,0.2289315164089203,-0.9327376484870911,0.030794411897659302,0.024944230914115906,0.08242636919021606,0.9636897288505446,-0.08617563017442376,-0.1618794191630188,0.19409006928709346
1728332036655693800,3.07569384765625,1.3131684064865112,-0.2378256469964981,0.22965742647647858,-0.27992236614227295,0.21673710644245148,-0.9352371096611023,0.05403125286102295,-0.04841740429401398,0.030680835247039795,0.9638362691867506,-0.07951262387986983,-0.16142854596268916,0.1965662564623434
1728332036665724700,3.085724609375,1.2013992071151733,-0.28373029828071594,0.2162231057882309,-0.2820340692996979,0.2056087702512741,-0.9371135830879211,0.07695591449737549,-0.08161585032939911,-0.10692328214645386,0.963877292540086,-0.07337215627003552,-0.16143030170301229,0.1987398274574888
1728332036675755800,3.095755859375,1.1614561080932617,-0.2465781718492508,0.26352375745773315,-0.28388917446136475,0.1952429562807083,-0.9387689828872681,0.09223875403404236,-0.03314882516860962,-0.059720396995544434,0.9638517764327337,-0.06764201972587701,-0.16136938526784486,0.20093399777036008
1728332036685786600,3.10578662109375,1.1927014589309692,-0.3105068504810333,0.30950111150741577,-0.28590837121009827,0.18490564823150635,-0.9402480125427246,0.08276811242103577,0.04412877559661865,-0.08770608901977539,0.9637240639594311,-0.06187471833970319,-0.16139242350949415,0.20337181390389894
1728332036695817700,3.115817626953125,0.8244370818138123,-0.48272934556007385,0.28559842705726624,-0.28896233439445496,0.17597472667694092,-0.9410279989242554,0.048331230878829956,0.08447754383087158,0.02084672451019287,0.963409154130744,-0.05670441198987665,-0.16208212125229315,0.20580809808359882
1728332036705848600,3.1258486328125,0.40929579734802246,-0.5506471991539001,0.2584959864616394,-0.2935439944267273,0.1713177114725113,-0.9404691457748413,0.033305346965789795,0.10166202485561371,0.2299741506576538,0.962852562870905,-0.05358361340714152,-0.16399462313364974,0.20772471827096364
1728332036715879700,3.135879638671875,0.7063423991203308,-0.49639302492141724,0.14692765474319458,-0.29820966720581055,0.1667957454919815,-0.9398139119148254,-0.01096394658088684,0.066099151968956,0.5675299763679504,0.9623292704651529,-0.05056199607986563,-0.16594135204428,0.20935458520465658
1728332036725910800,3.145910888671875,0.7681810259819031,-0.24242332577705383,-0.03727946802973747,-0.3014804422855377,0.1600174754858017,-0.9399489164352417,-0.09979522228240967,-0.0809922069311142,0.3090590238571167,0.9621527104869183,-0.04667766329059873,-0.16687341661442862,0.2103252677004736
1728332036735941600,3.155941650390625,0.5400318503379822,-0.007477287203073502,-0.31272995471954346,-0.3031059503555298,0.1525598019361496,-0.9406659007072449,-0.2187904417514801,-0.1359429806470871,0.024970710277557373,0.9623931279513065,-0.04284446554901306,-0.16682748730519556,0.21007738564401285
1728332036745972700,3.16597265625,0.9374274015426636,-0.12556104362010956,0.07610833644866943,-0.3036347031593323,0.145897775888443,-0.9415518045425415,-0.22795099020004272,-0.03617182374000549,-0.1042855978012085,0.962667906541437,-0.0395181412057488,-0.16632021131634248,0.20987250010868277
1728332036756003600,3.176003662109375,1.1371135711669922,-0.19994372129440308,0.35349440574645996,-0.3049587309360504,0.13606148958206177,-0.9425961375236511,-0.06323587894439697,-0.03459054231643677,-0.027557671070098877,0.962464250772802,-0.034124940575254,-0.16594403870878482,0.21203959501333725
1728332036766035000,3.186034912109375,0.35341954231262207,-0.2829802930355072,0.14599661529064178,-0.30682358145713806,0.1296738237142563,-0.9428912997245789,0.14631634950637817,-0.2185104936361313,-0.35093194246292114,0.9621025281167999,-0.03041505043853363,-0.16622055652045037,0.21401993022903223
1728332036776065800,3.196065673828125,-0.24634283781051636,-0.41388750076293945,-0.08045091480016708,-0.3100012242794037,0.12952569127082825,-0.941871702671051,0.011813968420028687,-0.20490412414073944,-0.14498132467269897,0.9618031201771035,-0.02996277510170341,-0.16782839994795537,0.21417446916000688
1728332036786097000,3.206096923828125,-0.5756842494010925,-0.5003728270530701,-0.050841882824897766,-0.3145633935928345,0.13316668570041656,-0.9398491978645325,-0.10706746578216553,-0.16893328726291656,0.06750422716140747,0.9614293120130408,-0.0313806932581614,-0.1705598136097245,0.2134912134768838
1728332036796127700,3.216127685546875,-0.7803235650062561,-0.32199013233184814,0.09255389124155045,-0.318504273891449,0.139648899435997,-0.9375783801078796,-0.11855322122573853,-0.1700901985168457,0.09752100706100464,0.9609285335800678,-0.03423018735639959,-0.1733179152382423,0.21308638062057061
1728332036806158800,3.226158935546875,-0.9731001853942871,-0.10210302472114563,0.0758311003446579,-0.32030385732650757,0.14815421402454376,-0.9356579184532166,-0.13810068368911743,-0.17513176798820496,0.13945430517196655,0.9604853727472068,-0.03829676167250537,-0.17522668252091747,0.21283077638129935
1728332036816189700,3.236189697265625,-1.011991262435913,-0.06671690940856934,-0.05031697452068329,-0.3208976686000824,0.15773174166679382,-0.933887243270874,-0.2021125853061676,-0.20720075070858002,0.1620977520942688,0.9602040277485264,-0.04313505713331505,-0.17662316475678821,0.21201869575515278
1728332036826220800,3.246220703125,-0.8936941623687744,-0.14728525280952454,-0.1545722633600235,-0.3220825493335724,0.1662072092294693,-0.9320074915885925,-0.2342376410961151,-0.2360009253025055,0.1165168285369873,0.9600042830906726,-0.04746150848935246,-0.1781674717057359,0.2107026066132782
1728332036836251600,3.256251708984375,-1.0430219173431396,-0.23867742717266083,-0.22277502715587616,-0.3241523504257202,0.17446626722812653,-0.9297778010368347,-0.17979967594146729,-0.2937137186527252,-0.08883786201477051,0.9598021529929679,-0.05167155109749612,-0.18011423426427442,0.20897107595995915
1728332036846282800,3.26628271484375,-1.2679522037506104,-0.36856645345687866,-0.19273324310779572,-0.32735690474510193,0.18461453914642334,-0.9266903400421143,-0.15063995122909546,-0.27378690242767334,-0.19905734062194824,0.9594360958651567,-0.05677082265355939,-0.18284395655170138,0.2069485456928296
1728332036856313600,3.276313720703125,-1.2077335119247437,-0.37892478704452515,-0.11063385009765625,-0.33123695850372314,0.1957370638847351,-0.9230217337608337,-0.14973533153533936,-0.1606418490409851,-0.22747570276260376,0.9588610261611304,-0.062257830186424584,-0.18604595834971763,0.2051747131353493
1728332036866343700,3.28634375,-1.0967518091201782,-0.1884879767894745,0.00462829926982522,-0.33399999141693115,0.20614424347877502,-0.9197546243667603,-0.12115445733070374,-0.06347456574440002,-0.21450746059417725,0.9582778905774164,-0.0674232945898073,-0.18861809600381527,0.2039140065593392
1728332036876374800,3.296374755859375,-1.0257644653320312,-0.13338056206703186,0.10833977907896042,-0.33523795008659363,0.2160768061876297,-0.9170203804969788,-0.09399181604385376,0.0121794193983078,-0.16111987829208374,0.9577073258184085,-0.0724062373232655,-0.19038686204038108,0.20324102059001328
1728332036886405600,3.306405517578125,-1.013914704322815,-0.1342218667268753,0.188272163271904,-0.3361349105834961,0.22585590183734894,-0.9143317341804504,-0.003174811601638794,0.046055734157562256,-0.19493645429611206,0.9570435705993935,-0.07725829609542327,-0.19200337812259083,0.20306098637455805
1728332036896436700,3.316436767578125,-1.3022937774658203,-0.10775994509458542,0.15795022249221802,-0.3367781937122345,0.2368820160627365,-0.9112998247146606,0.147065669298172,0.01601715385913849,-0.19140702486038208,0.956292855286414,-0.08277514403193506,-0.19364492476890405,0.20286474321550144
1728332036906467600,3.326467529296875,-1.4212539196014404,-0.21008525788784027,0.029994642361998558,-0.33790257573127747,0.25010183453559875,-0.907342791557312,0.2554440498352051,-0.006678372621536255,-0.01907932758331299,0.95543416486779,-0.08949022836982054,-0.1957552042500625,0.20203240712444875
1728332036916498700,3.336498779296875,-1.2008105516433716,-0.3525794446468353,-0.23093281686306,-0.34070736169815063,0.26171544194221497,-0.9030080437660217,0.29435113072395325,-0.011639147996902466,0.17198997735977173,0.9546372187041121,-0.0954044872338478,-0.19847910591212622,0.20042939215563682
1728332036926529500,3.346529541015625,-0.5424349904060364,-0.21020393073558807,-0.4945357143878937,-0.3444230556488037,0.2686399519443512,-0.899558424949646,0.24373027682304382,0.028448671102523804,0.1801828145980835,0.9542655057796455,-0.09907515928427453,-0.20100967847337772,0.19788086033586663
1728332036936560600,3.356560546875,0.14348867535591125,0.04223594069480896,-0.42486634850502014,-0.3464435636997223,0.268578439950943,-0.8988006114959717,0.0522235631942749,0.2257453203201294,0.12678217887878418,0.9545767590879849,-0.09936875270095961,-0.2018057294998495,0.1954063183399357
1728332036946591500,3.366591552734375,0.5888028144836426,0.2389948070049286,-0.11598147451877594,-0.3458157777786255,0.2641978859901428,-0.9003393650054932,-0.1478060483932495,0.3970264792442322,-0.010366201400756836,0.9551745425277134,-0.09740924396290247,-0.20085259138737588,0.19445162663964727
1728332036956622800,3.376622802734375,0.5491635799407959,0.3376908302307129,0.024016642943024635,-0.3432694375514984,0.2585796117782593,-0.9029411673545837,-0.19605249166488647,0.3620716631412506,-0.022946953773498535,0.9557934898897972,-0.09474556700020868,-0.19887862523111313,0.19475499853937595
1728332036966653700,3.38665380859375,0.08911265432834625,0.32821792364120483,0.08237795531749725,-0.33997073769569397,0.25576895475387573,-0.9049873948097229,-0.17606627941131592,0.12272530794143677,0.0195351243019104,0.9562405341447521,-0.09355383145084649,-0.19686033685127988,0.1951866611786868
1728332036976684800,3.396684814453125,-0.34204530715942383,0.17020882666110992,0.08798950165510178,-0.33739882707595825,0.2574295103549957,-0.9054789543151855,-0.11287280917167664,-0.11668244004249573,0.13234663009643555,0.9563345446202043,-0.09460921307715092,-0.1957284475740671,0.19535588392694503
1728332036986716000,3.4067158203125,-0.34122559428215027,0.04030461609363556,-0.06784137338399887,-0.33640360832214355,0.26080313324928284,-0.904883623123169,0.001335829496383667,-0.24295035004615784,0.058844804763793945,0.95623750496789,-0.09647194942437345,-0.1955795214704592,0.19506887790954464
1728332036996746800,3.416746826171875,-0.19658327102661133,0.025182120501995087,-0.299722284078598,-0.33674830198287964,0.26264703273773193,-0.9042218327522278,0.03819480538368225,-0.22652944922447205,-0.07104367017745972,0.9563112452461198,-0.09762086066094565,-0.1958551508008015,0.1938554373150235
1728332037006777900,3.42677783203125,0.10717102140188217,0.13607481122016907,-0.21548248827457428,-0.3366699516773224,0.26217445731163025,-0.9043881297111511,-0.0724945068359375,-0.04354652762413025,-0.0367281436920166,0.9566413045511182,-0.09767932473178771,-0.1956135762992423,0.19243629771795545
1728332037016808700,3.43680859375,0.42323198914527893,0.2613360583782196,0.03975699096918106,-0.3351428806781769,0.25938838720321655,-0.9057576656341553,-0.149399995803833,0.15410956740379333,0.017955541610717773,0.957050372170777,-0.09646532814626459,-0.19446234528924466,0.1921812111379396
1728332037026839800,3.44683984375,0.43158259987831116,0.3370172381401062,0.11914662271738052,-0.33202680945396423,0.2555662989616394,-0.9079890251159668,-0.08620136976242065,0.1639893651008606,0.028121471405029297,0.9574839895202057,-0.09467833120271024,-0.19246168277830267,0.19292239320466956
1728332037036870700,3.45687060546875,0.1640026718378067,0.27511993050575256,0.06432119011878967,-0.3289552927017212,0.25318479537963867,-0.9097724556922913,-0.0019468367099761963,0.047794848680496216,0.09682995080947876,0.9578294126223449,-0.0936493953683318,-0.19063988130073256,0.19351799495879243
1728332037046901800,3.46690185546875,0.07349434494972229,0.13095718622207642,-0.0466037280857563,-0.3270164728164673,0.25220751762390137,-0.9107423424720764,0.0385948121547699,-0.06765246391296387,0.23763138055801392,0.9580694658320192,-0.09332897266139524,-0.1895218514594477,0.19358254772235428
1728332037056932600,3.4769326171875,0.013230409473180771,0.05834433436393738,-0.15725460648536682,-0.32647544145584106,0.2514916658401489,-0.9111343026161194,0.08309772610664368,-0.10673153400421143,0.09141689538955688,0.9582766518849548,-0.09312186269790644,-0.18910620621060414,0.1930625614357378
1728332037066963700,3.486963623046875,0.10011843591928482,0.03957171365618706,-0.14980946481227875,-0.3264424800872803,0.2504757344722748,-0.9114259481430054,0.056621283292770386,-0.05682641267776489,0.014056563377380371,0.9585012475276328,-0.09275727992448339,-0.1888997649451937,0.1923236456269436
1728332037076993800,3.496993896484375,0.08856477588415146,0.11386390030384064,-0.0804130956530571,-0.326079398393631,0.2491009533405304,-0.9119325280189514,-0.005051612854003906,0.006438001990318298,0.007834017276763916,0.9587351278414222,-0.09219708573803649,-0.18850312125443203,0.19181588201171076
1728332037087024600,3.507024658203125,-0.09985467046499252,0.16733457148075104,0.03253476694226265,-0.3247838616371155,0.2490130364894867,-0.912418782711029,-0.05993601679801941,0.026118203997612,-0.00014835596084594727,0.9589010531238231,-0.09231427215119686,-0.18779961261277459,0.19162055710687734
1728332037097055700,3.5170556640625,-0.25189733505249023,0.13397252559661865,0.1257944107055664,-0.3231436014175415,0.250968873500824,-0.9124652743339539,-0.07242527604103088,0.021843045949935913,0.08994024991989136,0.958878601006719,-0.09342495861981383,-0.1871874555479844,0.1917929684336196
1728332037107086600,3.527086669921875,-0.264320433139801,0.10397360473871231,0.09207505732774734,-0.3217666447162628,0.2537335455417633,-0.9121872186660767,-0.01890110969543457,-0.023341059684753418,0.16893160343170166,0.9587558801158067,-0.09490451637795921,-0.18681413274720687,0.19204384295870103
1728332037117117700,3.53711767578125,-0.27921634912490845,0.07951183617115021,0.006483989302068949,-0.3207354247570038,0.2563909590244293,-0.9118072390556335,0.030116528272628784,-0.07966366410255432,0.17702025175094604,0.958671563930376,-0.0963607583484422,-0.18657701864485102,0.19196987750908415
1728332037127148500,3.5471484375,-0.29568642377853394,0.006209655664861202,0.013928323984146118,-0.32034850120544434,0.25896674394607544,-0.9112151861190796,0.029927939176559448,-0.06774359941482544,0.1626647710800171,0.958572234846922,-0.09775412451531007,-0.1866455153215706,0.1916948714580675
1728332037137180000,3.557179931640625,-0.22271554172039032,-0.04847723990678787,0.048385635018348694,-0.32041022181510925,0.2615674138069153,-0.9104503393173218,0.023611485958099365,-0.012955933809280396,0.09314382076263428,0.9583841870521019,-0.09907575970712018,-0.18697279665240588,0.19163783864181047
1728332037147210800,3.567210693359375,-0.15129780769348145,-0.01557441521435976,-0.03752607852220535,-0.32082149386405945,0.26325803995132446,-0.9098179936408997,0.019338339567184448,0.016313493251800537,-0.08166760206222534,0.9582409573379631,-0.0999142617531751,-0.18737167939326382,0.19152884736818257
1728332037157241900,3.577241943359375,-0.10014002025127411,0.04420715942978859,-0.03895672783255577,-0.3207586407661438,0.26417091488838196,-0.9095755219459534,-0.0454980731010437,0.005787581205368042,-0.16221702098846436,0.9582513612811746,-0.10045470451161277,-0.1874062069772039,0.19116012738396845
1728332037167272700,3.587272705078125,-0.16261965036392212,0.03079201653599739,0.10533786565065384,-0.3203124403953552,0.26538020372390747,-0.9093807339668274,-0.10293588042259216,0.02369755506515503,-0.12119787931442261,0.9581977483957372,-0.10110675616002071,-0.1873154063460164,0.19117401679243418
1728332037177303800,3.5973037109375,-0.2923680543899536,-0.01149679720401764,0.18166565895080566,-0.3197690546512604,0.26791098713874817,-0.9088297486305237,-0.06299766898155212,0.02752968668937683,0.009278357028961182,0.9579504329045746,-0.10233926347521742,-0.18738146945987882,0.19169210818488175
1728332037187334700,3.607334716796875,-0.42844945192337036,-0.05684217810630798,0.11965342611074448,-0.3197026252746582,0.27179715037345886,-0.9076985120773315,-0.009780436754226685,-0.021629303693771362,0.11027419567108154,0.9575702440318135,-0.10423283350401649,-0.18784639337504555,0.1921161062488655
1728332037197365800,3.61736572265625,-0.41514891386032104,-0.06001245230436325,0.023412106558680534,-0.3200007975101471,0.2758966088294983,-0.9063556790351868,0.010689854621887207,-0.0867638885974884,0.12762337923049927,0.9572264303480638,-0.10629132855348312,-0.18847897429718943,0.19208207167228664
1728332037207396900,3.62739697265625,-0.2384367138147354,-0.06573957949876785,-0.01734677515923977,-0.32074856758117676,0.27866584062576294,-0.905243456363678,0.014977693557739258,-0.09165412187576294,0.08454954624176025,0.9569996135598231,-0.10768965818012469,-0.18915921454352622,0.19176414306210052
1728332037217427700,3.637427734375,-0.07869851589202881,-0.04863329976797104,-0.013507828116416931,-0.32133153080940247,0.2800728380680084,-0.9046022891998291,0.005978107452392578,-0.017163902521133423,0.0311281681060791,0.9568708484598158,-0.10838774343117162,-0.18960735711898738,0.19157140014144286
1728332037227458800,3.647458740234375,0.026851346716284752,-0.015329403802752495,0.0006548627279698849,-0.3216708302497864,0.2801559269428253,-0.9044559597969055,-0.01647922396659851,0.07142186164855957,-0.06549948453903198,0.9568413446109544,-0.10840671061501449,-0.18978936797564083,0.1915278005507175
1728332037237489700,3.65748974609375,-0.007898245006799698,0.006188350263983011,0.06015707179903984,-0.32157963514328003,0.2801503539085388,-0.9044901132583618,-0.05454954504966736,0.08931070566177368,-0.09486901760101318,0.9568198765329731,-0.1083823831763258,-0.1897582731604905,0.1916794477007837
1728332037247520800,3.667520751953125,-0.0734676718711853,-0.017738288268446922,0.08771279454231262,-0.3214103877544403,0.2807295322418213,-0.9043706655502319,-0.06478959321975708,0.0394304096698761,-0.024996399879455566,0.9567209892322123,-0.10862566305249156,-0.18977650294464996,0.19201696631370374
1728332037257551600,3.677551513671875,-0.17807716131210327,-0.039846573024988174,0.048639435321092606,-0.3214664161205292,0.2821163237094879,-0.9039191007614136,-0.04443937540054321,-0.045437246561050415,0.0009039640426635742,0.9565536946840542,-0.10927642362917497,-0.18999765106644675,0.19226236042504063
1728332037267582700,3.687582763671875,-0.22187337279319763,-0.0606253519654274,-0.003448269795626402,-0.32207241654396057,0.2840180993080139,-0.9031074643135071,-0.02686557173728943,-0.09375625848770142,0.01495438814163208,0.9563592517186299,-0.11020361469029687,-0.19052933845403178,0.19217409964799714
1728332037277613600,3.697613525390625,-0.21832126379013062,-0.09906478226184845,-0.0016141505911946297,-0.32302454113960266,0.2856315076351166,-0.9022581577301025,-0.019214868545532227,-0.07997351884841919,0.03195786476135254,0.9561847750463619,-0.11098178279896583,-0.19119088088732308,0.191937305874615
1728332037287643600,3.7076435546875,-0.13798727095127106,-0.09059539437294006,0.010946115478873253,-0.32399865984916687,0.2867988646030426,-0.9015383124351501,-0.013602077960968018,-0.027124762535095215,0.016345441341400146,0.9560236751515312,-0.11151125829104529,-0.1918230659349968,0.19180188834576753
1728332037297674800,3.7176748046875,-0.05114072561264038,-0.054131075739860535,-0.016192561015486717,-0.3247123658657074,0.28746360540390015,-0.901069700717926,-0.01488727331161499,0.01801738142967224,-0.016120851039886475,0.9559163441854039,-0.11179771513372289,-0.19226654925250028,0.19172618889004603
1728332037307705600,3.72770556640625,-0.029444482177495956,-0.022122807800769806,0.030509164556860924,-0.32490354776382446,0.28816142678260803,-0.9007778167724609,-0.04046815633773804,0.028000682592391968,-0.008615434169769287,0.9558364362662536,-0.11213137519500926,-0.19245164329339154,0.19174405401761277
1728332037317736700,3.73773681640625,-0.03635791316628456,-0.04584960266947746,0.059295009821653366,-0.3251492977142334,0.28901585936546326,-0.9004153609275818,-0.04653957486152649,0.02424710988998413,0.05588716268539429,0.9556903266583937,-0.11249183322545783,-0.19271200614031436,0.1919993086510637
1728332037327767800,3.747767822265625,-0.11577790975570679,-0.04950771853327751,0.025880591943860054,-0.3260052800178528,0.29007622599601746,-0.8997645974159241,-0.018095701932907104,-0.008887261152267456,0.03659015893936157,0.955493734557939,-0.11292480159381764,-0.19330206666328886,0.19213025497295863
1728332037337799400,3.75779931640625,-0.19057564437389374,-0.08271782100200653,-0.013532062992453575,-0.3271162807941437,0.29068076610565186,-0.8991660475730896,-0.011476278305053711,-0.041474223136901855,0.012554168701171875,0.9553771714741754,-0.11316862499810734,-0.19393252707667757,0.1919310105839404
1728332037347830300,3.767830322265625,-0.22364971041679382,-0.134741872549057,0.015024745836853981,-0.32854798436164856,0.2911493182182312,-0.8984922766685486,-0.015217304229736328,-0.0383417010307312,0.02387368679046631,0.9552583125025682,-0.113331079125884,-0.19470475757422162,0.19164507944193268
1728332037357861400,3.777861328125,-0.2125275582075119,-0.16895908117294312,0.05346161872148514,-0.3302983045578003,0.2919436991214752,-0.897592306137085,-0.008095890283584595,-0.01084628701210022,0.02121901512145996,0.9550390609104074,-0.11358837259229951,-0.19570778080655393,0.19156377943932407
1728332037367892200,3.787892333984375,-0.18852421641349792,-0.17623509466648102,0.039734356105327606,-0.33197343349456787,0.2933277189731598,-0.8965224623680115,-0.0016905367374420166,0.01097831130027771,-0.011283934116363525,0.9547457397368573,-0.11412335334034668,-0.19676035453694876,0.19162946025337452
1728332037377923300,3.79792333984375,-0.1579844057559967,-0.21335859596729279,0.043100856244564056,-0.3335580825805664,0.2951502799987793,-0.89533531665802,-0.01922515034675598,0.006805896759033203,-0.0018051862716674805,0.9544065594304085,-0.11487501109733503,-0.19782837979075335,0.19177066515197635
1728332037387954200,3.8079541015625,-0.12066446989774704,-0.24590188264846802,0.06341145187616348,-0.3359639346599579,0.2967992424964905,-0.8938894867897034,-0.025516778230667114,0.003005415201187134,0.032790303230285645,0.953983373905653,-0.11544471812449106,-0.19931824872877565,0.19199087631302061
1728332037397985300,3.8179853515625,-0.1543894112110138,-0.26016125082969666,0.08665472269058228,-0.3392866849899292,0.29905036091804504,-0.8918819427490234,-0.014000087976455688,0.003638237714767456,0.04323387145996094,0.9533976711635282,-0.11621966121023924,-0.20137530139204057,0.19228589942033847
1728332037408016100,3.82801611328125,-0.14138838648796082,-0.2812870442867279,0.12181244045495987,-0.34178972244262695,0.3004702031612396,-0.8904479146003723,-0.015922099351882935,0.010839641094207764,0.08089286088943481,0.9529292317032949,-0.11661210817733714,-0.20292279877108094,0.19274329864441164
1728332037418047200,3.838047119140625,-0.182973712682724,-0.31572529673576355,0.11792103201150894,-0.3441990315914154,0.3009016811847687,-0.8893734812736511,-0.009820133447647095,-0.004743844270706177,0.0826108455657959,0.9525473470554693,-0.11649956720879509,-0.20430638896275763,0.19323666600477338
1728332037428078000,3.848078125,-0.19221274554729462,-0.3463503122329712,0.0814807340502739,-0.3471485674381256,0.301254540681839,-0.8881067633628845,-0.00026357173919677734,-0.0345156192779541,0.05061286687850952,0.9521504196497709,-0.11633217536099631,-0.2059452460953114,0.19355406208621387
1728332037438109200,3.858109130859375,-0.19746331870555878,-0.40265071392059326,0.10807852447032928,-0.35013407468795776,0.3027288019657135,-0.886431872844696,-0.005914539098739624,-0.0311528742313385,0.015689074993133545,0.9516235152757003,-0.11670938739705662,-0.20775704269915032,0.19398142056702256
1728332037448140000,3.86814013671875,-0.21403351426124573,-0.4210672676563263,0.15233734250068665,-0.35269513726234436,0.3049074709415436,-0.8846681118011475,-0.010692954063415527,0.0021299123764038086,-0.008337259292602539,0.9510117611346538,-0.11742027949556853,-0.2094717896468346,0.19470718098214748
1728332037458171100,3.878171142578125,-0.22298312187194824,-0.3998638391494751,0.2178119570016861,-0.3557502329349518,0.3075331449508667,-0.8825333714485168,-0.016548991203308105,0.03821578621864319,-0.009312331676483154,0.9502678748509008,-0.11827437654553298,-0.21152890234312918,0.19559608712537593
1728332037468202200,3.8882021484375,-0.21365886926651,-0.3930021822452545,0.24466247856616974,-0.3584756553173065,0.31032150983810425,-0.880452036857605,-0.03156954050064087,0.03631240129470825,0.01855933666229248,0.9494854984396458,-0.11918530880741066,-0.21346860699241677,0.1967316650020879
1728332037478233000,3.898233154296875,-0.2272825390100479,-0.3624511957168579,0.21881543099880219,-0.3611025810241699,0.31313833594322205,-0.8783788084983826,-0.023388415575027466,-0.001263946294784546,0.007361352443695068,0.9487112067705009,-0.12012550848717957,-0.2153612536171486,0.19782925038902352
1728332037488264200,3.90826416015625,-0.18426822125911713,-0.33584144711494446,0.1897701919078827,-0.36349546909332275,0.3157343864440918,-0.8764604330062866,-0.018767744302749634,-0.026122570037841797,0.009013533592224121,0.9480061950809358,-0.12100512808529958,-0.2170887840901521,0.1987831304791476
1728332037498295300,3.91829541015625,-0.12800174951553345,-0.3062020540237427,0.17070649564266205,-0.3657640218734741,0.3177753686904907,-0.8747774362564087,-0.022892624139785767,-0.027858346700668335,0.010275483131408691,0.9473741748296293,-0.12162365015084559,-0.2186754947425315,0.19967751557922148
1728332037508325000,3.9283251953125,-0.09133028984069824,-0.2418331652879715,0.14028333127498627,-0.3676270544528961,0.3192909061908722,-0.873443603515625,-0.02666008472442627,-0.017639875411987305,-0.0187530517578125,0.9468547354270592,-0.12203401212799883,-0.21996793192865588,0.20046996838415865
1728332037518356000,3.93835595703125,-0.1239590048789978,-0.18405494093894958,0.1475130170583725,-0.3690156042575836,0.3207950294017792,-0.8723061680793762,-0.04277333617210388,-0.009027451276779175,-0.028038620948791504,0.9464065342064432,-0.12250614347957962,-0.2209958303690571,0.20116623912709203
1728332037528387300,3.94838720703125,-0.11102589964866638,-0.16407589614391327,0.11980574578046799,-0.3700592815876007,0.32237595319747925,-0.8712806105613708,-0.05030512809753418,-0.018344581127166748,-0.01433950662612915,0.9459986721590431,-0.12306321773270743,-0.22184485218063152,0.20180923142648682
1728332037538418200,3.958418212890625,-0.11514133960008621,-0.10473944246768951,0.07489287108182907,-0.37092646956443787,0.32375961542129517,-0.8703983426094055,-0.04367011785507202,-0.04696515202522278,-0.05057638883590698,0.9456767848292535,-0.12358951790605599,-0.22254540535899026,0.20222421835289664
1728332037548449300,3.96844921875,-0.11955925822257996,-0.05545152723789215,0.08360380679368973,-0.37134966254234314,0.32511767745018005,-0.8697113990783691,-0.05882614850997925,-0.060743898153305054,-0.061730802059173584,0.9454354120739014,-0.12417856589256031,-0.22298872369458578,0.2025036336876911
1728332037558480400,3.97848046875,-0.0827995091676712,-0.006169569678604603,0.09342314302921295,-0.37130579352378845,0.32635295391082764,-0.8692673444747925,-0.06215062737464905,-0.03803813457489014,-0.059184134006500244,0.9452453281015059,-0.12473718237278508,-0.22317471489491628,0.2028421567338916
1728332037568511200,3.98851123046875,-0.023361755535006523,0.07151324301958084,0.07916831225156784,-0.37072205543518066,0.3271711468696594,-0.8692089915275574,-0.053029805421829224,-0.014625340700149536,-0.06137877702713013,0.9451568837219365,-0.1251351746311208,-0.2230172569815879,0.20318246667176115
1728332037578542300,3.998542236328125,0.039815351366996765,0.0969037115573883,0.05041389912366867,-0.36971423029899597,0.32736432552337646,-0.8695654273033142,-0.04717114567756653,0.0050941407680511475,-0.07719665765762329,0.9451947036177066,-0.12527330309695925,-0.22253965900718622,0.203444665210904
1728332037588573200,4.0085732421875,0.078567273914814,0.09594257920980453,0.03591085597872734,-0.36870530247688293,0.327007919549942,-0.8701277375221252,-0.03694963455200195,0.01645219326019287,-0.07745832204818726,0.9452950446509513,-0.12513843592782217,-0.22198311638895696,0.2036695872066024
1728332037598604300,4.018604248046875,0.03572080284357071,0.1102006658911705,0.026191914454102516,-0.36771655082702637,0.3265622854232788,-0.8707132935523987,-0.02715042233467102,0.010199189186096191,-0.03936666250228882,0.9454179843851442,-0.12497415741630971,-0.22141549072330485,0.2038174198718013
1728332037608635100,4.02863525390625,-0.059442728757858276,0.11591527611017227,0.07059346139431,-0.3665199875831604,0.3268771171569824,-0.871099591255188,-0.029048889875411987,-0.002841442823410034,0.03816807270050049,0.9454905395953906,-0.12522355784905503,-0.22083766580531078,0.20395462341637755
1728332037618666200,4.038666259765625,-0.05988235026597977,0.07252268493175507,0.05231592804193497,-0.36547794938087463,0.32771143317222595,-0.8712239265441895,-0.024719834327697754,-0.011991798877716064,0.10811662673950195,0.9454789169132904,-0.12570811349048136,-0.22042123557682014,0.20416065463796865
1728332037628697000,4.048697021484375,-0.04708772525191307,0.08087808638811111,-0.02361905202269554,-0.36542728543281555,0.32689303159713745,-0.871552586555481,-0.006002187728881836,-0.026554256677627563,0.03418076038360596,0.9456085477126401,-0.12533932819867732,-0.2202584070356671,0.20396302778654476
1728332037638728200,4.058728271484375,-0.03757384791970253,0.09108241647481918,-0.03472123667597771,-0.3654637932777405,0.32621338963508606,-0.8717918395996094,-0.01782175898551941,-0.03011658787727356,-0.031314849853515625,0.9457604659617442,-0.1250829170654505,-0.2201325473148838,0.20355110403811424
1728332037648759000,4.068759033203125,-0.02192165143787861,0.06618532538414001,0.009807348251342773,-0.36531367897987366,0.32582324743270874,-0.8720006346702576,-0.03591617941856384,-0.007814854383468628,0.007895469665527344,0.9458669068340272,-0.12495317306172812,-0.21996903995507736,0.20331297421930522
