time,seconds_elapsed,rotationRateX,rotationRateY,rotationRateZ,gravityX,gravityY,gravityZ,accelerationX,accelerationY,accelerationZ,quaternionW,quaternionX,quaternionY,quaternionZ
1728063376614261500,0.088261474609375,0.0041175587102770805,-0.02352180890738964,0.04056953266263008,0.09145933389663696,-0.2163514643907547,-0.9720222353935242,0.018648095428943634,0.021130502223968506,-0.009346723556518555,0.9929808995875342,0.10894039734442686,0.04605291650213325,9.850190811373337e-19
1728063376624291300,0.098291259765625,-0.0076265158131718636,-0.007087654899805784,0.05456870421767235,0.09106374531984329,-0.2164834886789322,-0.972029983997345,0.016709089279174805,0.014609679579734802,-0.001297593116760254,0.9929828737179119,0.10899586970917872,0.04587926110799793,0.0002334806323510315
1728063376634322400,0.108322509765625,-0.023551953956484795,0.002436874434351921,0.046729158610105515,0.09108531475067139,-0.21594181656837463,-0.9721484780311584,0.004083767533302307,-0.00038208067417144775,0.0029864907264709473,0.9930126370648211,0.10870849741701351,0.045915557379795434,0.000478986605445817
1728063376644353300,0.118353271484375,-0.045194465667009354,0.012630017474293709,0.044380251318216324,0.09193859994411469,-0.21491971611976624,-0.9722946286201477,-0.003925889730453491,-0.006180182099342346,0.002339184284210205,0.9930493438173983,0.10818207821525205,0.04636087790061489,0.0006409601939697333
1728063376654383400,0.12838330078125,-0.08149334788322449,0.015506763011217117,0.036563873291015625,0.09320472180843353,-0.21374695003032684,-0.972432553768158,-0.0016824901103973389,-0.007612347602844238,0.007726192474365234,0.9930839257411311,0.10758057658293588,0.04701201175760454,0.0007855585883302248
1728063376664414500,0.13841455078125,-0.12275756150484085,0.007427212316542864,0.031202131882309914,0.09384720027446747,-0.21249204874038696,-0.9726458191871643,0.005762189626693726,-0.012102112174034119,0.017201483249664307,0.9931374841899169,0.10693533804656048,0.047349106606070945,0.0009404905323062546
1728063376674445300,0.1484453125,-0.1694696694612503,-0.0007103425450623035,0.031688954681158066,0.0934365764260292,-0.2109418362379074,-0.9730226993560791,0.0073782578110694885,-0.019008144736289978,0.0252840518951416,0.9932321850613677,0.10613502591745211,0.04715942989930059,0.001149243598558715
1728063376684475400,0.158475341796875,-0.16603712737560272,-0.02092815563082695,0.03474226966500282,0.0931938961148262,-0.20900742709636688,-0.9734632968902588,0.0053168535232543945,-0.017310962080955505,0.029188454151153564,0.9933426609103188,0.1051399138705465,0.04705264743192262,0.0013549069788086868
1728063376697016600,0.1710166015625,-0.14374487102031708,-0.030227649956941605,0.020262133330106735,0.09378177672624588,-0.20644670724868774,-0.973953127861023,-0.004319489002227783,-0.00543685257434845,0.0015563368797302246,0.9934657455001281,0.10383088022763222,0.04735584707959576,0.001497868867949033
1728063376714578400,0.188578369140625,-0.037909917533397675,-0.021170930936932564,0.004650948103517294,0.09332114458084106,-0.20531383156776428,-0.9742368459701538,-0.01350240409374237,0.004019841551780701,-0.012121796607971191,0.9935371147312815,0.10324958073862896,0.04712864039283888,0.001583372282923462
1728063376724609300,0.198609375,-0.002160843461751938,-0.0038144169375300407,0.0031523876823484898,0.09301313012838364,-0.20563842356204987,-0.9741978049278259,-0.015101738274097443,0.008204907178878784,-0.019484996795654297,0.9935272596722162,0.10341277760300888,0.04697748774275485,0.0016134354130383105
1728063376734640400,0.208640380859375,0.0049537913873791695,0.009981289505958557,-0.006735662929713726,0.0930107906460762,-0.20619496703147888,-0.9740803837776184,-0.014702677726745605,0.013949453830718994,-0.025828003883361816,0.9934976073506744,0.1036955273171852,0.04697911398950653,0.0016224653963166273
1728063376744670500,0.21867041015625,0.013065248727798462,0.009081088937819004,-0.0038671724032610655,0.09335710108280182,-0.20693932473659515,-0.9738894104957581,-0.013202667236328125,0.015975534915924072,-0.024981439113616943,0.9934496220505538,0.10407666036868432,0.04715238900354792,0.0015851036971076542
1728063376754701300,0.228701416015625,0.009757600724697113,-0.00818152166903019,0.010451845824718475,0.09364119917154312,-0.2079203575849533,-0.9736531376838684,-0.01646224409341812,0.008075982332229614,-0.008829712867736816,0.9933901541798824,0.10457553263627171,0.047301005002563457,0.0016041183028953584
1728063376764732400,0.238732421875,0.003824610961601138,-0.025800568982958794,0.008838502690196037,0.09366471320390701,-0.20873381197452545,-0.9734768271446228,-0.012152247130870819,0.005120500922203064,-0.0025058388710021973,0.9933456669930623,0.10498681669669112,0.04732187303692412,0.001663273174655528
1728063376774762500,0.248762451171875,-0.008740715682506561,-0.02735399268567562,-0.0032325410284101963,0.09344715625047684,-0.2092307209968567,-0.973391056060791,0.0012183859944343567,0.004625573754310608,0.0036339759826660156,0.9933240704244444,0.10523872479504891,0.04721532095765191,0.001677480518550742
1728063376784793300,0.25879345703125,-0.023193825036287308,-0.019474923610687256,-0.007535144221037626,0.09309495985507965,-0.20915153622627258,-0.9734418392181396,0.004820704460144043,0.0011284202337265015,0.01670050621032715,0.9933369251597675,0.10519937095139849,0.04703386726409523,0.0016444675010959407
1728063376794824400,0.268824462890625,-0.0354134701192379,-0.01477550808340311,0.011119766160845757,0.09250552952289581,-0.20856882631778717,-0.9736230373382568,-0.01021486520767212,-0.004062443971633911,0.017583608627319336,0.9933824063113171,0.10490091067537831,0.04673642502992866,0.0016623220856381694
1728063376804854300,0.278854248046875,-0.03709219768643379,-0.007436688058078289,0.006001970265060663,0.09191805869340897,-0.2077968567609787,-0.9738436937332153,-0.016097120940685272,0.002810239791870117,0.008008122444152832,0.9934378568812408,0.10450411933976265,0.04644398613052454,0.0017241924068991308
1728063376814885400,0.288885498046875,-0.01330377534031868,-0.008459341712296009,-0.004836563020944595,0.0913834199309349,-0.2069607526063919,-0.9740720391273499,-0.008772328495979309,0.002920195460319519,-0.0038790106773376465,0.9934953646245138,0.10407732287001534,0.046172468414087425,0.0017335342087578941
1728063376824916500,0.29891650390625,-0.006960258819162846,0.005912566091865301,-0.020771320909261703,0.09099438041448593,-0.20627491176128387,-0.9742538928985596,-0.0072693899273872375,-0.002877354621887207,-0.0031477808952331543,0.9935412683172986,0.10373026014398158,0.04596820748974485,0.0016786100061766188
1728063376834946300,0.3089462890625,-0.009708374738693237,0.005151967518031597,-0.03363598883152008,0.09071479737758636,-0.20593537390232086,-0.9743518233299255,-0.014191955327987671,-0.0002566874027252197,-0.008405745029449463,0.9935660837085648,0.10356249678932408,0.04581378625399114,0.0015606544202505174
1728063376844977400,0.318977294921875,-0.01548030972480774,0.014729120768606663,-0.02826998382806778,0.0905880331993103,-0.20572423934936523,-0.9744082093238831,-0.01931421458721161,0.003423169255256653,-0.006197869777679443,0.9935803975371615,0.10346126583857304,0.04573473003330381,0.001421936460215606
1728063376855008300,0.32900830078125,-0.011527646332979202,0.03299307823181152,-0.0226720180362463,0.09099821001291275,-0.20555169880390167,-0.9744064211845398,-0.016092799603939056,-0.0004725158214569092,0.001521289348602295,0.9935800845957913,0.10337963845141258,0.04592878626330006,0.0013041605835256817
1728063376865038300,0.339038330078125,-0.006003851071000099,0.05736755207180977,-0.050575558096170425,0.09173047542572021,-0.20560666918754578,-0.9743261337280273,-0.008386954665184021,-0.00006657838821411133,-0.0035943984985351562,0.9935601328490195,0.10341608862098725,0.04628224006075473,0.0011502256473476
1728063376875069400,0.3490693359375,-0.01560321543365717,0.085464708507061,-0.04856593534350395,0.09228885918855667,-0.20577910542488098,-0.9742370247840881,-0.007907740771770477,0.0015859454870224,-0.0021881461143493652,0.9935379452604268,0.10351387709644203,0.04654436606232389,0.0009579708017588343
1728063376885100300,0.359100341796875,-0.04783099144697189,0.09647224098443985,-0.03813832625746727,0.09281886368989944,-0.20547619462013245,-0.9742505550384521,-0.01992761343717575,-0.0017229318618774414,0.000007450580596923828,0.9935414750058722,0.10336701146464156,0.046797126511662596,0.0008266965364991853
1728063376895130400,0.36913037109375,-0.08590274304151535,0.10029840469360352,-0.028908608481287956,0.09355821460485458,-0.20473076403141022,-0.9743368029594421,-0.021780863404273987,-0.00635935366153717,0.010210216045379639,0.993563238165365,0.10299379713871798,0.04715807664415588,0.000732299857568118
1728063376905161500,0.379161376953125,-0.12842871248722076,0.10229039192199707,-0.029158679768443108,0.0943356603384018,-0.203769713640213,-0.9744632840156555,-0.004613965749740601,-0.013423934578895569,0.021445095539093018,0.99359502685028,0.1025085649098611,0.04754318435476052,0.0006910804742649436
1728063376915192300,0.3891923828125,-0.16441494226455688,0.11202558130025864,-0.04241802915930748,0.09493595361709595,-0.2023361623287201,-0.9747036695480347,0.010151341557502747,-0.01784820854663849,0.020739436149597168,0.9936556070870195,0.10178383658010262,0.04783529338316577,0.0006271089988028499
1728063376925222400,0.399222412109375,-0.19354897737503052,0.1260562241077423,-0.01834171824157238,0.0954810157418251,-0.20054420828819275,-0.975020706653595,0.017205148935317993,-0.01787012815475464,0.021361708641052246,0.9937353409110529,0.10087565478173456,0.04810140285622332,0.0005903838025070787
1728063376935253500,0.40925341796875,-0.2682706415653229,0.1411377191543579,-0.005424855276942253,0.09623037278652191,-0.19846804440021515,-0.975371778011322,0.012549549341201782,-0.019839495420455933,0.012465953826904297,0.9938235934467851,0.0998164954860819,0.048484709088113975,0.0007018991743590406
1728063376945284400,0.419284423828125,-0.34093421697616577,0.14672507345676422,-0.01665513962507248,0.09727706015110016,-0.1956334114074707,-0.9758405089378357,0.012509942054748535,-0.02342180907726288,-0.005345344543457031,0.9939414601273722,0.09837246703972734,0.049016240359123955,0.0008207876763524786
1728063376955314400,0.429314453125,-0.3887438178062439,0.15188947319984436,-0.021061338484287262,0.09841420501470566,-0.19227729737758636,-0.9763934016227722,0.01662181317806244,-0.02897515892982483,0.003981351852416992,0.9940804492805961,0.09666542724885942,0.04958922300846591,0.000916314160764931
1728063376965345300,0.43934521484375,-0.4257086515426636,0.15944641828536987,-0.06184418871998787,0.09929551184177399,-0.18866541981697083,-0.977008581161499,0.018136143684387207,-0.035623565316200256,0.013873815536499023,0.9942351087939884,0.09483227036392256,0.050025503709313836,0.0009422465883402046
1728063376975376400,0.44937646484375,-0.4563632309436798,0.15712493658065796,-0.10645320266485214,0.1002574935555458,-0.1849411129951477,-0.9776222109794617,0.02715340256690979,-0.030696123838424683,0.008460283279418945,0.9943895153767671,0.0929536619657908,0.05048270394949152,0.0007608522649771377
1728063376985406500,0.459406494140625,-0.48792707920074463,0.12539933621883392,-0.1134868785738945,0.10169490426778793,-0.1811055690050125,-0.9781916737556458,0.04063909500837326,-0.02147015929222107,0.014904320240020752,0.9945328400530983,0.09102865799485796,0.051165958597307916,0.00042597184584387864
1728063376995437300,0.469437255859375,-0.5214810371398926,-0.017283780500292778,-0.10661192983388901,0.10275252908468246,-0.17675520479679108,-0.9788766503334045,0.05235306918621063,-0.01750446856021881,0.012720704078674316,0.9947051472728516,0.08884618860912916,0.051652924154028924,0.000035635344769945984
1728063377005468400,0.479468505859375,-0.5638010501861572,-0.198301762342453,-0.09988851100206375,0.10157746076583862,-0.17206701636314392,-0.9798341393470764,0.08110077679157257,-0.01000089943408966,0.027945101261138916,0.9949456818297435,0.08648917230160615,0.051015173748588945,-0.00036308004529108376
1728063377015498500,0.48949853515625,-0.7665725350379944,-0.1576390266418457,-0.11646482348442078,0.10011641681194305,-0.16536495089530945,-0.9811376929283142,0.11922869086265564,-0.010736778378486633,0.05747741460800171,0.9952729192090585,0.083116967487731,0.05022680559636618,-0.000828104878969321
1728063377025529300,0.499529296875,-0.8375178575515747,-0.046997200697660446,-0.04505162686109543,0.09917231649160385,-0.1572963297367096,-0.9825592637062073,0.09946660697460175,-0.0193394273519516,0.10179150104522705,0.9956296650715877,0.07904795969973452,0.049717062695643494,-0.0010926919554682002
1728063377035560400,0.509560546875,-0.8889375329017639,0.014644805341959,0.058290742337703705,0.09908244013786316,-0.14880414307117462,-0.9838902354240417,0.035942599177360535,0.00173988938331604,0.11551254987716675,0.9959640278209748,0.07474569449819755,0.04967859741342947,-0.0008445066120027734
1728063377045590500,0.519590576171875,-0.9341327548027039,-0.007128614466637373,0.11772983521223068,0.09903654456138611,-0.13987399637699127,-0.9852040410041809,0.039391204714775085,-0.007586970925331116,0.07669574022293091,0.9962941388836326,0.0702050547932438,0.04969128229339831,-0.00015865342958158263
1728063377055621400,0.529621337890625,-0.97245192527771,-0.09016731381416321,0.16142538189888,0.09840704500675201,-0.13054822385311127,-0.9865460991859436,0.06435847282409668,-0.0068419575691223145,0.0897565484046936,0.9966305249501476,0.06545714571464337,0.04941974247428543,0.0007592782941153815
1728063377065652500,0.539652587890625,-1.0069990158081055,-0.17165981233119965,0.1986451894044876,0.09686815738677979,-0.1209208145737648,-0.9879244565963745,0.09951247274875641,0.012400269508361816,0.10216701030731201,0.9969748310157578,0.0605529946057388,0.0486940487975114,0.0018605337059681203
1728063377075682300,0.549682373046875,-1.0476969480514526,-0.2457212507724762,0.25826749205589294,0.09452737122774124,-0.11095661669969559,-0.9893195629119873,0.12924277782440186,0.032678984105587006,0.1075599193572998,0.9973212450538148,0.05547617484294331,0.04756690817374454,0.0031689997752270883
1728063377085713400,0.55971337890625,-1.1157000064849854,-0.2858748137950897,0.2855609059333801,0.09165989607572556,-0.100456602871418,-0.9907103180885315,0.13265958428382874,0.05051454156637192,0.098330557346344,0.9976636934016383,0.050127014850063836,0.046174918891514406,0.0047298266775014424
1728063377095744300,0.569744140625,-1.0792427062988281,-0.2541743814945221,0.29574349522590637,0.08878480643033981,-0.0897611752152443,-0.9919980764389038,0.11340941488742828,0.06261575222015381,0.09262984991073608,0.9979773629986415,0.04468707998258757,0.04476634132948928,0.006341677521500334
1728063377105774300,0.5797744140625,-0.9969187378883362,-0.2685326337814331,0.3899219334125519,0.08594151586294174,-0.07963919639587402,-0.9931120872497559,0.07407741248607635,0.01926013082265854,0.07064205408096313,0.9982430024359458,0.039534092893107976,0.04337052457782412,0.008184474940808322
1728063377115805400,0.589805419921875,-0.8654283881187439,-0.15531019866466522,0.8410741686820984,0.08305984735488892,-0.07092516869306564,-0.9940174221992493,0.06748336553573608,-0.007505036890506744,0.03901565074920654,0.9984404845884272,0.03504710929813833,0.04198782460262909,0.0111968943426598
1728063377125836300,0.599836181640625,-1.0055443048477173,-0.060161467641592026,1.3117882013320923,0.08189518004655838,-0.0624258890748024,-0.9946839809417725,0.09034604579210281,0.003618471324443817,0.015115499496459961,0.9985259156287103,0.030553176733836174,0.04152735586235421,0.01697208088167277
1728063377135866400,0.609866455078125,-0.9466589093208313,-0.22119349241256714,1.3024855852127075,0.07985306531190872,-0.053582947701215744,-0.9953654408454895,0.24721908569335938,0.03708815202116966,-0.007808387279510498,0.998558667180285,0.025865096571915984,0.04059898229971264,0.023735985880613625
1728063377145897500,0.6198974609375,-0.6616672873497009,-0.5530240535736084,1.2046221494674683,0.07549476623535156,-0.046322017908096313,-0.9960696697235107,0.29485130310058594,-0.01942814514040947,0.027411282062530518,0.9985639828842772,0.022035491153759384,0.03846551433713695,0.0300830742948979
1728063377155928300,0.62992822265625,-0.4091663658618927,-0.34736645221710205,1.0661382675170898,0.06981115788221359,-0.04257886856794357,-0.9966511130332947,0.198865607380867,-0.08499991148710251,0.004082143306732178,0.9985122420286845,0.020033360621202596,0.03568063762891772,0.036038558679705235
1728063377165958400,0.63995849609375,-0.4977765381336212,-0.03276324272155762,0.6483428478240967,0.06771843135356903,-0.03840453550219536,-0.9969650506973267,0.09761056303977966,-0.07518193125724792,-0.01078641414642334,0.9984260426501833,0.017833004644927538,0.03463322605465415,0.040346584049702185
1728063377175989500,0.649989501953125,-0.3587328791618347,0.3530571460723877,0.888843834400177,0.06886519491672516,-0.03462520241737366,-0.9970248937606812,-0.04733504354953766,-0.052243124693632126,0.006821095943450928,0.9982916941097324,0.0157954054993031,0.03518590844248116,0.04388629587619221
1728063377186020400,0.660020263671875,-0.46618929505348206,0.0966748520731926,1.4612853527069092,0.07122291624546051,-0.031398870050907135,-0.9969661235809326,-0.014826424419879913,-0.10318369418382645,-0.007703065872192383,0.9979845430956923,0.01390477183919649,0.036381404765492224,0.050099443030294434
1728063377196050400,0.670050537109375,-0.655640184879303,0.19388341903686523,1.9296061992645264,0.07173919677734375,-0.027199584990739822,-0.9970524907112122,0.32061004638671875,-0.09052202105522156,-0.05168408155441284,0.9975556937360022,0.01148920510007476,0.03662993867804006,0.05838585137493613
1728063377206081300,0.680081298828125,-0.7639567852020264,-0.3242991268634796,1.815565586090088,0.06965604424476624,-0.021313227713108063,-0.9973433613777161,0.39122042059898376,-0.09657622128725052,0.022321999073028564,0.9970207150915945,0.008268194837026243,0.035495856542289435,0.06798124876121321
1728063377216112400,0.6901123046875,-0.9313879013061523,-0.3415233790874481,1.761589527130127,0.06661428511142731,-0.014005686156451702,-0.9976804852485657,0.4518488645553589,-0.1417713463306427,0.02410876750946045,0.9964281735445263,0.0044092136694278364,0.033768470694568856,0.07727262210142817
1728063377226142500,0.700142578125,-1.0081905126571655,-0.6997866034507751,1.3281768560409546,0.061098650097846985,-0.005280214827507734,-0.9981177449226379,0.3330206274986267,-0.23602232336997986,0.016779303550720215,0.9958962984202643,0.000028228762293185065,0.03067762063763343,0.08514331874954838
1728063377236173300,0.71017333984375,-1.0613822937011719,-0.7191432118415833,1.2698909044265747,0.053798940032720566,0.004372765775769949,-0.9985421895980835,0.30907031893730164,-0.28711816668510437,0.030280470848083496,0.9954252945210852,-0.004645065569783197,0.026595423255378264,0.09164857982818704
1728063377246204400,0.720204345703125,-1.0588769912719727,-0.570197343826294,1.477095127105713,0.04749128222465515,0.01443387009203434,-0.9987673759460449,0.16976335644721985,-0.26354891061782837,-0.04525423049926758,0.994813949196399,-0.009527539110782223,0.022924777572960423,0.0986353686283613
1728063377256235300,0.7302353515625,-0.848580539226532,-0.42635148763656616,1.765554428100586,0.042827703058719635,0.023343389853835106,-0.9988097548484802,0.16122809052467346,-0.12644708156585693,-0.11282354593276978,0.9939753808954307,-0.013897802667886547,0.020049607974454816,0.10685389283822258
1728063377266265300,0.740265380859375,-0.659229576587677,-0.323893666267395,1.9320731163024902,0.039673831313848495,0.030071930959820747,-0.9987600445747375,0.2037343829870224,-0.029949910938739777,-0.14529818296432495,0.9929108113512575,-0.017245598633741255,0.01795987753084375,0.11622437336038292
1728063377276296400,0.75029638671875,-0.5661401152610779,-0.30930328369140625,1.9284030199050903,0.03720751777291298,0.03542555123567581,-0.9986794590950012,0.22205457091331482,0.03287273645401001,-0.17133396863937378,0.9917039943515226,-0.019922089199283857,0.016229253505424077,0.125947833317626
1728063377286327300,0.760327392578125,-0.5588793754577637,-0.3757072389125824,1.9020241498947144,0.03455645963549614,0.040313515812158585,-0.9985893368721008,0.20911115407943726,0.052780307829380035,-0.13097304105758667,0.9904164847853709,-0.022321142139024166,0.014390836537477527,0.1355355088912136
1728063377296357400,0.770357421875,-0.6980857253074646,-0.47950872778892517,1.891314148902893,0.031160881742835045,0.04593650996685028,-0.998458206653595,0.2253546267747879,0.018440265208482742,-0.08383238315582275,0.9890367321857944,-0.02499544402298893,0.012087718490839044,0.14503616937026254
1728063377306388500,0.780388427734375,-0.8969813585281372,-0.6259794235229492,1.8601351976394653,0.02656807005405426,0.05334821715950966,-0.9982224702835083,0.25965631008148193,-0.02734728902578354,-0.0425642728805542,0.9875505392804691,-0.028419022133096897,0.009006817305683949,0.15445103405425256
1728063377316419300,0.79041943359375,-1.1461275815963745,-0.745612621307373,1.80942702293396,0.020787391811609268,0.06316761672496796,-0.9977864027023315,0.27665218710899353,-0.05533991754055023,-0.006745398044586182,0.9859549212814633,-0.03287768111934548,0.005084190292541109,0.16366463566997028
1728063377326449400,0.800449462890625,-1.3293039798736572,-0.8381439447402954,1.7783197164535522,0.01412300206720829,0.0752933919429779,-0.9970614314079285,0.26760002970695496,-0.04799547791481018,-0.003732025623321533,0.9842318538016249,-0.03832877635822091,0.0004499959155472008,0.17267967333487452
1728063377336480300,0.810480224609375,-1.399019718170166,-0.9617117047309875,1.7331405878067017,0.006599598564207554,0.08882009238004684,-0.996025800704956,0.24721509218215942,-0.024260208010673523,-0.00235670804977417,0.9823782728064038,-0.04431446974805907,-0.004828793231741672,0.18150958054957267
1728063377346511400,0.820511474609375,-1.3705449104309082,-1.0101821422576904,1.7247542142868042,-0.0016309026395902038,0.10266634076833725,-0.9947144985198975,0.22608768939971924,0.0005287975072860718,-0.007253885269165039,0.9804032392059387,-0.05030507504186957,-0.010589759379585843,0.19017530703759367
1728063377356541400,0.83054150390625,-1.2059053182601929,-1.0118119716644287,1.792217493057251,-0.0097535764798522,0.11574883759021759,-0.9932306408882141,0.20154128968715668,0.05797242373228073,-0.04218500852584839,0.9782755396831941,-0.05583573950106187,-0.016341895577380076,0.19897808163625785
1728063377366572300,0.840572265625,-0.8665838837623596,-0.9812054634094238,1.839085340499878,-0.017481081187725067,0.12634551525115967,-0.9918322563171387,0.19185851514339447,0.13110072910785675,-0.05000734329223633,0.9760192568956989,-0.060084372272447825,-0.021765590686507293,0.2080923012952991
1728063377376603400,0.850603271484375,-0.5822855830192566,-0.8808580636978149,1.8215526342391968,-0.024333832785487175,0.13387060165405273,-0.9907000064849854,0.18673312664031982,0.16660542786121368,-0.06102728843688965,0.9737291843958612,-0.06282562917249997,-0.026512852675476272,0.21725881738193603
1728063377386633500,0.860633544921875,-0.36132800579071045,-0.7603031992912292,1.800433874130249,-0.029978780075907707,0.1390131264925003,-0.9898366928100586,0.15557387471199036,0.17811021208763123,-0.1005868911743164,0.9714503291853632,-0.06445792932282038,-0.030444098274389216,0.2262799917517251
1728063377396664300,0.870664306640625,-0.28671982884407043,-0.6197125315666199,1.8048213720321655,-0.03422132879495621,0.14272938668727875,-0.9891699552536011,0.12029615044593811,0.16243107616901398,-0.08794796466827393,0.9691533713302215,-0.0654932911928164,-0.033550659963170686,0.2352160234675896
1728063377406695400,0.8806953125,-0.2818518579006195,-0.5955803990364075,1.789172649383545,-0.03752442076802254,0.1461673378944397,-0.9885479211807251,0.11349792778491974,0.10734212398529053,-0.09169799089431763,0.9667891436668904,-0.06645686828264613,-0.03618721967550145,0.24411624946521224
1728063377416725500,0.8907255859375,-0.3787882626056671,-0.6769578456878662,1.7018319368362427,-0.04114261642098427,0.15005069971084595,-0.9878218770027161,0.11324039101600647,0.008091345429420471,-0.019426047801971436,0.964380558472587,-0.06756505725736434,-0.039038716858655766,0.2527470803112743
1728063377426756400,0.90075634765625,-0.5911253094673157,-0.7771573662757874,1.6310280561447144,-0.045775510370731354,0.15555372834205627,-0.9867662787437439,0.10601720213890076,-0.07747457921504974,0.0635790228843689,0.9619279972361794,-0.06930249164970963,-0.04259151397312456,0.2609172391701093
1728063377436787500,0.910787353515625,-0.7004539370536804,-0.8800797462463379,1.6864268779754639,-0.051316581666469574,0.16287830471992493,-0.9853107333183289,0.10626347362995148,-0.0540526807308197,0.11317938566207886,0.9593163768588038,-0.07175051905509632,-0.04686673691378742,0.26901181006248387
1728063377446817300,0.9208173828125,-0.5892228484153748,-0.9090622663497925,1.827355980873108,-0.05721962824463844,0.17033329606056213,-0.9837237596511841,0.12834084033966064,0.055985018610954285,0.13728821277618408,0.9564481965497529,-0.07411824358235174,-0.0514256268942298,0.27761226093955343
1728063377456848400,0.930848388671875,-0.31023943424224854,-0.8856951594352722,1.9242182970046997,-0.0627785250544548,0.17593860626220703,-0.9823973178863525,0.1521797627210617,0.1673383265733719,0.08106064796447754,0.9533645036009254,-0.07552689992094243,-0.05565101760737862,0.28687051331243346
1728063377466879500,0.94087939453125,-0.03759952634572983,-0.6308457851409912,2.007793426513672,-0.06710070371627808,0.17908398807048798,-0.9815428853034973,0.12139146775007248,0.19606854021549225,-0.025964438915252686,0.9502299020884433,-0.0758421023147965,-0.05896216091474087,0.2963691081030667
1728063377476909300,0.950909423828125,0.06558597832918167,-0.5583260655403137,1.9507168531417847,-0.06913421303033829,0.18027815222740173,-0.9811831116676331,-0.0009188950061798096,0.133030503988266,-0.06613439321517944,0.94704123561605,-0.07549430734098136,-0.06090210430073394,0.3061118084279992
1728063377486940400,0.9609404296875,0.09480911493301392,-0.4522857964038849,1.5814557075500488,-0.07085800170898438,0.18070775270462036,-0.9809810519218445,-0.09038163721561432,0.04983724653720856,-0.05982095003128052,0.9441470128108114,-0.07486749555113874,-0.062484601146662905,0.31476476281085053
1728063377496971300,0.97097119140625,0.07130672037601471,-0.34986647963523865,1.212278962135315,-0.07223600149154663,0.18088780343532562,-0.9808473587036133,-0.25797945261001587,-0.044291168451309204,0.03924274444580078,0.9418366809455551,-0.07428252244409941,-0.06370575027336445,0.32150781252689264
1728063377507001300,0.98100146484375,0.2391662895679474,-0.19447852671146393,1.0512416362762451,-0.07286713272333145,0.1803649514913559,-0.9808969497680664,-0.42751434445381165,-0.07759708166122437,0.05363565683364868,0.9399731446245706,-0.07355958697032947,-0.06434672517862805,0.32695433214773867
1728063377517032400,0.991032470703125,0.5561516880989075,0.01207144558429718,0.9977064728736877,-0.0719052404165268,0.17719534039497375,-0.9815454483032227,-0.4772891104221344,-0.07134516537189484,0.050927162170410156,0.938393566225977,-0.07186817777403337,-0.06373574108301298,0.3319492461893442
1728063377527063300,1.001063232421875,0.829405665397644,0.23160523176193237,0.8971209526062012,-0.06897243112325668,0.17099329829216003,-0.9828550815582275,-0.4776431918144226,-0.03999665379524231,-0.008432149887084961,0.9370812704692238,-0.0691012715708376,-0.06162367633242464,0.3366099596617657
1728063377537093400,1.01109326171875,1.076772928237915,0.4568580687046051,0.7706841826438904,-0.06414128839969635,0.16206330060958862,-0.9846935272216797,-0.46930599212646484,0.0269930362701416,-0.1314563751220703,0.9360926635699834,-0.0654273634556868,-0.05807312005475776,0.3407011414256262
1728063377547124500,1.02112451171875,1.1105597019195557,0.5402908325195312,0.6330916881561279,-0.05793149024248123,0.1514747589826584,-0.9867620468139648,-0.43985599279403687,0.05552592873573303,-0.18737125396728516,0.935387397573337,-0.061281173523096415,-0.05351255566112753,0.3441387143677543
1728063377557155300,1.0311552734375,1.0001336336135864,0.43275028467178345,0.5638039708137512,-0.05215799808502197,0.14139561355113983,-0.988578200340271,-0.3490413427352905,0.030280962586402893,-0.1988455057144165,0.9348079906126726,-0.05736654208257605,-0.04919337633770364,0.3470204228619753
1728063377567185400,1.041185302734375,0.9006159901618958,0.36864662170410156,0.7165290713310242,-0.04720878601074219,0.13222461938858032,-0.9900949597358704,-0.2155933529138565,-0.02936519682407379,-0.12564295530319214,0.9340542649626346,-0.053754138168728385,-0.04542054437176935,0.35012858033375727
1728063377577216500,1.051216552734375,0.866830050945282,0.2152930051088333,0.7799426913261414,-0.04327831044793129,0.12395980209112167,-0.9913430213928223,-0.0650133341550827,-0.07491810619831085,-0.047612667083740234,0.9330168379029182,-0.05039118300923223,-0.04229923616869858,0.35376711643693426
1728063377587245800,1.061245849609375,1.0072484016418457,0.1421511471271515,0.8018785715103149,-0.040632884949445724,0.11493663489818573,-0.9925414323806763,0.03478875383734703,-0.036216601729393005,-0.042309582233428955,0.9318652977397592,-0.04646025666555809,-0.03963227209155342,0.357628186898364
1728063377597276000,1.07127587890625,1.0723298788070679,0.19255679845809937,0.7968888878822327,-0.038071535527706146,0.10479984432458878,-0.993764340877533,0.021759871393442154,0.04148612171411514,-0.08074432611465454,0.9306824795950563,-0.042016472987150326,-0.03677566148886379,0.3615414305985874
1728063377607307000,1.08130712890625,0.9742479920387268,0.19747114181518555,0.7684404850006104,-0.03522259742021561,0.09472887217998505,-0.9948797821998596,0.006139326840639114,0.12434151768684387,-0.12062925100326538,0.9294988184500319,-0.03768759141371805,-0.03376013981690678,0.3653380450271896
1728063377617337900,1.091337890625,0.8020410537719727,0.06955844163894653,0.7510740160942078,-0.03309906646609306,0.08609804511070251,-0.9957367181777954,0.03009306639432907,0.1719280183315277,-0.11736142635345459,0.9282858102898475,-0.03392749691512917,-0.03131412014281739,0.3689904061834791
1728063377627368000,1.101367919921875,0.5148685574531555,-0.06587432324886322,0.7911692261695862,-0.03242283686995506,0.07970523834228516,-0.9962910413742065,0.10282687097787857,0.14408011734485626,-0.04039108753204346,0.9269655619658642,-0.030957964510883687,-0.029934677738292986,0.3726665068754358
1728063377637399000,1.11139892578125,0.23788011074066162,-0.12734326720237732,0.8372696042060852,-0.03276626765727997,0.07626554369926453,-0.9965490102767944,0.16809645295143127,0.11176846921443939,0.033215880393981934,0.9254761676475164,-0.029172705827380557,-0.029571028587598455,0.3765214409472163
1728063377647430000,1.121429931640625,0.09580187499523163,-0.1720171570777893,0.8728286623954773,-0.0335882306098938,0.0748855322599411,-0.9966263175010681,0.1854284256696701,0.13713529706001282,0.06257480382919312,0.9238540607407766,-0.028248554427593303,-0.029813883113687087,0.3805349557085876
1728063377657460000,1.1314599609375,-0.0676158219575882,-0.18791143596172333,0.9012789726257324,-0.03467760607600212,0.0751044973731041,-0.9965724945068359,0.16605576872825623,0.15940777957439423,0.09258085489273071,0.9221208569836179,-0.028005804398928632,-0.03048634685842762,0.3846807470867712
1728063377667491000,1.141490966796875,-0.22801454365253448,-0.21290628612041473,0.9332459568977356,-0.03592698648571968,0.07684653997421265,-0.9963954091072083,0.1349870264530182,0.17968416213989258,0.09374654293060303,0.920291036702517,-0.02842538808997883,-0.031532214461306066,0.38892418747224383
1728063377677522000,1.15152197265625,-0.47684353590011597,-0.2522622048854828,0.9073081016540527,-0.03748291730880737,0.08075615763664246,-0.9960288405418396,0.10132566839456558,0.16845034062862396,0.1160086989402771,0.9183895343566171,-0.029773527031537524,-0.033152846595436415,0.3931603044591825
1728063377687552000,1.161552001953125,-0.6878663897514343,-0.26963624358177185,0.8751352429389954,-0.039291732013225555,0.08686616271734238,-0.9954448342323303,0.08012422919273376,0.13099879026412964,0.12319141626358032,0.9165004019735278,-0.03207661790920114,-0.03533653703028644,0.3971766973633259
1728063377697582800,1.171582763671875,-0.909214437007904,-0.31981685757637024,0.859025239944458,-0.04136669635772705,0.0952240377664566,-0.994596004486084,0.05026254802942276,0.07936698198318481,0.14899969100952148,0.9145719955104068,-0.03534467145521443,-0.038115088324669,0.4010687868905623
1728063377707614000,1.181614013671875,-1.0226243734359741,-0.35057517886161804,0.8536767959594727,-0.04378904774785042,0.1052381694316864,-0.9934824705123901,0.025966759771108627,0.08383344113826752,0.15652263164520264,0.9125973334935883,-0.039283949860979384,-0.041418944613584974,0.40485474900324225
1728063377717644000,1.19164404296875,-1.0949667692184448,-0.42198997735977173,0.8444353938102722,-0.04666455462574959,0.1162387803196907,-0.9921244978904724,0.006701767444610596,0.09849810600280762,0.1517772078514099,0.9105622079564086,-0.04355970933235012,-0.04516985880506865,0.4085814556947259
1728063377727675000,1.2016748046875,-1.0655547380447388,-0.47968775033950806,0.856631875038147,-0.0500529445707798,0.1273878514766693,-0.9905892610549927,-0.01478167250752449,0.1257248967885971,0.08067715167999268,0.9084603949877337,-0.04776966922581216,-0.049228440627833304,0.4123038133418793
1728063377737706000,1.2117060546875,-0.9980512857437134,-0.5712328553199768,0.8700933456420898,-0.054097507148981094,0.13815149664878845,-0.9889325499534607,-0.028879810124635696,0.16496430337429047,0.009394586086273193,0.9062754465906919,-0.05163265701370614,-0.05355170465397513,0.4160901607868008
1728063377747736000,1.221736083984375,-0.9240518808364868,-0.6198805570602417,0.8970085978507996,-0.05870341509580612,0.1480812281370163,-0.987231433391571,-0.03750327602028847,0.19078591465950012,-0.012905895709991455,0.9039994566259174,-0.05495578672317618,-0.05800134459272027,0.42000084631596557
1728063377757767000,1.231766845703125,-0.9058222770690918,-0.7080003023147583,0.8641957640647888,-0.06386380642652512,0.1576230674982071,-0.9854320883750916,-0.06582066416740417,0.19755572080612183,-0.009593546390533447,0.9016720780189557,-0.05794785616973145,-0.06265785321827361,0.4239144496527964
1728063377767798000,1.241798095703125,-1.0864694118499756,-0.8079466819763184,0.7434847950935364,-0.06998574733734131,0.16784356534481049,-0.983326256275177,-0.11453881114721298,0.20726320147514343,-0.025951087474822998,0.8994067506346648,-0.061030223466781795,-0.06791305660360648,0.42746994676698735
1728063377777828000,1.251828125,-1.30448317527771,-0.8681567311286926,0.5908704996109009,-0.07703347504138947,0.1802017092704773,-0.9806085824966431,-0.15839439630508423,0.20308376848697662,-0.007199645042419434,0.8972950132432568,-0.06490223231779632,-0.0740500602541662,0.43030897621333214
1728063377787859000,1.26185888671875,-1.4749534130096436,-1.0073421001434326,0.522283136844635,-0.0850839838385582,0.19428087770938873,-0.977249026298523,-0.1874532699584961,0.18721932172775269,0.00784289836883545,0.8952722163204837,-0.06935391583200874,-0.08102791083462732,0.432564547998724
1728063377797890000,1.27189013671875,-1.6293590068817139,-1.1837471723556519,0.4065605700016022,-0.09483258426189423,0.2099160999059677,-0.9731094837188721,-0.20210346579551697,0.2014302909374237,0.010478198528289795,0.893222534506248,-0.0741499580250364,-0.08914626185932857,0.4344055959115926
1728063377807919900,1.281919921875,-1.7489701509475708,-1.3040194511413574,0.25252705812454224,-0.10620546340942383,0.22678039968013763,-0.9681379199028015,-0.20003846287727356,0.2747149169445038,0.009199321269989014,0.8912650051272711,-0.07919274114749705,-0.09828299776971242,0.43556348008709533
1728063377817951000,1.291950927734375,-1.7784720659255981,-1.452086091041565,0.09689965099096298,-0.1191030964255333,0.2440260648727417,-0.962427020072937,-0.2280954122543335,0.325660765171051,-0.06244480609893799,0.8894337024899119,-0.08413692572135989,-0.10820108239197261,0.4360290270406113
1728063377827981800,1.30198193359375,-1.7679930925369263,-1.5717827081680298,-0.10172130167484283,-0.13356192409992218,0.26116207242012024,-0.9560102224349976,-0.2225324660539627,0.3704449534416199,-0.11714041233062744,0.8878161162168999,-0.08879205890557151,-0.11878910087179674,0.4356461413678731
1728063377838012000,1.312011962890625,-1.7290092706680298,-1.6819552183151245,-0.2545177638530731,-0.14963087439537048,0.27761349081993103,-0.9489685893058777,-0.2141539454460144,0.4125415086746216,-0.07629996538162231,0.8863994953673122,-0.09290226019881953,-0.1299418487466301,0.4344884036445627
1728063377848043000,1.32204296875,-1.635235071182251,-1.6705715656280518,-0.4140506982803345,-0.1664525270462036,0.29304957389831543,-0.9414964318275452,-0.2277430295944214,0.4117995798587799,-0.042680203914642334,0.8851732331125296,-0.09651219853400701,-0.14119911245105568,0.4326852822583189
1728063377858073900,1.332073974609375,-1.547958493232727,-1.702702283859253,-0.6288769841194153,-0.18375363945960999,0.3071083724498749,-0.9337660670280457,-0.2195209115743637,0.34325170516967773,-0.011775314807891846,0.8842820935128415,-0.09957271184084783,-0.15232283263539623,0.43003280656258025
1728063377868104000,1.34210400390625,-1.4613542556762695,-1.7331604957580566,-0.8553079962730408,-0.2021157294511795,0.31978994607925415,-0.9256800413131714,-0.242296501994133,0.2874792516231537,0.007726609706878662,0.8837393141375217,-0.10200150416705663,-0.16357156903793174,0.4264325369551383
1728063377878135000,1.352135009765625,-1.2829264402389526,-1.6417057514190674,-1.0829845666885376,-0.22088269889354706,0.330440878868103,-0.9176163077354431,-0.23146411776542664,0.2614169716835022,0.06582492589950562,0.8836626692994758,-0.1036814766357506,-0.17447637994723947,0.4218392605533675
1728063377888166000,1.362165771484375,-1.0778237581253052,-1.532505989074707,-1.2208563089370728,-0.23936167359352112,0.3386077582836151,-0.9099729657173157,-0.20187674462795258,0.1981963813304901,0.040115177631378174,0.884043510751976,-0.10453303868155468,-0.1846249424364324,0.4164774073004936
1728063377898196000,1.372196044921875,-0.7228918671607971,-1.3024898767471313,-1.3133306503295898,-0.25654083490371704,0.343753457069397,-0.9033384323120117,-0.21883150935173035,0.16808730363845825,0.06161785125732422,0.8848475158703879,-0.10444578060548941,-0.1934472769223604,0.41074827483388743
1728063377908227000,1.38222705078125,-0.33618250489234924,-1.142558217048645,-1.422336459159851,-0.27224481105804443,0.3448875844478607,-0.8982958197593689,-0.18863165378570557,0.161261647939682,0.12867295742034912,0.8861555475741237,-0.10294226436005782,-0.2006364739554873,0.40481638532444614
1728063377918258000,1.3922578125,-0.019721994176506996,-0.999082088470459,-1.539502739906311,-0.28697454929351807,0.34236738085746765,-0.8946676254272461,-0.16009271144866943,0.12847301363945007,0.1220388412475586,0.8879629241318806,-0.10008670124200433,-0.2065159606183833,0.39856684235369755
1728063377928288000,1.4022880859375,0.4216156005859375,-0.7400941848754883,-1.5313782691955566,-0.3000171482563019,0.3361043930053711,-0.892761766910553,-0.12135434150695801,0.04597562551498413,0.14283806085586548,0.890195514900863,-0.09588585079151969,-0.2107724496540231,0.39234275718323625
1728063377938318800,1.41231884765625,0.7650952339172363,-0.6066466569900513,-1.4852797985076904,-0.31087547540664673,0.3261145353317261,-0.8927517533302307,-0.06287330389022827,-0.08203500509262085,0.10507780313491821,0.8927235135131071,-0.09032421178957518,-0.2132267476029921,0.38654965922018997
1728063377948350000,1.422349853515625,1.1559033393859863,-0.365333616733551,-1.4605262279510498,-0.319895476102829,0.31291621923446655,-0.8942875862121582,-0.0056355297565460205,-0.10234495997428894,0.026428699493408203,0.8954568969685031,-0.08354811713899325,-0.21418662064801755,0.38118331984147263
1728063377958380000,1.432380126953125,1.3724710941314697,-0.2530131936073303,-1.5031224489212036,-0.32706505060195923,0.2965134382247925,-0.8972782492637634,0.017845720052719116,-0.045857399702072144,0.05482524633407593,0.8984478767755036,-0.07558287969250413,-0.21365420222845571,0.37607238756011024
1728063377968411000,1.442410888671875,1.259145975112915,-0.17307274043560028,-1.6303554773330688,-0.3334214687347412,0.27943843603134155,-0.9004133939743042,0.006120443344116211,-0.03853273391723633,0.0924757719039917,0.9016346544549666,-0.06757611782470344,-0.212665863699278,0.37048846278624287
1728063377978442000,1.45244189453125,1.0191024541854858,-0.16758236289024353,-1.6621413230895996,-0.33941248059272766,0.26341986656188965,-0.9030001163482666,-0.02412816882133484,-0.044120579957962036,0.22389239072799683,0.9048733144146485,-0.060282880854824375,-0.21181579441135742,0.3642861416312204
1728063377988472000,1.46247216796875,0.5004245638847351,-0.18948452174663544,-1.6295058727264404,-0.3452184796333313,0.2507314682006836,-0.9044102430343628,-0.0216333270072937,-0.14561372995376587,0.3073033094406128,0.9079006018199965,-0.054698250168156035,-0.21166710960226343,0.35766141084873504
1728063377998503000,1.4725029296875,-0.06833100318908691,-0.19348831474781036,-1.4954078197479248,-0.3508230447769165,0.24337537586688995,-0.9042630195617676,0.005638718605041504,-0.26139605045318604,0.2855496406555176,0.910548242620219,-0.051752260900956304,-0.21257985335941948,0.3507611620818711
1728063378008534000,1.482533935546875,-0.4469206631183624,-0.2017970085144043,-1.2635231018066406,-0.3559551537036896,0.24094974994659424,-0.9029059410095215,0.024183303117752075,-0.3176557421684265,0.305081844329834,0.9126670639853148,-0.0511731436988111,-0.21430896073287115,0.3442265567170871
1728063378018564000,1.492564208984375,-0.6497682929039001,-0.1930599808692932,-1.1377407312393188,-0.3605957329273224,0.2417873740196228,-0.9008382558822632,0.0873260498046875,-0.3120541572570801,0.24324548244476318,0.9143434792101018,-0.05214268207720841,-0.2164763480206488,0.338223386471268
1728063378028595000,1.502594970703125,-0.5695928335189819,-0.18912243843078613,-1.1179851293563843,-0.36501815915107727,0.24333696067333221,-0.8986372351646423,0.13590744137763977,-0.232411727309227,0.15602248907089233,0.9158653422572169,-0.05347050938776625,-0.21868307648740598,0.33242943509390094
1728063378038626000,1.5126259765625,-0.40738528966903687,-0.1386326402425766,-1.0619157552719116,-0.36918872594833374,0.24371768534183502,-0.8968284726142883,0.13228076696395874,-0.1209913045167923,0.07111436128616333,0.9173538779371186,-0.054238176945018174,-0.22055377810976076,0.3269191029042973
1728063378048656000,1.52265576171875,-0.2552061378955841,-0.12877599895000458,-1.0276445150375366,-0.3728362023830414,0.24282141029834747,-0.8955618143081665,0.14367970824241638,-0.05059124529361725,-0.051169753074645996,0.9188170284155455,-0.054405663702232626,-0.2219439773559792,0.32180126062858266
1728063378058687000,1.53268701171875,-0.21128183603286743,-0.225406676530838,-1.016528844833374,-0.3768782317638397,0.24093066155910492,-0.8943797945976257,0.16822955012321472,-0.0671941339969635,-0.14636117219924927,0.9202075417926664,-0.053993412539714916,-0.2233714848532993,0.3168720591539831
1728063378068718000,1.542718017578125,-0.3082394003868103,-0.36693570017814636,-0.9087960124015808,-0.3818281590938568,0.23951920866966248,-0.8926576972007751,0.1751173436641693,-0.19928185641765594,-0.17077302932739258,0.9213397866930949,-0.05361568998287514,-0.22538078780096507,0.3121887171444144
1728063378078748000,1.552747802734375,-0.502383828163147,-0.47943878173828125,-0.7295804619789124,-0.3875788152217865,0.23997266590595245,-0.8900538086891174,0.1998651623725891,-0.30825579166412354,-0.13608449697494507,0.9220185465142364,-0.05389094360371189,-0.22818600706470354,0.3080727279243505
1728063378088779000,1.562779052734375,-0.6188061833381653,-0.5917853713035583,-0.572328507900238,-0.3938901424407959,0.24257780611515045,-0.8865700960159302,0.2385404109954834,-0.29834872484207153,-0.09412753582000732,0.9222416209051789,-0.05499562153397218,-0.23171195946399328,0.3045576726959494
1728063378098809900,1.572809814453125,-0.4809572696685791,-0.6839051842689514,-0.48628735542297363,-0.40082618594169617,0.2454424500465393,-0.8826643824577332,0.23549720644950867,-0.19543945789337158,-0.053950607776641846,0.922134048162421,-0.055993089862756494,-0.23565354972431704,0.301663561082446
1728063378108840000,1.58283984375,-0.4749312698841095,-0.6668961644172668,-0.48911136388778687,-0.40809154510498047,0.24762628972530365,-0.8787164092063904,0.20411205291748047,-0.09445862472057343,-0.04407411813735962,0.9219102063914936,-0.05655104555644996,-0.23967432322143492,0.29906482836820764
1728063378118871000,1.59287109375,0.03294314816594124,-0.7994371652603149,-0.3929957449436188,-0.41556861996650696,0.24793322384357452,-0.8751181960105896,0.15146949887275696,-0.0040062665939331055,0.0301017165184021,0.9216532615946216,-0.056076838175064286,-0.24350828578618172,0.2968408674288011
1728063378128902000,1.60290185546875,0.1972854882478714,-0.7522034049034119,-0.15029601752758026,-0.4231661260128021,0.24539795517921448,-0.8721870183944702,0.09153163433074951,0.010430827736854553,0.12037128210067749,0.9211147890568606,-0.053821913305855125,-0.2470013716120068,0.2960421605994296
1728063378138932000,1.612931884765625,0.03229546919465065,-0.6426774263381958,-0.15424655377864838,-0.4295267164707184,0.24378852546215057,-0.8695250749588013,0.11322730779647827,0.007432103157043457,0.011508166790008545,0.9204854804311636,-0.052083124025498306,-0.2500495889497893,0.2957513447417271
1728063378148963000,1.622963134765625,-0.16824835538864136,-0.613399088382721,-0.3224741816520691,-0.435468465089798,0.24334301054477692,-0.866689920425415,0.10577180981636047,0.09888105094432831,0.08605027198791504,0.9200418000553872,-0.051180703844193744,-0.25305253262303085,0.29473374995314683
1728063378158994000,1.632993896484375,-0.33093899488449097,-0.6878373622894287,-0.3397256135940552,-0.4419138729572296,0.2440263330936432,-0.8632283806800842,0.041462212800979614,0.07195262610912323,-0.015403211116790771,0.919661962493199,-0.05096036333984833,-0.2564933675927871,0.292977780123745
1728063378169024000,1.64302392578125,-0.5111387968063354,-0.7777462601661682,-0.1995868682861328,-0.4489016532897949,0.24641694128513336,-0.8589330315589905,0.05484342575073242,-0.0009641200304031372,-0.05693000555038452,0.9189983350704138,-0.05145477288702214,-0.26054918288431644,0.2913907482957365
1728063378179054800,1.653054931640625,-0.6395625472068787,-0.7848012447357178,-0.10175272077322006,-0.4560000002384186,0.2508104741573334,-0.8539075255393982,0.10661950707435608,0.0017529428005218506,-0.05663019418716431,0.9180226885903362,-0.05282920186314649,-0.26505716662378703,0.2901518809043038
1728063378189086000,1.6630859375,-0.8472908139228821,-0.6986178755760193,-0.1340363472700119,-0.4626442492008209,0.25641122460365295,-0.8486539721488953,0.12006917595863342,0.10018661618232727,-0.11797505617141724,0.9169807126151909,-0.05488209235464739,-0.2695569643296754,0.2889177504162156
1728063378199116000,1.673115966796875,-1.2030340433120728,-0.651495099067688,-0.3140697777271271,-0.46881142258644104,0.2642122507095337,-0.8428568840026855,0.08570900559425354,0.11708956956863403,-0.09246110916137695,0.9161036653071823,-0.05841432175295029,-0.27415198811245406,0.2866751233103127
1728063378209147000,1.68314697265625,-1.376015067100525,-0.7547913789749146,-0.36796098947525024,-0.47562703490257263,0.27343153953552246,-0.8360706567764282,0.00025472044944763184,0.051946818828582764,0.020824074745178223,0.9152507748605443,-0.06287101372635769,-0.2793061193997226,0.2834632772483435
1728063378219178000,1.693177978515625,-1.5466173887252808,-0.7737192511558533,0.050458647310733795,-0.48246368765830994,0.2847641110420227,-0.828334629535675,-0.058338314294815063,-0.09166419506072998,0.13013815879821777,0.9139471341293183,-0.06824070047547079,-0.2849138457945201,0.2808345724759262
1728063378229208000,1.7032080078125,-1.6508920192718506,-0.7961472868919373,0.25401124358177185,-0.48869046568870544,0.2990342080593109,-0.8196097612380981,-0.0017727911472320557,-0.1529160737991333,0.18707191944122314,0.9119459688609449,-0.07478517933702403,-0.2908647365694163,0.2795700038606412
1728063378239239000,1.713239013671875,-1.2318670749664307,-0.773689329624176,0.10140145570039749,-0.49447721242904663,0.3120940923690796,-0.8112272024154663,0.11270231008529663,-0.050085484981536865,0.2320340871810913,0.9099346515981833,-0.08072479973269447,-0.29642858804756794,0.27862615923950307
1728063378249270000,1.72327001953125,-0.7649094462394714,-0.56019526720047,-0.211844339966774,-0.500235378742218,0.31979259848594666,-0.804672122001648,-0.013116061687469482,-0.01679888367652893,0.14784228801727295,0.9085821712651726,-0.08417894501481793,-0.30096151757266504,0.2771544163840589
1728063378259300000,1.733300048828125,-0.30544036626815796,-0.22110030055046082,-0.27743613719940186,-0.50419682264328,0.3228198289871216,-0.8009824156761169,-0.1556847095489502,0.006891995668411255,-0.13625812530517578,0.9081275193157831,-0.08570385941714004,-0.3035846288629359,0.2753100102244828
1728063378269331000,1.7433310546875,-0.04035982862114906,-0.05292678251862526,-0.16670241951942444,-0.5059327483177185,0.322875440120697,-0.7998647093772888,-0.206881582736969,0.0890202522277832,-0.19172775745391846,0.9081821002624146,-0.08586600576647527,-0.30445801030601055,0.27411252946306996
1728063378279362000,1.753362060546875,-0.16766157746315002,0.012770205736160278,-0.10531097650527954,-0.5064226984977722,0.322919636964798,-0.7995367050170898,-0.12478756904602051,0.14892780780792236,-0.21215152740478516,0.9083092605521764,-0.08605525984334873,-0.30467384801173764,0.2733908041293374
1728063378289391900,1.763391845703125,-0.12399866431951523,-0.13702717423439026,-0.029337111860513687,-0.507038414478302,0.32405489683151245,-0.7986867427825928,-0.048473060131073,0.16878867149353027,-0.11764931678771973,0.9082543392835305,-0.0867334708397152,-0.3051785234157152,0.2727957347785773
1728063378299423000,1.773423095703125,0.5101398825645447,-0.3908969759941101,-0.0312199667096138,-0.5092676281929016,0.3225027620792389,-0.7978962659835815,-0.02668207883834839,0.06403285264968872,-0.012162327766418457,0.9079270542026767,-0.0854871965546275,-0.30617608543605174,0.273160575470769
1728063378309454000,1.7834541015625,0.9052777886390686,-0.2225811630487442,-0.32760849595069885,-0.5125126242637634,0.3157632052898407,-0.7985138893127441,0.009796559810638428,-0.11941316723823547,-0.20118093490600586,0.9079446551731902,-0.08142160219807061,-0.3067793638672723,0.27366670970741847
1728063378319484000,1.79348388671875,0.897708535194397,0.1827855110168457,-0.43920427560806274,-0.5138126015663147,0.30635982751846313,-0.8013365268707275,-0.0428737998008728,-0.08002626895904541,-0.26503920555114746,0.9088603557287994,-0.07664425843418976,-0.305708013604495,0.27320511308879386
1728063378329515000,1.803514892578125,1.1804286241531372,0.1471424549818039,-0.13858796656131744,-0.5131507515907288,0.29678794741630554,-0.8053528666496277,-0.15451282262802124,0.10607454180717468,-0.039770424365997314,0.9099499831544104,-0.07192050074933964,-0.30356382726257314,0.27325361634485895
1728063378339545900,1.8135458984375,1.6043756008148193,0.09030207246541977,0.10894672572612762,-0.5123429894447327,0.28522685170173645,-0.8100311160087585,-0.10942214727401733,0.12930864095687866,0.00853264331817627,0.9105875180624846,-0.06553692627540045,-0.30114675026271487,0.2754016515661306
1728063378349576000,1.823575927734375,1.9651075601577759,0.18921028077602386,0.04454989358782768,-0.5109405517578125,0.27128735184669495,-0.815685510635376,0.023193359375,-0.0008101165294647217,-0.009952306747436523,0.9112178724607216,-0.05779601923944328,-0.2980215721954468,0.27843258649098923
1728063378359607000,1.83360693359375,2.7253384590148926,0.17721140384674072,0.0017800605855882168,-0.5092769265174866,0.252175509929657,-0.822827160358429,0.06759601831436157,0.06754183769226074,-0.09898680448532104,0.9121096992943885,-0.04742353615278902,-0.29383232195743136,0.2819032558799018
1728063378369638000,1.843637939453125,3.2089951038360596,0.11657729744911194,-0.047620780766010284,-0.50814288854599,0.22724945843219757,-0.8307517766952515,0.11274188756942749,0.17311058938503265,-0.20925676822662354,0.9129347183242676,-0.03387652361758359,-0.28892299010671313,0.28622739704975214
1728063378379668000,1.85366796875,3.471205472946167,0.09658041596412659,-0.07800424844026566,-0.5074103474617004,0.19896040856838226,-0.8384208083152771,0.22356635332107544,0.28364449739456177,-0.4492378830909729,0.9136319605656211,-0.01865159040011582,-0.28362247946386326,0.290666355905467
1728063378389699000,1.863698974609375,3.2908570766448975,0.20407502353191376,0.06341679394245148,-0.5060743093490601,0.17006056010723114,-0.8455579280853271,0.24591195583343506,0.4422287940979004,-0.44934868812561035,0.9140647870670763,-0.003223487233274428,-0.27786804400945836,0.2954057112268904
1728063378399730000,1.87372998046875,2.8081469535827637,0.20863276720046997,0.32957950234413147,-0.5038204789161682,0.14508919417858124,-0.8515362739562988,0.2545376420021057,0.4325627386569977,-0.33297300338745117,0.9140458042250454,0.01013743020456457,-0.2722665917588541,0.30048001647306444
1728063378409760000,1.883760009765625,2.4870307445526123,-0.11861902475357056,0.43064671754837036,-0.5027839541435242,0.12450503557920456,-0.8553986549377441,0.26401442289352417,0.29682058095932007,-0.01232290267944336,0.9132856226462581,0.02162384277875796,-0.2680169658805633,0.30595548795812877
1728063378419791000,1.893791015625,1.863893985748291,-0.35974109172821045,0.09179677069187164,-0.5046082139015198,0.1070241630077362,-0.8566892147064209,0.2982788681983948,0.011063553392887115,0.1168210506439209,0.9122349298988066,0.03169941933284668,-0.26580171656906015,0.31011613217957973
1728063378429822000,1.903822021484375,1.1651532649993896,-0.3599139451980591,-0.10028159618377686,-0.507783830165863,0.09399260580539703,-0.8563416600227356,0.21025270223617554,-0.24661105871200562,0.1181824803352356,0.9115316372276444,0.0391630637706917,-0.26513285434748496,0.31189900398199166
1728063378439852000,1.91385205078125,0.7218940258026123,-0.2330513298511505,0.04009575769305229,-0.5103490352630615,0.08581589162349701,-0.8556748628616333,0.03734183311462402,-0.2803807556629181,0.2053300142288208,0.9109989745446698,0.04393002068278996,-0.265014545314162,0.31291923319937537
1728063378449883000,1.9238828125,0.33306747674942017,-0.08633166551589966,0.07516799122095108,-0.5116484761238098,0.08161893486976624,-0.8553094267845154,0.0067046284675598145,-0.213119238615036,0.2596368193626404,0.9105559818145288,0.04651273544358617,-0.2649185593834473,0.3139150343630435
1728063378459914000,1.9339140625,-0.1926405131816864,0.0366176962852478,-0.01410276535898447,-0.5117549300193787,0.08115607500076294,-0.8552898168563843,-0.03866010904312134,-0.16088330745697021,0.3381084203720093,0.9104605668193866,0.046834573407100503,-0.2648804019176386,0.31417601904062786
1728063378469944000,1.943944091796875,-1.0226022005081177,0.14077472686767578,-0.11221229285001755,-0.511014461517334,0.08579222857952118,-0.8552800416946411,-0.16972589492797852,-0.16001102328300476,0.5056859254837036,0.910818847467033,0.04412903802936643,-0.2653537343431438,0.3131279623405183
1728063378479975000,1.953974853515625,-2.0481228828430176,0.2662237286567688,-0.14999987185001373,-0.5093757510185242,0.09818179905414581,-0.8549249768257141,-0.27047044038772583,-0.2173987627029419,0.6433771252632141,0.9116132819139232,0.03701949442495144,-0.26677158252125677,0.3105216912764502
1728063378490006000,1.964006103515625,-3.2624807357788086,0.35318073630332947,-0.10158175230026245,-0.5068180561065674,0.1201832965016365,-0.853634238243103,-0.3166835308074951,-0.3013967275619507,0.721706748008728,0.9126363526979413,0.02461705509815447,-0.2694009861893062,0.30645050165485327
1728063378500036000,1.9740361328125,-4.572474002838135,0.4128704369068146,-0.24052764475345612,-0.5037569999694824,0.1530022919178009,-0.8501877784729004,-0.2878384590148926,-0.3521600663661957,0.7606186866760254,0.913701967281451,0.006232984899005772,-0.27361884910345025,0.3004041519381004
1728063378510067000,1.98406689453125,-5.591140270233154,0.3997354507446289,-0.49526700377464294,-0.5008352398872375,0.19450609385967255,-0.8434046506881714,-0.22058504819869995,-0.3097710609436035,0.7363489866256714,0.9146902062169998,-0.017281966017801974,-0.2792830091281291,0.29162319828800287
1728063378520098000,1.99409814453125,-5.386213302612305,0.23714733123779297,-0.1617199182510376,-0.4988864064216614,0.2399938851594925,-0.8327756524085999,-0.19889801740646362,-0.24405276775360107,0.6755185723304749,0.9149063902845166,-0.043133557361362394,-0.28592249944250303,0.28166294845440976
1728063378530128100,2.004128173828125,-2.9414243698120117,-0.3264835476875305,0.7310875058174133,-0.498391717672348,0.2761552035808563,-0.8217931389808655,-0.17583313584327698,-0.2563798427581787,0.3652501702308655,0.9132308764567114,-0.06256465906721596,-0.2918716968125916,0.277319184371451
1728063378540159000,2.014158935546875,-1.6738656759262085,0.022787099704146385,0.02084003947675228,-0.4987778663635254,0.2968886196613312,-0.8142958879470825,0.1299576759338379,-0.22457727789878845,-0.83421790599823,0.9115532569701323,-0.07326727013240969,-0.29577686295813793,0.2760773680857231
1728063378550190000,2.024190185546875,-0.6996368169784546,0.1568991094827652,-0.5310287475585938,-0.4985755681991577,0.30486375093460083,-0.8114681243896484,0.2365974485874176,0.1736670434474945,-1.435800552368164,0.9117503715143727,-0.07834804571538864,-0.2968628207862421,0.27284661396486803
1728063378560220000,2.034219970703125,-0.5878607034683228,-0.030607150867581367,-0.2601029574871063,-0.4993976056575775,0.30747824907302856,-0.809974730014801,-0.06978574395179749,0.5228286981582642,-0.566429078578949,0.9121936974317947,-0.08047167723374674,-0.29755155915532866,0.26998132244317996
1728063378570251000,2.0442509765625,-0.7696948051452637,-0.15416599810123444,0.2760928273200989,-0.5000283122062683,0.31314533948898315,-0.8074105381965637,0.1937233805656433,0.5014297962188721,-0.37343668937683105,0.911763550084432,-0.0835324949492728,-0.29885959806172074,0.269058714282408
1728063378580283400,2.054283447265625,-1.1798423528671265,-0.43288418650627136,0.35066187381744385,-0.5012656450271606,0.3223435580730438,-0.8030114769935608,0.42562782764434814,0.4357893168926239,-0.20435857772827148,0.9104491485633572,-0.08786720801532452,-0.3012866215279831,0.269421726284348
1728063378590313500,2.0643134765625,-1.8531321287155151,-0.5764333009719849,0.12575766444206238,-0.504534125328064,0.336021363735199,-0.7953206896781921,0.43013226985931396,0.11026763916015625,-0.17614537477493286,0.9086492224638042,-0.09465090663112544,-0.3055828003263395,0.2683600317744434
1728063378600344300,2.07434423828125,-1.8806880712509155,-0.6953791379928589,0.09092085063457489,-0.5094103813171387,0.35149791836738586,-0.7854617834091187,0.24673032760620117,-0.13448747992515564,-0.08410608768463135,0.9065776541725356,-0.10253315333397253,-0.3110563413201766,0.26617267365508257
1728063378610375400,2.08437548828125,-1.8560503721237183,-0.43007874488830566,0.19965186715126038,-0.513420045375824,0.3668748140335083,-0.7757594585418701,0.08232879638671875,-0.22338125109672546,0.10081744194030762,0.9044714760567414,-0.11047283755828134,-0.3160949805980187,0.2642176660360517
1728063378620405500,2.094405517578125,-1.4360967874526978,-0.09790933132171631,0.2857036590576172,-0.5144280791282654,0.38124096393585205,-0.7681270241737366,-0.007285177707672119,-0.13244646787643433,0.2726435661315918,0.9027798138200744,-0.11820213468046258,-0.31931921015174547,0.2627777490306358
1728063378630436400,2.104436279296875,-0.71344393491745,0.0685248151421547,0.2763804495334625,-0.5133270621299744,0.39086905121803284,-0.7640135288238525,-0.10033565759658813,0.06025698781013489,0.30985093116760254,0.9017461218644204,-0.1234462160408516,-0.3205530446588027,0.26241331190475337
1728063378640467500,2.114467529296875,-0.3023298382759094,0.21685676276683807,0.22013424336910248,-0.5112851858139038,0.3960181176662445,-0.762730062007904,-0.1276308298110962,0.09125599265098572,0.13301503658294678,0.901334796336935,-0.12632654368537888,-0.3204318603990319,0.2626035795658999
1728063378650497500,2.12449755859375,0.21459516882896423,0.2561146914958954,0.3439949154853821,-0.5082586407661438,0.39774712920188904,-0.7638522982597351,-0.1245691180229187,0.09193786978721619,0.08114355802536011,0.9013498377642962,-0.1272912982919191,-0.31917200362650655,0.26361829243819895
1728063378660528400,2.1345283203125,0.6212422847747803,0.32623863220214844,0.3956725001335144,-0.5045140385627747,0.3965815007686615,-0.7669345736503601,-0.06772100925445557,0.06104475259780884,0.04777258634567261,0.9015541551845461,-0.1264467590410125,-0.31708663362510103,0.2658331806638921
1728063378670559500,2.1445595703125,1.195365071296692,0.4373559057712555,0.29630303382873535,-0.5002016425132751,0.3913678228855133,-0.7724180221557617,0.0026430487632751465,0.04939752817153931,-0.14584070444107056,0.9022579346328032,-0.12342823376375245,-0.3139370487184762,0.26858826208018033
1728063378680589300,2.15458935546875,1.7187635898590088,0.5145789980888367,0.22617721557617188,-0.49544990062713623,0.3813342750072479,-0.7804573178291321,-0.04374992847442627,0.1886119246482849,-0.2718345522880554,0.9035390445778259,-0.1178988701292807,-0.3096307599088701,0.2717459284660638
1728063378690620400,2.164620361328125,2.132908821105957,0.5888912677764893,0.17452360689640045,-0.4903394281864166,0.36689460277557373,-0.7905413508415222,-0.10289177298545837,0.3339262306690216,-0.2695325016975403,0.9052411694273421,-0.11009004535373255,-0.3043181172742229,0.27533443523766854
1728063378700651500,2.174651611328125,2.1469907760620117,0.719959020614624,0.2495850771665573,-0.4843898415565491,0.3507036566734314,-0.8014819622039795,-0.14125099778175354,0.37163206934928894,-0.17688101530075073,0.9070866307352585,-0.1015233754211089,-0.2982482343246949,0.27916788960375966
1728063378710681300,2.184681396484375,2.2360572814941406,0.6614237427711487,0.29104435443878174,-0.47769126296043396,0.3343607783317566,-0.8124123811721802,-0.14613381028175354,0.32753491401672363,-0.055538058280944824,0.908800149776913,-0.09297680255348069,-0.2918032202828955,0.28335210472591243
1728063378720712400,2.19471240234375,2.1789424419403076,0.6195234656333923,0.2506447434425354,-0.47152528166770935,0.31759876012802124,-0.8226754665374756,-0.08726683259010315,0.18745183944702148,0.020139455795288086,0.9103271916848973,-0.0842534637772747,-0.2855934331842417,0.2874756710071506
1728063378730742500,2.204742431640625,2.241143226623535,0.4902397692203522,0.22373323142528534,-0.4661828875541687,0.3002188205718994,-0.8321911692619324,-0.0507543683052063,0.0704781711101532,0.029624640941619873,0.9116590593074452,-0.07521265931568964,-0.2797274728663385,0.29150194048744765
1728063378740773400,2.2147734375,2.088101625442505,0.37570813298225403,0.17539232969284058,-0.4619236886501312,0.2829453945159912,-0.8405762314796448,-0.014120012521743774,0.020277202129364014,-0.045700013637542725,0.9127329711908406,-0.06619876414678229,-0.27446237947199936,0.2953078709148964
1728063378750804500,2.224804443359375,1.9118574857711792,0.2544432282447815,0.04641517251729965,-0.4589140713214874,0.26658201217651367,-0.8475446105003357,0.03467395901679993,-0.11498600244522095,-0.1057634949684143,0.9136122043924018,-0.057687391031782914,-0.26999973976686914,0.29847106092010245
1728063378760834600,2.23483447265625,1.7179042100906372,0.1863429993391037,-0.11635909974575043,-0.4571073055267334,0.25095677375793457,-0.8532722592353821,0.0868222713470459,-0.22471171617507935,-0.10029524564743042,0.9144547612408164,-0.049666527827009095,-0.26626510310394297,0.30068000097855
1728063378770865400,2.244865478515625,1.542565107345581,0.15058431029319763,-0.14456835389137268,-0.45592179894447327,0.2364235520362854,-0.8580437898635864,0.11855000257492065,-0.17714323103427887,0.0014612078666687012,0.9152733929456004,-0.042320856956507426,-0.2630342870367787,0.3021530939997759
1728063378780896500,2.254896484375,1.7168092727661133,0.08027367293834686,-0.07861997187137604,-0.4551956355571747,0.2220507711172104,-0.8622589111328125,0.12728425860404968,0.02945980429649353,0.1533966064453125,0.9158997375085769,-0.034965999486562226,-0.26009216800863105,0.3037386203786605
1728063378790926300,2.26492626953125,1.832431674003601,0.11323050409555435,-0.0793246477842331,-0.4545663297176361,0.20617961883544922,-0.8665214776992798,0.11536344885826111,0.1508760005235672,0.16972887516021729,0.9164154379231949,-0.026783461230235162,-0.2569473109197183,0.3056853589905587
1728063378800957400,2.27495751953125,1.7429790496826172,0.2020634263753891,0.0037217712961137295,-0.4531875550746918,0.19029763340950012,-0.8708661198616028,0.05298006534576416,0.1332649290561676,0.09390389919281006,0.9169074877709413,-0.018715497178033776,-0.25341006696624585,0.3077558646775908
1728063378810988500,2.284988525390625,1.6622941493988037,0.1327267587184906,0.10395462810993195,-0.45157837867736816,0.17566673457622528,-0.8747674822807312,-0.015096426010131836,0.11692050099372864,0.1184961199760437,0.9171543339630478,-0.01122428708382193,-0.24998054888211638,0.3101799935782724
1728063378821018400,2.295018310546875,1.5071336030960083,0.0402466244995594,0.14635083079338074,-0.4505613446235657,0.16221529245376587,-0.8778842091560364,0.006576329469680786,0.08322227001190186,0.018554985523223877,0.9171304751291558,-0.004184856352706197,-0.2470635237074459,0.31275191325574164
1728063378831049500,2.305049560546875,1.3029274940490723,-0.07083658874034882,0.1126951277256012,-0.4504809081554413,0.15051771700382233,-0.8800064325332642,0.042415112257003784,0.017038986086845398,-0.10684049129486084,0.9169033568510417,0.002095033220550463,-0.24493344179817883,0.31510520321823204
1728063378841080300,2.315080322265625,1.1176583766937256,-0.11583762615919113,0.03561472147703171,-0.4511615037918091,0.14017075300216675,-0.8813656568527222,0.06584656238555908,-0.04846550524234772,-0.09016138315200806,0.9166484942680576,0.007704376004055994,-0.24342927058487995,0.3169199106740198
1728063378851110400,2.3251103515625,0.982212483882904,-0.1735282987356186,-0.004723911173641682,-0.4524017870426178,0.13098947703838348,-0.8821419477462769,0.0571533739566803,-0.07947584986686707,0.014237284660339355,0.9163964924307118,0.012720815615421252,-0.2424195127747528,0.3182584230983447
1728063378861141500,2.3351416015625,0.8383016586303711,-0.18454445898532867,-0.031018631532788277,-0.45402291417121887,0.12278345972299576,-0.8824893236160278,0.025800257921218872,-0.08242401480674744,0.11462128162384033,0.9161372967747955,0.017249517951124088,-0.2417804602068204,0.3192758316681738
1728063378871172400,2.34517236328125,0.690368115901947,-0.1913737654685974,-0.0648261308670044,-0.4557352364063263,0.11580229550600052,-0.8825504183769226,-0.019774407148361206,-0.0929599478840828,0.1600162386894226,0.9158986940852761,0.021128543834497866,-0.2414091436712534,0.32000757368833027
1728063378881202400,2.355202392578125,0.3510794937610626,-0.0470711812376976,-0.14316034317016602,-0.45696502923965454,0.11067105084657669,-0.8825728893280029,-0.08507293462753296,-0.11186127364635468,0.16090846061706543,0.9158626006023735,0.02386515784954896,-0.24113071855640977,0.3201281432582938
1728063378891233500,2.365233642578125,0.22009825706481934,0.07072580605745316,-0.08364535868167877,-0.45690780878067017,0.10771509259939194,-0.8829681277275085,-0.13720840215682983,-0.06578399240970612,0.17389219999313354,0.9160441279025473,0.02522667748019055,-0.2405816927239547,0.3199175094588834
1728063378901264400,2.375264404296875,-0.015951557084918022,0.1088968962430954,-0.08092733472585678,-0.4561636447906494,0.10635659843683243,-0.8835174441337585,-0.15142607688903809,-0.039828330278396606,0.28682243824005127,0.9162553014868335,0.025699214364666555,-0.23996008295018878,0.31974210012793103
1728063378911294500,2.38529443359375,-0.4051007628440857,0.1510472297668457,-0.17094403505325317,-0.45511797070503235,0.10758127272129059,-0.8839083313941956,-0.09786054491996765,-0.08531874418258667,0.23934656381607056,0.9166443648358603,0.02470276845454404,-0.23965727499220563,0.31893165302021836
1728063378921325600,2.39532568359375,-0.8446312546730042,0.14132057130336761,-0.17963899672031403,-0.453967422246933,0.11226750165224075,-0.8839171528816223,-0.08572068810462952,-0.14420419931411743,0.2734282612800598,0.9171886279299295,0.0218189199148151,-0.23992779144780332,0.3173697277175399
1728063378931356400,2.4053564453125,-1.2690465450286865,0.10939996689558029,-0.16469094157218933,-0.45303818583488464,0.12087241560220718,-0.8832588791847229,-0.06263259053230286,-0.20108792185783386,0.2975044846534729,0.917712483302843,0.016954932777031285,-0.24100433363586607,0.31533026903507017
1728063378941386500,2.415386474609375,-1.7582988739013672,0.06654997169971466,-0.11089055985212326,-0.4523598253726959,0.13363930583000183,-0.8817659020423889,-0.014513343572616577,-0.2236509472131729,0.19052749872207642,0.9181560353386657,0.009999647479664704,-0.24293427208607624,0.31284548828798026
1728063378951417300,2.425417236328125,-2.057900905609131,-0.07088378071784973,-0.038838740438222885,-0.4524769186973572,0.150339275598526,-0.879012405872345,0.00576058030128479,-0.20151731371879578,0.08976680040359497,0.9183253932153567,0.0012077117471465792,-0.2459519229908539,0.31013666832671877
1728063378961448400,2.435448486328125,-1.978248119354248,-0.16015134751796722,-0.023303188383579254,-0.45354339480400085,0.16821134090423584,-0.8752161860466003,0.048056334257125854,-0.14185947179794312,0.007311522960662842,0.9181794945794187,-0.007990983286398317,-0.2496558671423537,0.3074973355209285
1728063378971478500,2.445478515625,-1.592462420463562,-0.1967645287513733,-0.1429765820503235,-0.4552649259567261,0.18354003131389618,-0.8712329864501953,0.08435428142547607,-0.09949466586112976,-0.1499309539794922,0.9179644754295352,-0.01585993529328933,-0.25324291242306124,0.304889700375424
1728063378981509400,2.45550927734375,-1.1255296468734741,-0.19749237596988678,-0.2771815359592438,-0.4574004113674164,0.1945294886827469,-0.8677229881286621,0.08198842406272888,-0.01801586151123047,-0.2962479591369629,0.9179043025469289,-0.021599508364848415,-0.25626545147863894,0.30218064942539263
1728063378991540500,2.46554052734375,-0.5352720022201538,-0.09950834512710571,-0.31184685230255127,-0.4593113362789154,0.20034803450107574,-0.8653864860534668,0.049033015966415405,0.13825969398021698,-0.2782902717590332,0.9180661049412915,-0.024796892805617046,-0.25824768873110454,0.2997464602522256
1728063379001570600,2.475570556640625,-0.13705940544605255,0.04613354429602623,-0.28424638509750366,-0.46015846729278564,0.20170482993125916,-0.8646209239959717,0.008711934089660645,0.24650679528713226,-0.21066594123840332,0.9184369190934595,-0.02581832909199915,-0.2588879277953741,0.2979664106837267
1728063379011601400,2.485601318359375,-0.053288474678993225,0.10989686101675034,-0.266815721988678,-0.45988643169403076,0.20111967623233795,-0.8649019002914429,-0.03774845600128174,0.22742335498332977,-0.10273420810699463,0.9189616665508116,-0.025967945752847634,-0.2586014510762393,0.29658106939069606
1728063379021632500,2.495632568359375,-0.1580340564250946,0.05480697751045227,-0.2412767857313156,-0.4596273601055145,0.20082849264144897,-0.8651072978973389,-0.053327351808547974,0.13083650171756744,0.05102038383483887,0.9194443562397001,-0.02624150826682485,-0.2583752093922512,0.29525525198903796
1728063379031662600,2.50566259765625,-0.2372247576713562,-0.09428609907627106,-0.1036590114235878,-0.4600885510444641,0.201621413230896,-0.8646775484085083,-0.006662517786026001,-0.004340603947639465,0.14745348691940308,0.9196776505655424,-0.02686031683287289,-0.2587271491724548,0.2941626944869502
1728063379041693400,2.515693359375,-0.5515792369842529,-0.21457229554653168,-0.01829218491911888,-0.46159064769744873,0.20486800372600555,-0.8631124496459961,0.07256785035133362,-0.08443045616149902,0.18760591745376587,0.9194669689121409,-0.02839171417242052,-0.260072448452738,0.293490368977459
1728063379051724500,2.525724609375,-0.6469717621803284,-0.14556041359901428,-0.17787544429302216,-0.46335315704345703,0.20972947776317596,-0.8609979152679443,0.14331531524658203,-0.06553398072719574,0.16213011741638184,0.919279646892458,-0.03082976182437102,-0.2618216463182871,0.2922736511006612
1728063379061754400,2.53575439453125,-0.5705124139785767,-0.13807640969753265,-0.23633822798728943,-0.4650156795978546,0.21402916312217712,-0.8590412735939026,0.07037761807441711,-0.0482882559299469,0.04944044351577759,0.9193210200718456,-0.03318439460174539,-0.2633973440253823,0.2904641042830687
1728063379071785500,2.545785400390625,-0.44613197445869446,-0.10696982592344284,-0.12159699946641922,-0.4664607644081116,0.21756388247013092,-0.8573682308197021,-0.014404714107513428,-0.035572350025177,-0.08013176918029785,0.9193367782096878,-0.03511483675576693,-0.2647316342702505,0.2889702893398207
1728063379081816300,2.55581640625,-0.35110214352607727,-0.07929239422082901,-0.052618201822042465,-0.4673616588115692,0.2205873727798462,-0.8561041355133057,0.018692225217819214,0.05693943798542023,-0.10854125022888184,0.9192656092988045,-0.03670627104298843,-0.26570772604771187,0.28810179195125796
1728063379091846400,2.565846435546875,-0.2589072287082672,-0.07653038203716278,-0.07067257165908813,-0.468173086643219,0.22297778725624084,-0.8550408482551575,0.048815786838531494,0.13378790020942688,-0.10496586561203003,0.9191862719297335,-0.03794543621744636,-0.2665327722455178,0.2874317165613305
1728063379101877500,2.57587744140625,-0.20501841604709625,-0.03708256781101227,-0.08768537640571594,-0.4688577651977539,0.22449913620948792,-0.8542672395706177,0.013993263244628906,0.1112552136182785,-0.06997287273406982,0.9191889481876936,-0.03878216965430327,-0.2671372807270764,0.2867493017751277
1728063379111908400,2.585908447265625,-0.198668971657753,0.03280937299132347,-0.02790859155356884,-0.468952476978302,0.22598430514335632,-0.8538235425949097,-0.013881385326385498,0.040159448981285095,-0.04034149646759033,0.9192358493837145,-0.039654820725097864,-0.2674242189166827,0.2862119884093463
1728063379121938400,2.5959384765625,-0.16130508482456207,0.04585593193769455,-0.032864734530448914,-0.4686407744884491,0.2274198681116104,-0.8536134958267212,-0.0027184784412384033,0.008480951189994812,0.02835714817047119,0.9192885422926611,-0.04051511124565406,-0.26749163848492835,0.2858588667604464
1728063379131969500,2.605969482421875,-0.16525155305862427,0.057285211980342865,-0.06432199478149414,-0.4682738780975342,0.22854562103748322,-0.8535141944885254,0.01476740837097168,-0.007842540740966797,0.03571939468383789,0.919404873157386,-0.04126315761729947,-0.2674701239121051,0.285397331319195
1728063379142000400,2.61600048828125,-0.20393583178520203,0.03686435520648956,-0.040151678025722504,-0.4679751396179199,0.22985713183879852,-0.8533258438110352,-0.0005002021789550781,-0.0202319473028183,0.021416664123535156,0.9195091800699868,-0.04210343504258271,-0.26751520263275375,0.2848962353325366
1728063379152030500,2.626030517578125,-0.25439900159835815,0.04107705131173134,-0.026443853974342346,-0.4677083492279053,0.2316926121711731,-0.852975606918335,0.0024983882904052734,-0.008410811424255371,-0.002081155776977539,0.9195546021908347,-0.04318365185853245,-0.26767024229261355,0.2844417024469632
1728063379162061600,2.6360615234375,-0.3012083172798157,0.03572889044880867,-0.022592656314373016,-0.4674011468887329,0.2339743971824646,-0.8525210618972778,0.01804506778717041,0.003330245614051819,-0.024660944938659668,0.9195868458145136,-0.0445052804346435,-0.26787823851418757,0.2839376809432835
1728063379172092400,2.646092529296875,-0.3527306318283081,-0.012229793705046177,-0.01136503554880619,-0.4673084020614624,0.23666341602802277,-0.8518293499946594,0.010490775108337402,0.004120230674743652,-0.010688960552215576,0.9195550676993652,-0.04599524374370369,-0.2682717839894037,0.2834310290729283
1728063379182122500,2.65612255859375,-0.43874168395996094,-0.01932019367814064,-0.005304480437189341,-0.46746352314949036,0.24004213511943817,-0.8507982492446899,0.0069227516651153564,-0.019751042127609253,-0.013947844505310059,0.9194522043766182,-0.04780801197445194,-0.2689149934169472,0.28285475842746155
1728063379192153300,2.6661533203125,-0.35892850160598755,-0.011363307014107704,-0.006774811539798975,-0.4675712287425995,0.24354273080825806,-0.8497435450553894,0.007625550031661987,-0.03480255603790283,-0.004733383655548096,0.9193434573772685,-0.049690979715608485,-0.26955340521326143,0.2822753830488414
1728063379202184400,2.676184326171875,-0.2052723467350006,0.0055554891005158424,-0.021690377965569496,-0.46760663390159607,0.24580399692058563,-0.8490726947784424,0.01345929503440857,-0.027816995978355408,0.019864320755004883,0.9192939131277876,-0.050930796651711754,-0.26994389232185934,0.2818423794992034
1728063379212214500,2.686214599609375,-0.11906716227531433,0.02698354795575142,-0.03957350552082062,-0.4675663411617279,0.24705985188484192,-0.8487303256988525,0.016501277685165405,0.0012463629245758057,-0.015435934066772461,0.919315198135116,-0.051668135539790494,-0.2701207874275688,0.28146898862901276
1728063379222245400,2.696245361328125,-0.007667395286262035,0.03961971402168274,-0.04023237153887749,-0.4673555791378021,0.2474198192358017,-0.8487415313720703,0.004663318395614624,0.05032487213611603,-0.0066204071044921875,0.9194052427699678,-0.051962837501345435,-0.2700538755751445,0.28118465074973054
1728063379232276500,2.7062763671875,0.026762550696730614,0.04995427280664444,-0.021674931049346924,-0.467021644115448,0.24710948765277863,-0.8490157127380371,-0.001346886157989502,0.0593479722738266,0.01742696762084961,0.9195195822629708,-0.05189975883672996,-0.26981206619002396,0.2810545220899009
1728063379242306600,2.716306640625,-0.04004524275660515,0.03063543513417244,-0.017275389283895493,-0.46618691086769104,0.24677886068820953,-0.8495704531669617,-0.00102195143699646,0.022080957889556885,0.01367872953414917,0.9196892509960198,-0.05188485632368605,-0.2693004472205042,0.28099279551614725
1728063379252337400,2.72633740234375,-0.12525300681591034,-0.012641624547541142,-0.008570580743253231,-0.4656856060028076,0.24717625975608826,-0.8497298359870911,0.006304502487182617,-0.004851475358009338,0.0010665059089660645,0.9197831437760231,-0.052208360265757196,-0.2690898673401457,0.28082720903663366
1728063379262368500,2.736368408203125,-0.1797519475221634,-0.08651797473430634,0.0017779306508600712,-0.4657489061355591,0.24693553149700165,-0.8497651219367981,0.010213017463684082,-0.022066816687583923,0.018069565296173096,0.9198881594283724,-0.05217082350919299,-0.2690643639072439,0.2805144417023184
1728063379272398600,2.746398681640625,-0.2287299484014511,-0.11079417914152145,-0.021503690630197525,-0.4665365517139435,0.2467622607946396,-0.8493832945823669,0.02542021870613098,-0.028729483485221863,0.008303582668304443,0.9199220708013358,-0.052094510578932766,-0.2694336882299419,0.28006239277129763
1728063379282429400,2.756429443359375,-0.26728692650794983,-0.10312800109386444,-0.028190886601805687,-0.46758145093917847,0.2476671040058136,-0.8485449552536011,0.025366485118865967,-0.017839282751083374,-0.029033780097961426,0.9198584727819182,-0.052538201435775284,-0.27012451372679597,0.2795223706007272
1728063379292460500,2.76646044921875,-0.18275518715381622,-0.09431044012308121,-0.012577040120959282,-0.4675544798374176,0.24956922233104706,-0.8480023741722107,0.00849384069442749,0.0017429590225219727,-0.011128485202789307,0.919800831340733,-0.053571565027101684,-0.27042358480637346,0.27922654352111026
1728063379302490400,2.776490478515625,-0.017219487577676773,-0.061194829642772675,-0.019517239183187485,-0.46765682101249695,0.2524404525756836,-0.8470956087112427,0.0035149753093719482,0.00982755422592163,0.009952664375305176,0.9195245123720429,-0.05494944910633311,-0.2709848043133239,0.27932513382381274
1728063379312521500,2.786521484375,0.028538811951875687,-0.00994405522942543,-0.0353609174489975,-0.4680444002151489,0.25475162267684937,-0.8461891412734985,0.0030785799026489258,0.01488637924194336,-0.020693182945251465,0.9192462572549982,-0.056004052225329455,-0.271604461534614,0.2794294974446277
1728063379322552300,2.79655224609375,0.07675640285015106,0.002329655922949314,0.0014466331340372562,-0.4681496024131775,0.25481000542640686,-0.8461133241653442,-0.01610332727432251,0.037349969148635864,0.005537152290344238,0.9192164014763695,-0.05600768956456809,-0.2716734553666216,0.27945982314098805
1728063379332582400,2.80658251953125,0.03301418945193291,-0.01873062178492546,0.020301813259720802,-0.4679584503173828,0.2539707124233246,-0.84647136926651,-0.013364791870117188,0.04116475582122803,0.03319317102432251,0.9192704713276201,-0.05557924778030116,-0.27143188227186044,0.27960233416137525
1728063379342613500,2.816613525390625,-0.0518072247505188,-0.04857213795185089,-0.014354700222611427,-0.4681992828845978,0.2532496154308319,-0.8465542197227478,0.009047091007232666,0.0031589865684509277,0.020016133785247803,0.9193086465472355,-0.0551996486222015,-0.271433045195028,0.27955068688092793
1728063379352643600,2.8266435546875,-0.14301690459251404,-0.08363670110702515,-0.028887303546071053,-0.4682396352291107,0.2528839111328125,-0.8466412425041199,0.013756603002548218,-0.030014097690582275,0.017326056957244873,0.9194114132246837,-0.05508886418622189,-0.2713753843271684,0.27929072639858193
1728063379362674400,2.83667431640625,-0.19763514399528503,-0.09752881526947021,-0.001398421823978424,-0.4680161476135254,0.2534213960170746,-0.84660404920578,0.008543521165847778,-0.04234665632247925,0.018402814865112305,0.9194784822341666,-0.05546507131970923,-0.27133298428432684,0.2790363145445359
1728063379372705500,2.84670556640625,-0.20273855328559875,-0.08796391636133194,0.032581113278865814,-0.4683849513530731,0.25509488582611084,-0.8458972573280334,0.00770685076713562,-0.024839818477630615,0.03235960006713867,0.9193303850322857,-0.056280563708514524,-0.27181589806942663,0.2788910167332035
1728063379382735600,2.856735595703125,-0.17152602970600128,-0.08377103507518768,0.03320615738630295,-0.4689868092536926,0.2572225332260132,-0.8449189066886902,0.008278220891952515,-0.000371396541595459,0.025476157665252686,0.9190722100379394,-0.05725027293840323,-0.2725123226135481,0.27886491551945086
1728063379392766500,2.866766357421875,-0.13160331547260284,-0.0766126736998558,0.008697887882590294,-0.4690256118774414,0.25892436504364014,-0.8443773984909058,0.0074472129344940186,0.013048231601715088,-0.02631962299346924,0.9189248736692818,-0.058088478679099186,-0.27283150861201444,0.27886528642120956
1728063379402797600,2.876797607421875,-0.06551405042409897,-0.05327778682112694,-0.015027415007352829,-0.4699818789958954,0.2610357999801636,-0.8431947231292725,0.004665106534957886,0.01414114236831665,-0.05246567726135254,0.9186234899052367,-0.05900824024792819,-0.27371639400054293,0.2787978626574986
1728063379412827400,2.886827392578125,0.023729875683784485,-0.020146679133176804,-0.010049967095255852,-0.4709853529930115,0.26254570484161377,-0.8421654105186462,0.0008468329906463623,0.015667706727981567,-0.03419262170791626,0.9183472908458691,-0.05960624765684439,-0.2745257738447311,0.2787848352740652
1728063379422858500,2.8968583984375,0.019411826506257057,0.020635105669498444,0.009792979806661606,-0.4709206819534302,0.26233425736427307,-0.8422674536705017,-0.007045626640319824,0.019205600023269653,-0.02173095941543579,0.9183613775345479,-0.059497742162889986,-0.2744563439118105,0.27883014416714835
1728063379432889300,2.906889404296875,-0.003946626093238592,0.054054051637649536,0.024513868615031242,-0.47039833664894104,0.2609955072402954,-0.8429749011993408,-0.01379355788230896,0.018301337957382202,0.00610661506652832,0.9185665262627533,-0.05892654387701498,-0.273934660919559,0.2787883668608768
1728063379442919400,2.91691943359375,-0.04788079485297203,0.005469469353556633,0.04459623247385025,-0.4701676070690155,0.2597172260284424,-0.8434982895851135,-0.012559443712234497,0.013994872570037842,0.037437498569488525,0.9187232963053982,-0.05834190876718768,-0.2735819354805855,0.27874114312375725
1728063379452950500,2.926950439453125,-0.12852437794208527,-0.03761797398328781,0.027126429602503777,-0.4704859256744385,0.26002371311187744,-0.8432263135910034,0.0073359012603759766,-0.009398162364959717,0.05071532726287842,0.9186576156444802,-0.05845291710650588,-0.27380667595340497,0.2787135998370653
1728063379462981400,2.9369814453125,-0.17944775521755219,-0.03266875445842743,0.029873481020331383,-0.4707854986190796,0.26159146428108215,-0.8425740003585815,0.01624143123626709,-0.02648410201072693,0.027373194694519043,0.9185041445338544,-0.059208324074059814,-0.27423963002505597,0.2786345694145229
1728063379473011500,2.947011474609375,-0.15636292099952698,-0.02287343516945839,0.050328418612480164,-0.47030937671661377,0.2633707523345947,-0.8422855138778687,0.0015288591384887695,-0.021824151277542114,0.006302237510681152,0.9184143090139992,-0.060154385177130315,-0.2742967028062713,0.27867168416259985
1728063379483042600,2.95704248046875,-0.11615025997161865,-0.007054791320115328,0.059488363564014435,-0.4695134460926056,0.2647838890552521,-0.8422865271568298,-0.0004114806652069092,-0.004499524831771851,-0.012724459171295166,0.918366079307134,-0.06093151443754717,-0.2741241940178573,0.27883170288730474
1728063379493073400,2.967073486328125,-0.07900815457105637,-0.01582319475710392,0.042639873921871185,-0.4690215587615967,0.2660060226917267,-0.8421754837036133,0.0017516613006591797,0.01129189133644104,-0.011080741882324219,0.9182856388758405,-0.06156527785514306,-0.27408388036298004,0.2789966996286415
1728063379503103500,2.977103515625,-0.06521377712488174,-0.030472978949546814,0.03028414212167263,-0.4690292477607727,0.26701560616493225,-0.8418516516685486,0.006596386432647705,0.020444661378860474,-0.018301546573638916,0.9181653760489003,-0.06203389986734592,-0.2742735105341866,0.2791025248159899
1728063379513134600,2.987134521484375,-0.03711170330643654,-0.012422552332282066,0.00627973722293973,-0.46950316429138184,0.2678532302379608,-0.8413212299346924,0.005254507064819336,0.007476329803466797,-0.030123472213745117,0.9180155662671156,-0.062371253756871484,-0.27468017257462,0.27912035410034386
1728063379523165400,2.99716552734375,-0.02484891191124916,0.004342312924563885,-0.0035305488854646683,-0.47013938426971436,0.2683718204498291,-0.8408005833625793,-0.0033255815505981445,0.004394263029098511,-0.03522181510925293,0.9178957396417459,-0.06255206936834315,-0.27511263341969716,0.279047987091625
1728063379533195500,3.007195556640625,-0.03267913684248924,0.017989682033658028,0.028031373396515846,-0.4704408347606659,0.2685299813747406,-0.8405814170837402,-0.01579570770263672,0.010980457067489624,-0.023279666900634766,0.9178553478463102,-0.06260307157213556,-0.2753001270235025,0.2789843292060887
1728063379543226400,3.017226318359375,-0.05016465485095978,-0.006115387659519911,0.04730413481593132,-0.4703274071216583,0.26846516132354736,-0.8406655788421631,-0.014581620693206787,0.006101399660110474,0.034345388412475586,0.917855907570655,-0.0625663893328609,-0.27523203038009464,0.2790578057746218
1728063379553257500,3.027257568359375,-0.07241397351026535,-0.004603937733918428,0.026579150930047035,-0.4703803062438965,0.2686428427696228,-0.8405792117118835,-0.0005364120006561279,-0.012173205614089966,0.041506946086883545,0.9178229056611267,-0.06263710755778955,-0.2752943826645209,0.27908907575145725
1728063379563287600,3.03728759765625,-0.06872309744358063,-0.01639641635119915,0.024638770148158073,-0.4702467918395996,0.2691196799278259,-0.8405013680458069,0.006104946136474609,-0.023163318634033203,0.024873316287994385,0.917801655423418,-0.06289462755618613,-0.27530634236334567,0.2790892622191918
1728063379573318400,3.047318359375,-0.03776371106505394,-0.03332570195198059,0.016214927658438683,-0.47020211815834045,0.2697678804397583,-0.8403185606002808,0.010286957025527954,-0.011055141687393188,0.02078425884246826,0.9177284792024939,-0.06320048857544446,-0.27540226933850354,0.2791663445516857
1728063379583348200,3.05734814453125,-0.05459408834576607,-0.01527266763150692,0.01957343891263008,-0.469894140958786,0.27062174677848816,-0.8402162790298462,0.01802036166191101,0.0022358596324920654,-0.0001157522201538086,0.9176682173416796,-0.063640546140875,-0.2753938023723671,0.2792727058746609
1728063379593378300,3.06737841796875,-0.02604546956717968,-0.010822045616805553,0.03971971943974495,-0.46942827105522156,0.27102550864219666,-0.8403465151786804,0.0032875239849090576,0.01547345519065857,0.01417464017868042,0.9176654885143039,-0.06387563507205195,-0.27522107381513533,0.27939824040694605
1728063379603409400,3.077409423828125,-0.03596227988600731,-0.013280143029987812,0.04367877170443535,-0.4691055119037628,0.27125951647758484,-0.8404512405395508,-0.0031997859477996826,0.013759344816207886,0.012921333312988281,0.917639769653446,-0.06398857951617573,-0.27509971181911047,0.2795760756548042
1728063379613440300,3.087440185546875,-0.03385212644934654,-0.013293459080159664,0.015746742486953735,-0.4692348539829254,0.27170518040657043,-0.8402350544929504,-0.001407235860824585,0.00472298264503479,-0.02535027265548706,0.9175564822791431,-0.06416590394034775,-0.2752547964167822,0.2796563477313551
1728063379623470300,3.09747021484375,-0.017041455954313278,-0.0094752861186862,-0.0061044939793646336,-0.47015076875686646,0.27219080924987793,-0.8395655751228333,-0.010226398706436157,-0.0003403127193450928,-0.03548014163970947,0.9173993907494927,-0.06429030593915866,-0.2758332059762602,0.27957300394028767
1728063379633501200,3.107501220703125,-0.01897704042494297,0.005649765022099018,0.009526398032903671,-0.47075363993644714,0.2721728980541229,-0.8392335176467896,-0.012675315141677856,-0.0047016143798828125,-0.02586352825164795,0.9173415450696636,-0.06422018165886531,-0.2761503371862016,0.27946589612209816
1728063379643532300,3.1175322265625,-0.02878759242594242,0.00984184630215168,0.022292526438832283,-0.47084787487983704,0.2719114124774933,-0.8392654061317444,-0.006981104612350464,-0.00007614493370056152,0.012452661991119385,0.9173546134730597,-0.06407993458061645,-0.27615403234053265,0.27945159499909367
1728063379653562400,3.127562255859375,-0.00486468430608511,0.01317836157977581,-0.002027460839599371,-0.4707513749599457,0.2719613313674927,-0.8393033146858215,0.004976868629455566,0.003124028444290161,0.02881753444671631,0.9173643865302109,-0.06411922466501846,-0.2761105809519256,0.2794531631179177
1728063379663593200,3.13759326171875,0.0006970611866563559,0.026465140283107758,-0.005442165769636631,-0.47019773721694946,0.2720024287700653,-0.8396003246307373,0.0030651986598968506,0.0031439661979675293,0.02388077974319458,0.9174414800682319,-0.06422155723141264,-0.275817723654118,0.2794660755801523
1728063379673624300,3.147624267578125,-0.020283522084355354,0.0338464081287384,0.016221052035689354,-0.46994760632514954,0.27260226011276245,-0.8395459055900574,-0.008140772581100464,0.00045374035835266113,0.010612130165100098,0.9174119917870954,-0.06454389283527837,-0.2757918508259605,0.2795143632128333
1728063379683654400,3.157654296875,-0.01633698306977749,0.035303957760334015,0.0320170558989048,-0.46975448727607727,0.2733818590641022,-0.8394004106521606,-0.0048701465129852295,0.00873786211013794,0.010954976081848145,0.9173442776462905,-0.06493363593228747,-0.2758322056242309,0.2796063152503613
1728063379693685200,3.167685302734375,-0.008288843557238579,0.03351324796676636,0.023267243057489395,-0.46899768710136414,0.2734759449958801,-0.8397928476333618,-0.004162102937698364,0.0036083459854125977,0.007181763648986816,0.9174082725043394,-0.06505534364783884,-0.27544757536486,0.2797470898296877
1728063379703716400,3.17771630859375,0.00554228387773037,0.03462991118431091,-0.005289300344884396,-0.46850425004959106,0.27311405539512634,-0.8401859998703003,0.0007765889167785645,-0.002468973398208618,-0.016411960124969482,0.9175121365563127,-0.06494872170050237,-0.27511575420201984,0.2797578470201932
1728063379713746400,3.187746337890625,0.016213703900575638,0.019798394292593002,-0.0068824030458927155,-0.46839097142219543,0.2724897861480713,-0.8404518365859985,0.004508525133132935,0.0018632113933563232,-0.02305835485458374,0.9176078941542398,-0.06467894754241806,-0.2749376832807893,0.27968147477413063
1728063379723777300,3.19777734375,-0.009184065274894238,0.016309387981891632,0.0021760729141533375,-0.46874964237213135,0.2724876403808594,-0.8402525186538696,0.005904793739318848,0.00940316915512085,-0.011554121971130371,0.9175708182060704,-0.06463931129394378,-0.2751281695852275,0.2796248609545943
1728063379733808400,3.207808349609375,-0.020545177161693573,0.020805494859814644,0.00739720044657588,-0.46894070506095886,0.27303773164749146,-0.8399672508239746,0.006416290998458862,0.007311969995498657,0.0037550926208496094,0.9174960919686836,-0.06488604986516777,-0.27532919757867436,0.2796149661380843
1728063379743838200,3.217838134765625,-0.016536587849259377,0.021171679720282555,0.008831312879920006,-0.46905213594436646,0.27350983023643494,-0.8397514224052429,0.0006836056709289551,0.003772825002670288,0.02401655912399292,0.9174335998166745,-0.06509978792973395,-0.2754746792374397,0.2796270843335576
1728063379753869300,3.227869384765625,-0.006949273403733969,0.03038232959806919,0.011181551963090897,-0.469215989112854,0.2737354338169098,-0.8395863771438599,-0.004721999168395996,-0.005989521741867065,0.026857495307922363,0.9173973841071631,-0.06519513530140636,-0.2756018889408263,0.2795984792626908
1728063379763900200,3.237900146484375,0.018190434202551842,0.03201564401388168,0.028246557340025902,-0.46914130449295044,0.2740600109100342,-0.8395221829414368,-0.00812309980392456,-0.003323376178741455,0.03195077180862427,0.9173539924315713,-0.06534259125582154,-0.27562519666427954,0.2796831215569763
1728063379773930200,3.24793017578125,-0.011079637333750725,0.014727415516972542,0.060090236365795135,-0.46897661685943604,0.27434930205345154,-0.839519739151001,-0.002413153648376465,0.004047274589538574,0.03553414344787598,0.9172934121959313,-0.06545289801802409,-0.27560126994025236,0.27987946191717894
1728063379783961300,3.25796142578125,-0.036112017929553986,-0.013791310600936413,0.05144907906651497,-0.46855759620666504,0.2745729982852936,-0.839680552482605,0.012197732925415039,0.008706361055374146,0.02428138256072998,0.9172630106603122,-0.06555594200474678,-0.2754308236335351,0.2801228057401637
1728063379793992200,3.2679921875,-0.03202733024954796,-0.029348274692893028,0.007623302284628153,-0.46823057532310486,0.2748653292655945,-0.839767336845398,0.02325376868247986,0.008337736129760742,-0.00967419147491455,0.9172488395530655,-0.06571473221728495,-0.27531419492728065,0.2802467401555265
1728063379804022300,3.278022216796875,-0.012906365096569061,-0.03294433653354645,0.00014621159061789513,-0.4681433439254761,0.2751791477203369,-0.8397132158279419,0.012912631034851074,0.004010885953903198,-0.024437785148620605,0.91722250631097,-0.06587277549781774,-0.2753255785745046,0.2802848056019839
1728063379814053400,3.288053466796875,-0.012380723841488361,-0.03399905562400818,0.011391941457986832,-0.46829044818878174,0.2755177319049835,-0.8395201563835144,-0.0005358755588531494,0.004709869623184204,-0.031756699085235596,0.917151892460061,-0.06600051064557075,-0.2754702385056348,0.28034379220674277
1728063379824084200,3.298084228515625,-0.017466029152274132,-0.020004678517580032,0.007531157229095697,-0.4687906503677368,0.2759054899215698,-0.8391135334968567,-0.004979461431503296,0.005435973405838013,-0.01708763837814331,0.9170354944884058,-0.06611022053595525,-0.2758127628155479,0.28036166602286117
1728063379834114300,3.3081142578125,-0.03973238915205002,-0.023012612015008926,0.008060060441493988,-0.46942150592803955,0.2761116027832031,-0.8386929631233215,-0.01014697551727295,-0.0052223801612854,0.006600618362426758,0.9169413166557167,-0.06613490810529073,-0.2761878050089801,0.2802946699551647
1728063379844145400,3.3181455078125,-0.039343565702438354,-0.026379914954304695,0.006492257583886385,-0.4701567590236664,0.2765132188796997,-0.8381485939025879,-0.004727274179458618,-0.015618503093719482,0.02894449234008789,0.9168121830254433,-0.06623950039615382,-0.27665509766780716,0.2802313621741527
1728063379854176300,3.32817626953125,-0.045629292726516724,-0.0063710520043969154,-0.008280829526484013,-0.47066181898117065,0.2770993709564209,-0.8376713991165161,0.008518874645233154,-0.015090763568878174,0.03823292255401611,0.9167074601717261,-0.06647754734147966,-0.2770289411139444,0.2801484422697396
1728063379864206300,3.338206298828125,-0.011829783208668232,0.0077932365238666534,0.013860426843166351,-0.470550000667572,0.27761369943618774,-0.8375639319419861,0.00892588496208191,-0.004969745874404907,0.038461148738861084,0.9166778220757061,-0.06675035841984472,-0.2770603395031723,0.2801493767612912
1728063379874237200,3.3482373046875,-0.003972791600972414,-0.011447355151176453,0.028871333226561546,-0.46993735432624817,0.27794814109802246,-0.8377969264984131,0.002316504716873169,0.007070720195770264,0.041028738021850586,0.9166868598530643,-0.06695782729025247,-0.276799882648573,0.28032785538673305
1728063379884268300,3.358268310546875,0.027806710451841354,0.005583825521171093,-0.004422441124916077,-0.4694078266620636,0.27783992886543274,-0.8381296396255493,0.005311757326126099,0.011741310358047485,0.0037180185317993164,0.9167374557766241,-0.06694665901079201,-0.27650195593286137,0.28045897425771704
1728063379894298400,3.36829833984375,0.02052682638168335,0.01246681809425354,-0.01732785440981388,-0.46909475326538086,0.27743229269981384,-0.8384398818016052,-0.004065036773681641,0.0034362077713012695,-0.030716001987457275,0.9168243757789891,-0.06679485467935448,-0.27625803611581723,0.2804515294420525
1728063379904329200,3.3783291015625,-0.016819747164845467,-0.008163359016180038,0.002760902512818575,-0.46901363134384155,0.2773619294166565,-0.8385085463523865,-0.01269105076789856,0.00014960765838623047,-0.035118162631988525,0.9168501471206422,-0.0667794757102288,-0.27619963043226153,0.28042828048130286
1728063379914360300,3.3883603515625,-0.03806910663843155,-0.02853158861398697,0.012965338304638863,-0.46933403611183167,0.2775655686855316,-0.8382618427276611,-0.0013843178749084473,0.005637466907501221,-0.016932249069213867,0.9167881765107087,-0.06683622314820888,-0.2764091370391728,0.2804108871851703
1728063379924390400,3.398390380859375,-0.03633805364370346,-0.022353852167725563,0.006114887539297342,-0.46985387802124023,0.27777138352394104,-0.8379023671150208,0.007024317979812622,0.0017542839050292969,0.008877098560333252,0.9167062218248453,-0.06687369268505472,-0.27672500981283527,0.28035835567387263
1728063379934421200,3.408421142578125,-0.02322777733206749,-0.004684151615947485,0.009791648015379906,-0.47017908096313477,0.2779647707939148,-0.837655782699585,0.006830692291259766,-0.00947117805480957,0.02161574363708496,0.9166535863084418,-0.06693379824516804,-0.27693317912979,0.28031052851769506
1728063379944452400,3.418452392578125,0.04098929092288017,-0.04027170687913895,-0.015240201726555824,-0.47053858637809753,0.2779652178287506,-0.8374537229537964,0.002810925245285034,-0.008281439542770386,0.015996813774108887,0.9165932472276588,-0.06687300114209818,-0.2771301807788793,0.2803277279503881
1728063379954482400,3.428482421875,0.0068137431517243385,0.013005735352635384,-0.0042714402079582214,-0.47098928689956665,0.2780171036720276,-0.8371831178665161,0.0009270310401916504,-0.011751294136047363,0.027689099311828613,0.9165288408981537,-0.06683804995506178,-0.277382608641836,0.28029712562088255
1728063379964513300,3.43851318359375,0.030306819826364517,0.019639935344457626,0.006626748014241457,-0.4707149267196655,0.2781076729297638,-0.837307333946228,-0.018970131874084473,-0.0038309991359710693,0.025249838829040527,0.916538645328263,-0.06690188119402594,-0.2772552294358568,0.28037587524214763
1728063379974544400,3.44854443359375,0.04503669589757919,0.033168476074934006,0.022178543731570244,-0.47012341022491455,0.27779489755630493,-0.8377434015274048,-0.00881946086883545,0.018133997917175293,0.02383953332901001,0.9166223841235187,-0.06680351156301433,-0.27688554076397315,0.2804908265237743
1728063379984574200,3.45857421875,0.03896069526672363,-0.039714787155389786,0.02059050090610981,-0.4699897766113281,0.27722713351249695,-0.8380063772201538,0.006671905517578125,0.020197123289108276,0.02979409694671631,0.9166411621057148,-0.06648980712313735,-0.2767235292909199,0.28066380113774736
1728063379994605300,3.468605224609375,-0.025695063173770905,-0.06448415666818619,-0.011113367043435574,-0.47024935483932495,0.2772827744483948,-0.8378423452377319,0.02690523862838745,0.007156252861022949,-0.005221009254455566,0.916572103151238,-0.06645303226157791,-0.276880494626948,0.2807434743930395
1728063380004636200,3.47863623046875,0.008346791379153728,-0.052064768970012665,-0.05136438459157944,-0.47080203890800476,0.27732542157173157,-0.8375177979469299,0.02506229281425476,-0.007244914770126343,-0.03214162588119507,0.9165293325437774,-0.06643345005330284,-0.2771780815002751,0.28059399460384754
1728063380014666200,3.488666259765625,0.04941413179039955,-0.03656677156686783,-0.04965623468160629,-0.4713793098926544,0.2767745554447174,-0.8373753428459167,0.005543738603591919,-0.006159991025924683,-0.04868733882904053,0.9165498986677274,-0.06612858388859942,-0.277379434480297,0.28039975251472254
1728063380024697300,3.498697265625,0.08384428173303604,-0.02411169931292534,-0.040334369987249374,-0.47181323170661926,0.27596375346183777,-0.8373985290527344,-0.006534546613693237,0.005209892988204956,-0.037265777587890625,0.9165872615884386,-0.06568875026934586,-0.27746300343475927,0.2802982901772626
1728063380034727400,3.5087275390625,0.08641296625137329,-0.030953679233789444,-0.02105121873319149,-0.47236666083335876,0.2750331461429596,-0.8373926877975464,-0.009048134088516235,0.01691320538520813,0.0016077756881713867,0.9166002485885857,-0.06515446575253193,-0.2775942001785322,0.2802507206110421
1728063380044758300,3.51875830078125,0.05775495246052742,-0.030132628977298737,-0.005206209607422352,-0.47311124205589294,0.2744257152080536,-0.8371716141700745,-0.012118250131607056,0.0068089962005615234,0.023405134677886963,0.916539087571124,-0.06473585059577387,-0.2778911017633817,0.2802533531834613
1728063380054789400,3.528789306640625,0.023219745606184006,-0.051492348313331604,-0.02617514133453369,-0.4737101197242737,0.27446553111076355,-0.8368198275566101,-0.0025776922702789307,-0.014455825090408325,0.021298587322235107,0.9164311458617391,-0.06465056127986585,-0.2782272558589013,0.28029235029946115
1728063380064819500,3.5388193359375,-0.03572000190615654,-0.03762686625123024,-0.013003412634134293,-0.4741796553134918,0.2751149535179138,-0.8363404870033264,0.0038732588291168213,-0.029463768005371094,0.019735872745513916,0.916318031008625,-0.0649177392884976,-0.27859545759529575,0.28023492537177574
1728063380074850300,3.548850341796875,-0.018934428691864014,-0.05624140426516533,0.0013323831371963024,-0.47399622201919556,0.27555006742477417,-0.8363012671470642,-0.0023984313011169434,-0.016318559646606445,0.035199522972106934,0.916293523704929,-0.06514893221153134,-0.2785767310168151,0.2802799962164103
1728063380084881400,3.55888134765625,0.02085426077246666,-0.04718133062124252,0.006019547116011381,-0.47366905212402344,0.27541476488113403,-0.8365311026573181,0.012502670288085938,0.010565370321273804,0.02810525894165039,0.9163274603116276,-0.06510413365333226,-0.27838084100986943,0.2803737430348673
1728063380094911200,3.5689111328125,0.04398241639137268,-0.07332275807857513,-0.014352037571370602,-0.47368597984313965,0.27475506067276,-0.8367384672164917,0.01816532015800476,0.027521491050720215,0.0100630521774292,0.9163583274461746,-0.06474805174837289,-0.2782776823835788,0.2804576825659225
1728063380104942300,3.5789423828125,0.031917229294776917,-0.08874645829200745,-0.017421331256628036,-0.4741247892379761,0.2743230164051056,-0.8366316556930542,0.015247225761413574,0.020705610513687134,-0.0144120454788208,0.916318592516052,-0.06445427537113786,-0.2784417458273399,0.28049264069400454
1728063380114973200,3.58897314453125,0.01943812519311905,-0.09115976095199585,-0.03229881450533867,-0.47504177689552307,0.2742460370063782,-0.8361365795135498,0.005895048379898071,0.00866711139678955,-0.029387712478637695,0.9161952391846311,-0.06428469749396898,-0.2789250431953087,0.28045415190241646
1728063380125003300,3.599003173828125,-0.009327476844191551,-0.09300826489925385,-0.02038090117275715,-0.47616925835609436,0.2742998003959656,-0.835477352142334,-0.00419268012046814,-0.009086847305297852,-0.022341251373291016,0.9160494729401965,-0.06416953322779519,-0.27954175315735275,0.2803425093701446
1728063380135034400,3.609034423828125,-0.04327918589115143,-0.10521549731492996,0.0014828522689640522,-0.4772510826587677,0.2742462754249573,-0.8348774909973145,-0.0094737708568573,-0.01626598834991455,0.003761768341064453,0.9159131142581973,-0.06400129747865844,-0.2801162246786816,0.28025336148335944
1728063380145065200,3.619065185546875,-0.08126784861087799,-0.10590419173240662,0.024784712120890617,-0.4781945049762726,0.27442559599876404,-0.8342785239219666,0.000792771577835083,-0.017131924629211426,0.028187215328216553,0.9157664767093562,-0.0639599982718014,-0.28065968779171363,0.28019830345719166
1728063380155095300,3.62909521484375,-0.10028315335512161,-0.11729005724191666,0.01944827102124691,-0.47932174801826477,0.2751922905445099,-0.8333786129951477,0.00910690426826477,-0.007324308156967163,0.052723705768585205,0.9155255338853062,-0.06416996202735772,-0.28141235255024943,0.2801828397005088
1728063380165126400,3.63912646484375,-0.11709675192832947,-0.10687389969825745,-0.008815858513116837,-0.48014646768569946,0.2764001488685608,-0.8325036764144897,0.017835676670074463,-0.007189393043518066,0.056273818016052246,0.9153069192930294,-0.06466234763224514,-0.2820761201689738,0.2801164917413839
1728063380175157200,3.6491572265625,-0.12020225822925568,-0.08884228020906448,-0.043182622641325,-0.4807162880897522,0.2777477502822876,-0.8317259550094604,0.012149393558502197,-0.006278693675994873,0.04786670207977295,0.9151461910583635,-0.06529606198391483,-0.2826189060019345,0.2799474323045186
1728063380185187300,3.659187255859375,-0.08112037181854248,-0.06999429315328598,-0.05908196046948433,-0.48112428188323975,0.2785800099372864,-0.831211507320404,0.004302382469177246,-0.006958365440368652,0.06480830907821655,0.9151049222562682,-0.0657470496627217,-0.2829691859252131,0.27962253911761553
1728063380195218400,3.669218505859375,-0.12368547916412354,-0.10152792185544968,0.0895456001162529,-0.48148441314697266,0.2793670892715454,-0.8307386636734009,-0.010016441345214844,-0.008767783641815186,0.08948194980621338,0.9149852372443301,-0.06609242749894466,-0.2833062864498881,0.27959121502460293
1728063380205249300,3.679249267578125,-0.11804410070180893,-0.1625521332025528,0.06060609221458435,-0.4822857975959778,0.280727356672287,-0.8298147320747375,-0.004408508539199829,-0.0012474358081817627,0.07632052898406982,0.9146466934529468,-0.0665574359043255,-0.2840118455002102,0.2798726000965017
1728063380215279400,3.689279296875,-0.07288534194231033,-0.1589188426733017,-0.06731831282377243,-0.4836825430393219,0.28126999735832214,-0.8288174271583557,0.0197390615940094,0.008769005537033081,-0.07691377401351929,0.9144190826884023,-0.06665527984616972,-0.28486550384740306,0.2797254960587782
1728063380225310200,3.699310302734375,0.03611091151833534,-0.15345190465450287,-0.00932026095688343,-0.48516789078712463,0.2811732292175293,-0.82798171043396,-0.04267936944961548,0.004776418209075928,-0.12277817726135254,0.9142566106814366,-0.06644223351023193,-0.2856476168728154,0.2795100096152837
1728063380235341300,3.70934130859375,0.09193263202905655,-0.1419573724269867,0.055036358535289764,-0.4863336384296417,0.28071218729019165,-0.8274540901184082,-0.038492411375045776,0.029590487480163574,-0.0803217887878418,0.9140225995694741,-0.0659384918277301,-0.2862255471697123,0.27980318204125665
1728063380245371400,3.719371337890625,0.05347258970141411,-0.1917204111814499,-0.04790547117590904,-0.487648069858551,0.2801526188850403,-0.8268699049949646,0.017219603061676025,0.04295217990875244,-0.0381813645362854,0.9137972570257406,-0.06538672656664482,-0.2868616828747392,0.280016828264575
1728063380255402200,3.72940234375,-0.023302149027585983,-0.2707865238189697,-0.13265736401081085,-0.489857941865921,0.2795596718788147,-0.8257636427879333,0.010625183582305908,0.02500566840171814,0.01245492696762085,0.9136012132383932,-0.0648540866694072,-0.2879446834960995,0.279668514567893
1728063380265433300,3.739433349609375,-0.03068709373474121,-0.2756739556789398,-0.09190089255571365,-0.4925662577152252,0.2793367803096771,-0.8242265582084656,-0.026614010334014893,-0.0017184317111968994,0.047279536724090576,0.9133306897789536,-0.0644729755121631,-0.28936130151624306,0.2791777657845951
1728063380275463400,3.74946337890625,0.019984271377325058,-0.16744425892829895,-0.04631556570529938,-0.49475041031837463,0.2790820598602295,-0.8230037689208984,-0.045487016439437866,-0.006224453449249268,0.04816246032714844,0.9130723754576894,-0.06408247750568305,-0.2905022412492266,0.27892759133911516
1728063380285494300,3.759494384765625,0.019591722637414932,-0.09889688342809677,-0.03677345812320709,-0.49598875641822815,0.2787718176841736,-0.8223633170127869,-0.06963926553726196,0.006826847791671753,0.031362950801849365,0.9129342387791776,-0.06377204300395208,-0.2911210711695476,0.2788057384331514
1728063380295525400,3.769525390625,-0.0077326418831944466,-0.1521783173084259,-0.06288761645555496,-0.4969116449356079,0.2784404456615448,-0.8219183087348938,-0.08490598201751709,0.021333664655685425,0.0765722393989563,0.9128514553998524,-0.06350258613365373,-0.29156176798683625,0.2786777937020533
1728063380305555500,3.779555419921875,-0.05849302560091019,-0.1690603643655777,-0.11271961778402328,-0.49840763211250305,0.27817606925964355,-0.8211016654968262,-0.06331416964530945,0.01737135648727417,0.05199766159057617,0.9127465468160685,-0.06326006137254263,-0.2923137658466283,0.27828875547237364
1728063380315586300,3.78958642578125,-0.0594489648938179,-0.14228765666484833,-0.17019036412239075,-0.5000219345092773,0.2780580222606659,-0.8201596140861511,-0.06319522857666016,0.009798973798751831,-0.04904204607009888,0.9126948128426783,-0.06316496452243162,-0.29313883292050613,0.277611386930311
1728063380325617400,3.799617431640625,0.011052098125219345,-0.08319371938705444,-0.24270451068878174,-0.5013893246650696,0.2772902846336365,-0.8195845484733582,-0.08445662260055542,0.02071380615234375,-0.11643534898757935,0.9128192516049429,-0.06286605024275216,-0.29369300563403783,0.2766828180070803
1728063380335647200,3.809647216796875,0.020867111161351204,-0.044461656361818314,-0.2529856562614441,-0.5025292038917542,0.2759804427623749,-0.8193284869194031,-0.10309213399887085,0.03783175349235535,-0.13600903749465942,0.9130778176036486,-0.06238376089020692,-0.2940136211411632,0.27559604668898097
1728063380345678300,3.81967822265625,0.026156414300203323,-0.03468199819326401,-0.24974563717842102,-0.5036323666572571,0.27455395460128784,-0.8191303610801697,-0.10348433256149292,0.04542279243469238,-0.06447559595108032,0.9133560351387399,-0.0618551099622526,-0.29429367907263676,0.2744919504622647
1728063380355709400,3.82970947265625,-0.025412170216441154,0.008164694532752037,-0.2736552655696869,-0.5046288967132568,0.27322566509246826,-0.8189612030982971,-0.08689326047897339,0.030439406633377075,0.001975119113922119,0.9136682196586356,-0.06142198612921953,-0.2945280083917229,0.273296662680867
1728063380365739300,3.8397392578125,-0.05593359097838402,0.050513219088315964,-0.30117741227149963,-0.5053397417068481,0.2722088396549225,-0.8188614845275879,-0.08387839794158936,-0.0015790164470672607,0.02667093276977539,0.9140617391954798,-0.061258651324240306,-0.29464663581344114,0.2718857764135579
1728063380375770400,3.849770263671875,-0.004482653923332691,0.06027236953377724,-0.334771066904068,-0.5060460567474365,0.2709745764732361,-0.818834662437439,-0.08187508583068848,-0.006036281585693359,0.048784613609313965,0.9145129076489806,-0.06103106172001173,-0.2947166035054187,0.27033970856644085
1728063380385801200,3.85980126953125,-0.027570396661758423,0.06706555932760239,-0.34663650393486023,-0.5067057609558105,0.2693987786769867,-0.8189465999603271,-0.07152605056762695,0.002848505973815918,0.06314826011657715,0.9150235276220349,-0.060666577129263266,-0.2946969213235947,0.26871009483865205
1728063380395831300,3.869831298828125,-0.04265826940536499,0.06620248407125473,-0.36062318086624146,-0.5071589350700378,0.26796266436576843,-0.8191372156143188,-0.07087445259094238,0.021343916654586792,0.04942291975021362,0.9155698029197824,-0.06042219786314993,-0.29458538384862737,0.2670213490253867
1728063380405862400,3.8798623046875,-0.03367595747113228,0.07821041345596313,-0.3889349699020386,-0.5075951218605042,0.2663235366344452,-0.8194015622138977,-0.07435983419418335,0.042819470167160034,0.015675365924835205,0.9161635598269534,-0.06011220486119258,-0.2944244081515566,0.2652264896241537
1728063380415893200,3.889893310546875,-0.055831994861364365,0.048956334590911865,-0.4026225507259369,-0.5081404447555542,0.2646767795085907,-0.8195971846580505,-0.0861588716506958,0.037828654050827026,-0.008787274360656738,0.9167681740286605,-0.05981890614202001,-0.29431805004947326,0.2633148825629085
1728063380425923300,3.89992333984375,-0.0866042897105217,0.00996019784361124,-0.41896742582321167,-0.508989155292511,0.26313677430152893,-0.8195663690567017,-0.08746165037155151,0.036240607500076294,-0.03956449031829834,0.9173303049725203,-0.059560447040937915,-0.29439659272454166,0.2613202189810163
1728063380435954400,3.909954345703125,-0.14631928503513336,-0.024446191266179085,-0.44071826338768005,-0.5101673603057861,0.2619509994983673,-0.8192135691642761,-0.08005785942077637,0.040523916482925415,-0.05998259782791138,0.9178434072759469,-0.05948114247424597,-0.2947120786011616,0.2591720288187498
1728063380445985300,3.9199853515625,-0.13281652331352234,-0.03805973753333092,-0.4881795346736908,-0.5116737484931946,0.2607036232948303,-0.8186718225479126,-0.07746809720993042,0.0346759557723999,-0.028007864952087402,0.9183525007009552,-0.05938489043932273,-0.29519063252168254,0.25683591018536633
1728063380456015400,3.930015380859375,-0.17031389474868774,-0.04071730747818947,-0.5040745735168457,-0.5132945775985718,0.2593715786933899,-0.8180800676345825,-0.07862436771392822,0.01623263955116272,-0.0021713972091674805,0.918887544295073,-0.0592851465988726,-0.2957113898958531,0.2543337960463431
1728063380466046200,3.940046142578125,-0.15245260298252106,-0.04212771728634834,-0.5152574777603149,-0.5149590969085693,0.25815868377685547,-0.8174173831939697,-0.08284974098205566,0.0071763694286346436,0.06254982948303223,0.9194184460904533,-0.05926798727091654,-0.2962745493196152,0.2517504628547187
1728063380476076300,3.950076171875,-0.13851569592952728,-0.01510680466890335,-0.5477134585380554,-0.5166133046150208,0.2565777897834778,-0.816871166229248,-0.08258408308029175,0.008070588111877441,0.10585737228393555,0.919993113903182,-0.05909275522739577,-0.2967700273486958,0.24909510936472035
1728063380486107400,3.960107421875,-0.10702034831047058,0.0052266959100961685,-0.5767224431037903,-0.5180760622024536,0.25468817353248596,-0.816536009311676,-0.09201610088348389,0.011989623308181763,0.07141882181167603,0.9206466575719162,-0.05882683893611049,-0.2971050067089963,0.24632825380538928
1728063380496138200,3.97013818359375,-0.05917000398039818,0.0191933773458004,-0.6169558763504028,-0.5194803476333618,0.25225716829299927,-0.8163984417915344,-0.10094195604324341,0.03625595569610596,0.028724491596221924,0.9213779013325415,-0.058336873047776475,-0.297317300668992,0.24343783400786048
1728063380506168300,3.980168212890625,-0.02847147546708584,-0.017251450568437576,-0.6104487180709839,-0.5209754109382629,0.24943408370018005,-0.8163132071495056,-0.10077446699142456,0.05664190649986267,-0.014039576053619385,0.9221180270977485,-0.05764262405932569,-0.29752431907904714,0.24053072781824147
1728063380516199400,3.990199462890625,0.04005731642246246,-0.07018843293190002,-0.6264473795890808,-0.522900402545929,0.24615631997585297,-0.8160773515701294,-0.08923643827438354,0.06358177959918976,-0.030587077140808105,0.9227861428173406,-0.056634609919642934,-0.297915842887488,0.23770648566407113
1728063380526230300,4.000230224609375,0.05856362357735634,-0.07325878739356995,-0.6777281761169434,-0.525098979473114,0.2423045039176941,-0.8158183693885803,-0.07737904787063599,0.04778027534484863,-0.06948131322860718,0.9234600957915337,-0.05532800178544082,-0.2983783061562228,0.23479940982528277
1728063380536260400,4.01026025390625,0.03994313254952431,-0.06717143952846527,-0.7224926948547363,-0.5273554921150208,0.23819299042224884,-0.8155736327171326,-0.08514755964279175,0.016766071319580078,-0.05973160266876221,0.9241898821582923,-0.05396405162642496,-0.29883285233911244,0.23164610208700845
1728063380546291500,4.02029150390625,-0.08124694228172302,-0.0811583623290062,-0.7539539337158203,-0.5297201871871948,0.2343737632036209,-0.8151475191116333,-0.0944100022315979,-0.004423856735229492,-0.0168989896774292,0.9249262027633112,-0.052824636664085496,-0.2993923849583881,0.22822220381756753
1728063380556322300,4.030322265625,-0.20145177841186523,-0.06473550200462341,-0.7140153050422668,-0.5320127010345459,0.23168568313121796,-0.8144226670265198,-0.0936892032623291,-0.007701978087425232,0.0297393798828125,0.9256227162781159,-0.05234536144840872,-0.30008104949111986,0.2245752874404117
1728063380566352400,4.040352294921875,-0.09945191442966461,-0.12707370519638062,-0.7198691964149475,-0.5344418287277222,0.22924630343914032,-0.8135219812393188,-0.09501373767852783,0.009706273674964905,0.08641016483306885,0.9262232784181745,-0.05193482280066413,-0.3009016073025747,0.2210686533300577
1728063380576383200,4.05038330078125,-0.01969929039478302,-0.10461356490850449,-0.8082209229469299,-0.5371593832969666,0.22554248571395874,-0.8127671480178833,-0.08355289697647095,0.0038733482360839844,-0.0034254789352416992,0.9268713960488598,-0.050879610215226044,-0.3017079480985085,0.21746987124492623
1728063380586413600,4.06041357421875,-0.03305211290717125,-0.12097629904747009,-0.8354669213294983,-0.5398951768875122,0.2213410884141922,-0.8121091723442078,-0.08827865123748779,0.010607704520225525,-0.06508809328079224,0.9275905288626126,-0.04965787716056292,-0.30245579573273074,0.21361260742335497
1728063380596443600,4.070443603515625,0.07050350308418274,-0.20788195729255676,-0.8416856527328491,-0.5430765151977539,0.21663987636566162,-0.8112552165985107,-0.07948201894760132,0.0445600301027298,0.03620028495788574,0.9282357997650948,-0.04812600421573449,-0.30340776708962003,0.2097759637547786
1728063380606474800,4.080474853515625,0.06415292620658875,-0.23170100152492523,-0.8359084725379944,-0.5467101335525513,0.21142883598804474,-0.8101887702941895,-0.06950074434280396,0.061489805579185486,-0.006751537322998047,0.928788212792095,-0.04625803364530038,-0.3045747812006416,0.20602659565562084
