time,seconds_elapsed,rotationRateX,rotationRateY,rotationRateZ,gravityX,gravityY,gravityZ,accelerationX,accelerationY,accelerationZ,quaternionW,quaternionX,quaternionY,quaternionZ
1729787444548342000,0.112342041015625,-0.02757979743182659,-0.8838508725166321,-0.30891892313957214,-0.3633853793144226,-0.18820041418075562,-0.9124317765235901,0.06902804970741272,-0.17608793079853058,0.1422291398048401,0.9778629916733298,0.09623045937233196,-0.185805871010797,-6.247312678297774e-17
1729787444558373000,0.122373046875,0.15856149792671204,-0.7380908727645874,-0.35657989978790283,-0.37028416991233826,-0.18995672464370728,-0.909288763999939,0.05715855956077576,-0.22023004293441772,0.15860211849212646,0.9770573362991101,0.09684367036349248,-0.1896758002455716,-0.0018797364123374477
1729787444568404200,0.132404296875,0.18966323137283325,-0.6551805734634399,-0.4710044860839844,-0.3758297562599182,-0.1931864321231842,-0.9063283205032349,0.050390273332595825,-0.24158227443695068,0.15608417987823486,0.9762927103347446,0.09812795894639877,-0.19289049823357796,-0.004103913658545129
1729787444578435000,0.14243505859375,0.22928014397621155,-0.6173626780509949,-0.38538306951522827,-0.3807913064956665,-0.19668065011501312,-0.9035013914108276,-0.006781935691833496,-0.2889608144760132,0.15994060039520264,0.9755564371063866,0.09952769012391244,-0.19581510308444108,-0.006360307069166321
1729787444588466200,0.152466064453125,0.29993700981140137,-0.5385583639144897,-0.2371153086423874,-0.3854212760925293,-0.20023466646671295,-0.9007533192634583,0.023467540740966797,-0.27776217460632324,0.20693618059158325,0.9748406029347148,0.1010895906092127,-0.1985049921947837,-0.007914632724931342
1729787444598497300,0.162497314453125,0.4377003312110901,-0.4416342079639435,-0.10296735167503357,-0.3895440101623535,-0.20414161682128906,-0.8980989456176758,0.09254693984985352,-0.21016503870487213,0.17475605010986328,0.9741536273414878,0.10300155065922594,-0.20085123062858531,-0.008620672230744919
1729787444608528100,0.172528076171875,0.6035657525062561,-0.2844994366168976,-0.024637658149003983,-0.3927624225616455,-0.20907694101333618,-0.89555823802948,0.06198239326477051,-0.151335671544075,0.12283790111541748,0.973502157707193,0.10560827378177606,-0.2026518741805318,-0.0085298255442653
1729787444618559200,0.182559326171875,0.6957524418830872,-0.1825248748064041,-0.04603136330842972,-0.3946799635887146,-0.21498410403728485,-0.8933138251304626,-0.005237668752670288,-0.11477358639240265,0.06935447454452515,0.9729286839039224,0.10877319721775106,-0.20374367678317654,-0.00816462700905173
1729787444628590000,0.192590087890625,0.8770862817764282,-0.18642668426036835,0.004474686458706856,-0.3962664306163788,-0.22209683060646057,-0.890868067741394,-0.045307666063308716,-0.03930148482322693,-0.019028782844543457,0.972304630507135,0.112609682269427,-0.20465829729020557,-0.007610258530833863
1729787444638621200,0.20262109375,1.0428845882415771,-0.18946751952171326,0.11647126078605652,-0.3981303572654724,-0.23045070469379425,-0.8879103064537048,-0.007310926914215088,0.03117091953754425,-0.060926973819732666,0.9715523887604813,0.11724155825980656,-0.20566786715854501,-0.006413447155275503
1729787444648652000,0.212652099609375,1.2105276584625244,-0.212835431098938,0.1582900732755661,-0.40022778511047363,-0.23983702063560486,-0.8844749331474304,0.07318615913391113,0.03623899817466736,-0.09462052583694458,0.9706779462383756,0.12254449840607788,-0.20674953883346897,-0.004678457235203851
1729787444658683100,0.22268310546875,1.3995760679244995,-0.25135117769241333,0.1771889328956604,-0.4027029871940613,-0.25072184205055237,-0.8803231716156006,0.10547703504562378,0.06068888306617737,-0.11804407835006714,0.9696157086643197,0.1287204558355256,-0.20801312677350411,-0.002651500189333565
1729787444668714000,0.2327138671875,1.496884822845459,-0.3030535578727722,0.18849964439868927,-0.40562698245048523,-0.2627703547477722,-0.8754532933235168,0.11247509717941284,0.07758969068527222,-0.09705030918121338,0.9683628418392822,0.13558835114324333,-0.20949734823999663,-0.00041271266361191214
1729787444678744000,0.242744140625,1.5076816082000732,-0.35162287950515747,0.21047791838645935,-0.4090955853462219,-0.2751114070415497,-0.8700313568115234,0.11956003308296204,0.0653488039970398,-0.09070777893066406,0.9669602287292063,0.14267645716069585,-0.21125281699790002,0.001925481199548628
1729787444688775200,0.252775146484375,1.4378753900527954,-0.3727012574672699,0.23902806639671326,-0.4128684997558594,-0.28700682520866394,-0.8643880486488342,0.10799786448478699,0.06332820653915405,-0.06259864568710327,0.9654923814595479,0.14958221780004735,-0.21314581066049726,0.004302607191615567
1729787444698806000,0.262805908203125,1.2114571332931519,-0.3010554313659668,0.11984602361917496,-0.416481077671051,-0.2977087199687958,-0.8590186238288879,0.07622534036636353,0.020532816648483276,-0.008809685707092285,0.9640895782012712,0.15582077712477732,-0.21496642213565206,0.0063769270941837096
1729787444708837000,0.272837158203125,0.9966204762458801,-0.13548268377780914,-0.022504732012748718,-0.41853705048561096,-0.30692872405052185,-0.8547640442848206,0.04294195771217346,-0.05008113384246826,0.07108789682388306,0.9629764936542907,0.16107795234808184,-0.21603677001692148,0.007637214143313159
1729787444718868000,0.282867919921875,0.7885245084762573,-0.004281853325664997,-0.08735616505146027,-0.4188954532146454,-0.3148045837879181,-0.8517186641693115,-0.032490074634552,-0.09004160761833191,0.18770194053649902,0.9621802959525961,0.16544844243675774,-0.21625790640052456,0.008272226442607033
1729787444728899000,0.292899169921875,0.7152298092842102,-0.06930186599493027,-0.03455234318971634,-0.4189629852771759,-0.32134711742401123,-0.8492385149002075,-0.0374579131603241,-0.12573543190956116,0.22225487232208252,0.961531780448434,0.169063218612525,-0.21632929546297705,0.008718656648665389
1729787444738930000,0.302929931640625,0.7094064354896545,-0.10654036700725555,0.0750388652086258,-0.4198581576347351,-0.32734209299087524,-0.846502423286438,0.05964389443397522,-0.10730454325675964,0.151952862739563,0.9608122049272247,0.1725008234809547,-0.21677700086053295,0.00954830376673715
1729787444748961300,0.312961181640625,0.6976805329322815,-0.1499032974243164,0.0996352881193161,-0.4212895631790161,-0.3328406810760498,-0.8436422348022461,0.12085923552513123,-0.06330803036689758,0.018157005310058594,0.9600562880788431,0.17575445645944437,-0.21746090054689843,0.01064024451542204
1729787444758992100,0.3229921875,0.7689887881278992,-0.19958993792533875,0.06225809454917908,-0.4230653941631317,-0.3386690616607666,-0.8404278755187988,0.08590716123580933,-0.029006749391555786,-0.09191465377807617,0.9592066667014557,0.1791970610250834,-0.21834487280297374,0.011690144327623627
1729787444769023200,0.333023193359375,0.7986921072006226,-0.2445153295993805,0.027707573026418686,-0.4250919818878174,-0.3450762927532196,-0.8367910385131836,0.035947054624557495,-0.023408204317092896,-0.1322641372680664,0.9582476302409045,0.18292706910413956,-0.21941324352279637,0.012539257328780806
1729787444779054000,0.34305419921875,0.8198140859603882,-0.2896682918071747,0.07582929730415344,-0.4275158941745758,-0.3516324758529663,-0.8328173756599426,0.025233149528503418,-0.011679291725158691,-0.1518017053604126,0.9571982572958655,0.1867748856117124,-0.22069535450090555,0.013431880814658993
1729787444789085200,0.353085205078125,0.788369357585907,-0.3448697626590729,0.06297634541988373,-0.43044209480285645,-0.35799723863601685,-0.8285877108573914,0.048056840896606445,-0.009586989879608154,-0.13410449028015137,0.9560788199865821,0.19056803225453953,-0.22223852703438984,0.01439644610137847
1729787444799116000,0.363115966796875,0.6577690839767456,-0.36119380593299866,-0.041436612606048584,-0.4334574043750763,-0.36401596665382385,-0.8243828415870667,0.0820779800415039,-0.050626397132873535,-0.11520761251449585,0.954970240446647,0.1940940894452493,-0.22391083646690751,0.014943889898659864
1729787444809147100,0.373147216796875,0.35699963569641113,-0.32646167278289795,-0.14399708807468414,-0.4360016882419586,-0.368694007396698,-0.8209551572799683,0.08630073070526123,-0.12393602728843689,-0.10117924213409424,0.954075819116865,0.19670233278935187,-0.22545648689619802,0.014734243772290672
1729787444819178000,0.383177978515625,-0.054718274623155594,-0.269235223531723,-0.20750974118709564,-0.4378829598426819,-0.37066030502319336,-0.8190662264823914,0.0880294144153595,-0.21269848942756653,-0.07052117586135864,0.953594604819081,0.1976311268149384,-0.22673513043288013,0.013803903137650675
1729787444829209000,0.393208984375,-0.3748515546321869,-0.2591969668865204,-0.29981330037117004,-0.43900829553604126,-0.3698074221611023,-0.8188493251800537,0.10618355870246887,-0.2834976315498352,0.014497518539428711,0.9535614265885579,0.19678674435689608,-0.22770666428289071,0.012052922296105521
1729787444839240200,0.403240234375,-0.23061446845531464,-0.43312740325927734,-0.2864663302898407,-0.44074729084968567,-0.36845725774765015,-0.8185237646102905,0.13398456573486328,-0.27343425154685974,0.06057393550872803,0.9535007747576015,0.19559412189278802,-0.22908747519657524,0.009911128753321887
1729787444849271000,0.41327099609375,-0.0433039665222168,-0.33534571528434753,-0.35772427916526794,-0.442920982837677,-0.3686962127685547,-0.8172417879104614,0.16165569424629211,-0.1892566680908203,0.062175869941711426,0.9531832085040215,0.19532171979355142,-0.23071306655551294,0.00792879281440293
1729787444859302100,0.42330224609375,-0.07241670787334442,-0.09751017391681671,-0.20566177368164062,-0.4430462718009949,-0.36998680233955383,-0.8165903687477112,0.15000119805335999,-0.08060526847839355,0.03526413440704346,0.9530276496277672,0.19551927560583604,-0.2312509911878327,0.005802704770613185
1729787444869333000,0.4333330078125,-0.07444417476654053,-0.2943342924118042,0.04987625777721405,-0.4445568025112152,-0.36944204568862915,-0.8160158395767212,0.04395255446434021,-0.04268258810043335,0.06432211399078369,0.952879717465922,0.19515161956036473,-0.23218080316075967,0.0053190909154668614
1729787444879364000,0.443364013671875,-0.09577802568674088,-0.32029852271080017,-0.464089572429657,-0.44605451822280884,-0.3696752190589905,-0.8150924444198608,0.17087748646736145,-0.06195014715194702,0.08535611629486084,0.9526440356882623,0.1949985732234999,-0.2333009637483047,0.003971743476886738
1729787444889395000,0.45339501953125,-0.25052765011787415,-0.2414175420999527,-0.6114004850387573,-0.4464116394519806,-0.37075865268707275,-0.8144045472145081,0.2026829719543457,-0.13885438442230225,-0.03355687856674194,0.9524714546283758,0.19482370127659415,-0.23418252724889385,0.0007886377382519983
1729787444899426000,0.463426025390625,-0.14008064568042755,-0.26035547256469727,-0.26542389392852783,-0.4467427134513855,-0.370963454246521,-0.814129650592804,-0.03656420111656189,-0.1601034700870514,-0.02408134937286377,0.9523977841452775,0.1942974654921742,-0.23491203101624297,-0.0018443042763620426
1729787444909456100,0.4734560546875,-0.03372624143958092,-0.11880848556756973,0.07112135738134384,-0.44812020659446716,-0.37075021862983704,-0.8134694695472717,0.008712828159332275,-0.06420159339904785,-0.020316481590270996,0.9522229201212763,0.19405249390362486,-0.2358153635349879,-0.00251837918508292
1729787444919487000,0.483487060546875,-0.10446885228157043,0.10497421771287918,0.3848657011985779,-0.4489160478115082,-0.3692058026790619,-0.8137330412864685,0.04135376214981079,0.013141930103302002,-0.06112957000732422,0.9522941735905238,0.19346647687884377,-0.2360173572444206,-0.0015503037828355365
1729787444929518000,0.49351806640625,-0.026729051023721695,0.032928526401519775,0.3646131753921509,-0.44995754957199097,-0.366902232170105,-0.8141995668411255,-0.011330902576446533,0.11978614330291748,-0.0038240551948547363,0.9524178438199539,0.19267479933336815,-0.23617076385255992,0.00023628068455730812
1729787444939549200,0.503549072265625,-0.10343828052282333,0.11780176311731339,0.33235830068588257,-0.45071205496788025,-0.36492905020713806,-0.8146689534187317,0.05599766969680786,0.11939987540245056,0.06901770830154419,0.9525391011385544,0.19204257153692858,-0.23618887502313726,0.001962547568065503
1729787444949580300,0.513580322265625,-0.39357343316078186,0.2182988077402115,0.2316172868013382,-0.4504133462905884,-0.3616037666797638,-0.816315233707428,0.05664500594139099,-0.006651848554611206,0.09809929132461548,0.9529677025079064,0.1905176084169635,-0.23568076197841764,0.0032044954619589116
1729787444959611100,0.523611083984375,-0.6201240420341492,0.40127259492874146,0.3469470739364624,-0.44892755150794983,-0.35635629296302795,-0.8194353580474854,0.04624807834625244,-0.14137014746665955,0.17345452308654785,0.9537830033225608,0.1877906858556167,-0.23455698114036988,0.003979476459989055
1729787444969642200,0.533642333984375,-1.0332709550857544,0.4360731840133667,1.1902769804000854,-0.4480102062225342,-0.34638890624046326,-0.82419753074646,0.11762693524360657,-0.21565333008766174,0.18546468019485474,0.9550141950925426,0.1830229695293439,-0.2332462523144903,0.00683864037733951
1729787444979673000,0.543673095703125,-1.2854746580123901,-0.13774196803569794,1.286020278930664,-0.4510943293571472,-0.33051732182502747,-0.8290188312530518,0.43052545189857483,-0.18399378657341003,0.11380887031555176,0.956224139016381,0.17576442085288926,-0.23366100197679074,0.01203245011842563
1729787444989704200,0.5537041015625,-1.4932550191879272,-0.1496146023273468,0.7863276600837708,-0.4558049440383911,-0.3145488500595093,-0.8326469659805298,0.3871861398220062,-0.1775623857975006,0.06500780582427979,0.9571297807491207,0.16801838442281067,-0.2354704942599993,0.015037893911555902
1729787444999735000,0.563735107421875,-1.8602042198181152,-0.35547545552253723,1.0564382076263428,-0.460101455450058,-0.29614418745040894,-0.8370217084884644,0.13070997595787048,-0.16668543219566345,-0.024336934089660645,0.958233362573812,0.1588124651718342,-0.237208253241796,0.017315207387288437
1729787445009766100,0.57376611328125,-1.9457108974456787,-0.5888245701789856,1.3738579750061035,-0.46779635548591614,-0.27440473437309265,-0.8401598930358887,0.34256744384765625,-0.057016193866729736,0.017116069793701172,0.9589896475631419,0.1482081004327669,-0.24073721458216646,0.020469095875483876
1729787445019797000,0.583796875,-2.0403547286987305,-0.7036780118942261,1.5717313289642334,-0.47711578011512756,-0.25049063563346863,-0.8423864841461182,0.2977029085159302,-0.04368355870246887,0.032984018325805664,0.9594674575984018,0.13687397874782312,-0.2450964518501742,0.024809839760640696
1729787445029828000,0.593828125,-2.0688936710357666,-0.7932789921760559,1.3250828981399536,-0.48713868856430054,-0.2259065955877304,-0.8436006903648376,0.20692625641822815,-0.08181743323802948,0.035464704036712646,0.9596710420949431,0.12521509349744592,-0.2500416507673708,0.028843214974461864
1729787445039859000,0.60385888671875,-1.999579668045044,-0.5826760530471802,1.1311150789260864,-0.4956553280353546,-0.20266403257846832,-0.8445431590080261,0.014789819717407227,-0.15965592861175537,0.09478729963302612,0.9598260006188448,0.11397991721184456,-0.25443468608839787,0.03171294653656278
1729787445049890000,0.61389013671875,-2.046628713607788,-0.3911021053791046,1.1595126390457153,-0.5019223690032959,-0.17983469367027283,-0.8460103273391724,-0.04797393083572388,-0.22588126361370087,0.08430683612823486,0.9601180686494738,0.10286718684351899,-0.2577075432403271,0.03433076036718
1729787445059921200,0.623921142578125,-2.060685873031616,-0.3520067632198334,1.3162503242492676,-0.5070695281028748,-0.15609166026115417,-0.8476532101631165,0.03581702709197998,-0.22868923842906952,0.10815125703811646,0.960429862911289,0.09141145614259731,-0.2604176299878339,0.037433960723040116
1729787445069952000,0.633951904296875,-2.021780252456665,-0.4103715121746063,1.429332971572876,-0.5123261213302612,-0.13180005550384521,-0.8486169576644897,0.09963685274124146,-0.21317066252231598,0.15684449672698975,0.9605237826630232,0.0799178913440811,-0.2632577632378869,0.041263777373076606
1729787445079983000,0.643983154296875,-1.9964503049850464,-0.41815701127052307,1.3452153205871582,-0.517474889755249,-0.1075071394443512,-0.8489181399345398,0.11690109968185425,-0.1753450483083725,0.1579849123954773,0.9604258092657935,0.06849047276239728,-0.2661766029930425,0.04518221262676499
1729787445090014200,0.65401416015625,-1.9629640579223633,-0.43111303448677063,1.216339111328125,-0.5224863886833191,-0.08384081721305847,-0.8485155701637268,0.09458410739898682,-0.08908705413341522,0.23593628406524658,0.9601591472926865,0.057257474441249165,-0.2691909832749033,0.04850043054826374
1729787445100045300,0.66404541015625,-1.620822787284851,-0.3681511878967285,1.1538070440292358,-0.526637077331543,-0.0622466616332531,-0.8478082418441772,0.0827435851097107,-0.002023369073867798,0.28047120571136475,0.9598097685428598,0.04705828381834683,-0.27181132570499056,0.05166697854968264
1729787445110076200,0.674076171875,-1.1748902797698975,-0.35309740900993347,1.1495009660720825,-0.5303335189819336,-0.0443962961435318,-0.8466258645057678,0.1141958236694336,0.053139589726924896,0.17052417993545532,0.9593065283498388,0.038908588185510254,-0.2741773023440014,0.05517274378309857
1729787445120107300,0.684107177734375,-0.6861975193023682,-0.21235713362693787,1.2371094226837158,-0.5332434773445129,-0.030008237808942795,-0.8454294204711914,0.08858710527420044,0.1452120989561081,0.24820047616958618,0.958733025233518,0.032795885388407456,-0.2760610683344649,0.05954617181366421
1729787445130137000,0.69413720703125,-0.13354577124118805,-0.01187170296907425,1.3637232780456543,-0.5345324873924255,-0.019610438495874405,-0.8449203968048096,0.05777156352996826,0.2043180912733078,0.27053380012512207,0.9582309557350617,0.029082193746423825,-0.27693683965566757,0.06522151105882809
1729787445140168200,0.704168212890625,0.18862973153591156,0.24920020997524261,1.5132062435150146,-0.533767819404602,-0.012276079505681992,-0.8455419540405273,0.004165768623352051,0.2245563566684723,0.23514461517333984,0.9578917781033653,0.02725629619085604,-0.27656124351232475,0.0722101989824875
1729787445150199300,0.71419921875,0.2672364115715027,0.41299155354499817,1.621065616607666,-0.5310183167457581,-0.005901647731661797,-0.8473397493362427,-0.026873528957366943,0.19588883221149445,0.14876186847686768,0.9577304971623057,0.02609546543680843,-0.27504388349832115,0.08013848188535816
1729787445160230100,0.724230224609375,0.09110517054796219,0.5305960178375244,1.6216762065887451,-0.5270383358001709,0.001039644586853683,-0.8498408794403076,-0.020096123218536377,0.08650001883506775,0.13086199760437012,0.9576643769327946,0.02462328938143144,-0.2728978846294834,0.08831387391821348
1729787445170261200,0.73426123046875,-0.35872751474380493,0.5456919074058533,1.5270317792892456,-0.5222108960151672,0.010458915494382381,-0.8527522683143616,-0.008291423320770264,-0.03734489902853966,0.15570026636123657,0.9577111296085102,0.021578035802349304,-0.27047781787627834,0.0957379174000713
1729787445180292000,0.7442919921875,-0.8358264565467834,0.6022239923477173,1.3821779489517212,-0.5170459151268005,0.02330656535923481,-0.8556402921676636,-0.0020581483840942383,-0.11102934181690216,0.24657046794891357,0.9578163096950076,0.01639626934155165,-0.2681622790126696,0.10201992948237044
1729787445190323200,0.7543232421875,-1.1487606763839722,0.6302979588508606,1.2299617528915405,-0.5113484263420105,0.03862379118800163,-0.858505129814148,0.027904152870178223,-0.14686962962150574,0.22448718547821045,0.9580204724756083,0.009530628137143312,-0.26581311782224043,0.10700161061675073
1729787445200354000,0.76435400390625,-1.4325557947158813,0.6141350269317627,1.1076678037643433,-0.5053845047950745,0.05568091198801994,-0.8610959053039551,0.03864866495132446,-0.07936255633831024,0.18528413772583008,0.9582565343581599,0.0014377454005314858,-0.26353365559214853,0.11087079224736361
1729787445210385200,0.77438525390625,-1.6002180576324463,0.5090922713279724,1.164994478225708,-0.499740868806839,0.07459532469511032,-0.8629569411277771,0.0382845401763916,0.06647218763828278,0.2310447096824646,0.9583430302305893,-0.007720632500527833,-0.26165230635228715,0.11426861724258737
1729787445220416000,0.784416015625,-1.568781852722168,0.3839525878429413,1.2396897077560425,-0.4948958456516266,0.09438422322273254,-0.8638111352920532,0.07688131928443909,0.16211602091789246,0.180736243724823,0.9581180126357177,-0.01719667937876308,-0.260381822259254,0.11796392562316431
1729787445230447000,0.794447021484375,-1.5117449760437012,0.3372199833393097,1.1994379758834839,-0.49050796031951904,0.11380703002214432,-0.8639733195304871,0.07672011852264404,0.19709080457687378,0.09718871116638184,0.9576802341142465,-0.02642034805003164,-0.2594519201574746,0.12180010014231747
1729787445240478000,0.80447802734375,-1.3009690046310425,0.2808557152748108,1.1188461780548096,-0.48635774850845337,0.13179774582386017,-0.8637624382972717,0.02847197651863098,0.21822363138198853,0.07445579767227173,0.9571495261428384,-0.03494028117342577,-0.25864641121815213,0.12548327125590472
1729787445250509000,0.814509033203125,-1.0388768911361694,0.1967533528804779,1.0203022956848145,-0.4828258752822876,0.14704889059066772,-0.8632820248603821,0.00022086501121520996,0.19723516702651978,0.01564103364944458,0.9565441742796187,-0.04203894587407376,-0.258053714800319,0.12909071246202708
1729787445260540000,0.824539794921875,-0.9010730981826782,0.1322018951177597,0.9182965755462646,-0.47987857460975647,0.160121887922287,-0.8625993132591248,-0.024546504020690918,0.2097664326429367,-0.055476248264312744,0.9559088958730235,-0.04805703741873161,-0.25766423814427536,0.13243123881123453
1729787445270571000,0.834571044921875,-0.6761385202407837,0.00080153439193964,0.889876663684845,-0.4778016209602356,0.17127376794815063,-0.8616095185279846,-0.07096549868583679,0.25253909826278687,-0.02646726369857788,0.9551898519971542,-0.053048940316056926,-0.25764520966624577,0.13571017430071033
1729787445280602000,0.84460205078125,-0.3560622036457062,-0.11635182797908783,0.8102990388870239,-0.47684094309806824,0.17997215688228607,-0.8603678345680237,-0.08759692311286926,0.2730460464954376,-0.03111165761947632,0.9543734147017314,-0.056666564102579864,-0.2580794319126307,0.13912390186989418
1729787445290633200,0.85463330078125,-0.03669033944606781,-0.04442889988422394,0.7954737544059753,-0.4760631024837494,0.18533051013946533,-0.8596606850624084,-0.1207844614982605,0.24243438243865967,0.04018747806549072,0.9536545203343052,-0.05850002871116661,-0.2583551708922614,0.14273545057267908
1729787445300664000,0.8646640625,-0.03299447149038315,-0.05977052077651024,0.7960324883460999,-0.47497978806495667,0.1893884688615799,-0.8593754768371582,-0.12044870853424072,0.1818578988313675,0.0983433723449707,0.9530015501125092,-0.059633439740027605,-0.25837203823125116,0.14654632499840875
1729787445310695200,0.874695068359375,-0.1366577446460724,-0.056367795914411545,0.8123507499694824,-0.47395455837249756,0.19379611313343048,-0.8589587807655334,-0.10284292697906494,0.11792568862438202,0.14272648096084595,0.9523098249642499,-0.0609620906863784,-0.25846517413195313,0.15028431258540137
1729787445320726300,0.884726318359375,-0.41023463010787964,-0.08700160682201385,0.7673057317733765,-0.4728916883468628,0.20000703632831573,-0.8581203818321228,-0.09116470813751221,-0.016703203320503235,0.2949337959289551,0.951528431341349,-0.06328041647353783,-0.2587187482229103,0.15379791671390752
1729787445330757000,0.894757080078125,-0.9931468367576599,-0.27639392018318176,0.35464948415756226,-0.47325262427330017,0.20857049524784088,-0.8558798432350159,-0.05813470482826233,-0.10647392272949219,0.40283119678497314,0.9506214261490061,-0.06711696297271215,-0.25991418257307897,0.1557530489988477
1729787445340788200,0.904788330078125,-1.4448717832565308,-0.32801246643066406,-0.026081625372171402,-0.4756850302219391,0.21996791660785675,-0.8516677021980286,-0.1629105806350708,-0.03609949350357056,0.46163779497146606,0.949652415252335,-0.07302024744225025,-0.2623627213848036,0.1549004641677804
1729787445350819000,0.914819091796875,-1.37909996509552,-0.11957935988903046,-0.001758974976837635,-0.4777940809726715,0.2320612072944641,-0.8472664952278137,-0.2867017984390259,0.12189693748950958,0.5517495274543762,0.9488145759769895,-0.07964152851355673,-0.26462046792515376,0.15291924523817615
1729787445360850200,0.92485009765625,-0.9637053608894348,0.23957565426826477,0.2290782332420349,-0.4770711064338684,0.24269339442253113,-0.8446911573410034,-0.2887828052043915,0.28417736291885376,0.4139965772628784,0.9483115982829008,-0.08549813246064264,-0.26522537304757116,0.15182494627715482
1729787445370880000,0.9348798828125,-0.29090508818626404,0.5344371795654297,0.45606371760368347,-0.47286316752433777,0.24974966049194336,-0.8450003266334534,-0.2760992646217346,0.37946179509162903,0.29484468698501587,0.9482909419617939,-0.0892909542154927,-0.2636796608534836,0.15246161327625504
1729787445380911000,0.9449111328125,0.33550187945365906,0.6790281534194946,0.5090156197547913,-0.4663991332054138,0.2517749071121216,-0.8479865789413452,-0.23591715097427368,0.3235882520675659,0.206659734249115,0.9487330887546604,-0.09024166791672246,-0.2605055599692998,0.15459244837434272
1729787445390942200,0.954942138671875,0.6714804172515869,0.7773118019104004,0.44704970717430115,-0.4590029716491699,0.24952463805675507,-0.8526744246482849,-0.18362092971801758,0.18023917078971863,0.1771831512451172,0.9495341031789181,-0.08893182269768504,-0.25642524184427357,0.15723304215455947
1729787445400973000,0.96497314453125,0.6479154229164124,0.9090570211410522,0.44527631998062134,-0.45070257782936096,0.2456967532634735,-0.858195960521698,-0.13479244709014893,0.007446572184562683,0.3126789927482605,0.9505564997443552,-0.08692312861936181,-0.2516870806998864,0.1598136592757768
1729787445411004200,0.975004150390625,0.2836434543132782,1.0497548580169678,0.49646544456481934,-0.4410875737667084,0.24360835552215576,-0.8637689352035522,-0.08320444822311401,-0.16819940507411957,0.49456727504730225,0.9516049330794377,-0.08597739880255872,-0.2464212204349785,0.162273617260368
1729787445421035000,0.985034912109375,-0.5825415253639221,1.250521183013916,0.4299338459968567,-0.43000754714012146,0.2467392086982727,-0.8684545755386353,-0.07244914770126343,-0.3137100338935852,0.5681768655776978,0.9525577551532027,-0.08807158442810473,-0.24086535068879533,0.16389378549365302
1729787445431066000,0.995066162109375,-1.696324348449707,1.4937695264816284,0.195057675242424,-0.41716885566711426,0.2579937279224396,-0.8714410066604614,-0.12897372245788574,-0.3433056175708771,0.6042290925979614,0.9534131482078491,-0.094995237458358,-0.23506468511738665,0.16347483975819138
1729787445441097000,1.005096923828125,-2.411562204360962,1.3333076238632202,-0.4489556550979614,-0.40485072135925293,0.27608609199523926,-0.8717066049575806,-0.18264317512512207,-0.21282312273979187,0.6017023324966431,0.95411229083463,-0.10618035352420388,-0.22994008677100336,0.15975929425850816
1729787445451128000,1.015128173828125,-2.701756000518799,0.820078432559967,-0.13996745645999908,-0.39636269211769104,0.2970314621925354,-0.868716835975647,-0.27316248416900635,0.1562919318675995,0.4256168603897095,0.954232707135498,-0.11895400768720271,-0.22691745115619963,0.15426722953037464
1729787445461159000,1.025158935546875,-1.9141592979431152,0.21033628284931183,0.8811231255531311,-0.3907446265220642,0.3191027343273163,-0.8634188771247864,0.02091732621192932,0.7013745903968811,-0.8119503855705261,0.9530191374431024,-0.1310798809591022,-0.226072189264679,0.15317998680848938
1729787445471190300,1.035190185546875,-1.2783108949661255,-0.014629991725087166,0.8061029314994812,-0.3875419497489929,0.33616483211517334,-0.8583731651306152,0.47125163674354553,0.5628830194473267,-1.4797768592834473,0.9512690042710018,-0.13958630263328378,-0.2265591989200683,0.15580163935348182
1729787445481221000,1.04522119140625,-0.8642664551734924,0.513915479183197,0.01731858029961586,-0.38369426131248474,0.34718626737594604,-0.855710506439209,0.24070414900779724,0.17699894309043884,-0.914431095123291,0.950478975788968,-0.1454983031380298,-0.2257764177322425,0.15634960296077616
1729787445491252200,1.055252197265625,-0.3386809527873993,0.2539946436882019,-0.3878539502620697,-0.38103973865509033,0.35139355063438416,-0.8551791310310364,0.06612882018089294,0.12516897916793823,-0.8352505564689636,0.9506788015112069,-0.1483842000564678,-0.22448291256978167,0.15427035197172081
1729787445501283000,1.065282958984375,-0.04505099728703499,-0.1686381995677948,-0.20065264403820038,-0.3816528618335724,0.35170164704322815,-0.8547789454460144,0.1878814697265625,0.07966434955596924,-0.5602447986602783,0.9508497536421865,-0.14890754558098898,-0.2245819574938045,0.15255955916193642
1729787445511312600,1.075312744140625,0.3098013699054718,-0.5557425022125244,-0.059608958661556244,-0.3853554427623749,0.35027503967285156,-0.8537028431892395,0.22407004237174988,0.07662013173103333,-0.3345295190811157,0.9505895457525525,-0.14793791950359902,-0.22641319667063217,0.15241724384479802
1729787445521343700,1.08534375,0.5962711572647095,-0.4917755722999573,-0.07076946645975113,-0.3902621567249298,0.34597182273864746,-0.8532285690307617,0.01251557469367981,0.06241443753242493,-0.20336627960205078,0.9503589269778422,-0.14518318610551173,-0.228708472290593,0.15307596732682943
1729787445531374600,1.09537451171875,0.45586103200912476,-0.1367596834897995,-0.042282696813344955,-0.3933466076850891,0.3410133123397827,-0.8538081645965576,-0.24608823657035828,0.006124168634414673,0.016833066940307617,0.9504205354276358,-0.14223292066538504,-0.2299254451135535,0.15363924754388464
1729787445541405700,1.10540576171875,0.17010824382305145,0.3278760015964508,0.0824456512928009,-0.39248180389404297,0.33842557668685913,-0.8552346229553223,-0.3968706727027893,-0.08468714356422424,0.17682886123657227,0.9507387066415735,-0.14085292740648053,-0.22922291269977005,0.15399183403635353
1729787445551436500,1.1154365234375,-0.034347690641880035,0.7119219899177551,0.2227122038602829,-0.38741248846054077,0.33853939175605774,-0.8574978709220886,-0.4223562180995941,-0.18425774574279785,0.1687314510345459,0.9512620207483276,-0.14116328192335423,-0.22654796573487468,0.15443276534120473
1729787445561467600,1.125467529296875,-0.16330526769161224,0.9041576981544495,0.23217202723026276,-0.37957578897476196,0.3402417302131653,-0.8603242635726929,-0.35360902547836304,-0.2155621349811554,0.10103166103363037,0.9519310149506394,-0.14249968588368406,-0.22255720452744726,0.15488599781864879
1729787445571498800,1.135498779296875,-0.4837469160556793,1.008493185043335,0.1815762221813202,-0.3705340027809143,0.34374842047691345,-0.8628682494163513,-0.2543591856956482,-0.09213098883628845,-0.03848367929458618,0.9526107721327677,-0.14498877430228863,-0.21804616864477047,0.15481284483531396
1729787445581529600,1.145529541015625,-0.6110532879829407,0.85367351770401,0.22607578337192535,-0.3616330623626709,0.34952840209007263,-0.8643214106559753,-0.11323574185371399,0.14212507009506226,-0.22550708055496216,0.9530527499912163,-0.1487236792221919,-0.21382367827024862,0.15443884853625586
1729787445591559700,1.1555595703125,-0.05709075182676315,0.511688232421875,0.1605473756790161,-0.35496076941490173,0.3535509705543518,-0.8654505014419556,0.07549607753753662,0.2765607237815857,-0.42284899950027466,0.9533383254113199,-0.15128295176871048,-0.21068510394026607,0.154503821795722
1729787445601590500,1.165590576171875,0.6857377886772156,0.35005316138267517,0.06128337234258652,-0.350907564163208,0.3510062098503113,-0.8681350946426392,0.14656183123588562,0.3439553678035736,-0.5744308233261108,0.953951841787507,-0.1501129805062639,-0.2083231638778509,0.15505979289529645
1729787445611621600,1.17562158203125,1.1529384851455688,0.17264989018440247,0.010868935845792294,-0.3485570549964905,0.3430653214454651,-0.8722466230392456,0.11203053593635559,0.3658275306224823,-0.5225745439529419,0.9548771907072522,-0.1459282838083315,-0.20635314326436296,0.1559902191039496
1729787445621652500,1.185652587890625,1.4460088014602661,0.00962687749415636,-0.017548590898513794,-0.34777069091796875,0.33147746324539185,-0.8770281076431274,0.05559539794921875,0.27197715640068054,-0.37445199489593506,0.95591978132704,-0.13967530735261238,-0.2048823163917758,0.15726266147121515
1729787445631683600,1.19568359375,1.2665122747421265,-0.03753823786973953,0.0175635889172554,-0.348062664270401,0.3192509114742279,-0.8814370632171631,-0.019094347953796387,0.08724325895309448,-0.15953278541564941,0.9568388675826187,-0.13300602069929784,-0.20393840010606837,0.1586759699340235
1729787445641714700,1.205714599609375,0.86153244972229,0.06340563297271729,0.10991456359624863,-0.34778591990470886,0.3101555109024048,-0.8847872614860535,-0.07631683349609375,-0.06276476383209229,0.09947848320007324,0.9574829711276427,-0.12802566767503146,-0.20301673850862245,0.1600624754899293
1729787445651745800,1.215745849609375,0.5566396713256836,0.17646081745624542,0.14188340306282043,-0.3463115692138672,0.3042587339878082,-0.8874091506004333,-0.10910224914550781,-0.21009671688079834,0.21899789571762085,0.9579484143934806,-0.12481689771189841,-0.2017824986725568,0.16136788212556968
1729787445661777000,1.22577685546875,0.019252222031354904,0.34771960973739624,0.09522749483585358,-0.3436456322669983,0.3020232915878296,-0.8892073035240173,-0.11565917730331421,-0.2955077588558197,0.25705093145370483,0.9582984993339717,-0.12371999002274846,-0.20022415460801876,0.16207314385830682
1729787445671807700,1.235807861328125,-0.3287701904773712,0.370265394449234,0.14806699752807617,-0.3399624824523926,0.3040507733821869,-0.889931857585907,-0.06988862156867981,-0.231861412525177,0.349465548992157,0.9584669252072217,-0.12502161501836817,-0.19850359215010077,0.16219504780257188
1729787445681838800,1.2458388671875,-0.4109976291656494,0.30846625566482544,0.24802769720554352,-0.33635902404785156,0.3080691993236542,-0.889919102191925,0.054513901472091675,-0.17267796397209167,0.27408963441848755,0.9583975285625991,-0.1272889581469603,-0.19707352402695208,0.1625849210436814
1729787445691869700,1.25586962890625,-0.337358295917511,0.36748456954956055,0.227243572473526,-0.3327237367630005,0.31250396370887756,-0.8897393941879272,0.150335431098938,-0.13440334796905518,0.16464173793792725,0.9582559879496751,-0.12974156209718843,-0.19569729525812668,0.16314147874959387
1729787445701900800,1.26590087890625,0.44641074538230896,0.4116694927215576,0.19946281611919403,-0.3283838927745819,0.31286191940307617,-0.8912246823310852,0.1395868957042694,-0.07728147506713867,0.042988598346710205,0.9585047725838642,-0.1300954413763763,-0.19355318238076796,0.163954236923879
1729787445711931600,1.275931640625,0.8246539235115051,0.47631534934043884,0.15424366295337677,-0.3240763247013092,0.30739471316337585,-0.8946971893310547,0.08709204196929932,-0.07790249586105347,-0.12178230285644531,0.9592037169823546,-0.12737159146529053,-0.1908609056234467,0.16515718736587215
1729787445721962800,1.285962646484375,1.0261362791061401,0.611163318157196,0.15263138711452484,-0.3185863792896271,0.29961976408958435,-0.8992945551872253,0.016141921281814575,-0.05607420206069946,0.09970349073410034,0.9601842040159075,-0.12355791364928773,-0.18731299312187094,0.1664141204602559
1729787445731993600,1.29599365234375,1.0993657112121582,0.6941362023353577,0.14430955052375793,-0.3123359978199005,0.29028576612472534,-0.9045332670211792,-0.03287884593009949,-0.08371224999427795,0.1733473539352417,0.9613145979082646,-0.11901113002786848,-0.18322041207690729,0.167752852952993
1729787445742024700,1.306024658203125,0.9443291425704956,0.8437054753303528,0.17071186006069183,-0.3049057126045227,0.2814280688762665,-0.9098520874977112,-0.06554719805717468,-0.10750836133956909,0.17985635995864868,0.9624864604190974,-0.11485450763930699,-0.17855646004827733,0.16895569338014968
1729787445752055600,1.3160556640625,0.7018041014671326,0.8194962739944458,0.30059903860092163,-0.29645147919654846,0.2745739221572876,-0.9147270917892456,-0.06518182158470154,-0.018668770790100098,0.1972130537033081,0.9635020440820233,-0.11178868114303514,-0.17360799866067783,0.1703743123786433
1729787445762086700,1.326086669921875,0.41149675846099854,0.7085077166557312,0.2512871325016022,-0.28880175948143005,0.27029573917388916,-0.9184409379959106,-0.033494412899017334,0.14680325984954834,0.028502583503723145,0.9642111254678429,-0.10998736650735921,-0.16935852926901473,0.1718061332821016
1729787445772117500,1.336117431640625,0.4524111747741699,0.6039597392082214,0.2769445776939392,-0.2818838059902191,0.26738977432250977,-0.9214359521865845,-0.06925144791603088,0.34074926376342773,-0.13267165422439575,0.9647769278145565,-0.10888216039375573,-0.16561006503218587,0.17298400208472775
1729787445782148600,1.346148681640625,1.1462856531143188,0.5018765330314636,0.34169986844062805,-0.2761811316013336,0.2612893283367157,-0.9249064326286316,-0.06224355101585388,0.5225546360015869,-0.3247426152229309,0.9653414259734545,-0.10595098556137938,-0.16223804031971625,0.17484057715723303
1729787445792179700,1.3561796875,2.170584201812744,0.6069195866584778,0.445416659116745,-0.2700614333152771,0.24693061411380768,-0.930640697479248,-0.0661049485206604,0.705355167388916,-0.48761796951293945,0.966296853812017,-0.09872793188601195,-0.15790012578630605,0.17773775265432298
1729787445802210600,1.36621044921875,2.9798786640167236,0.5836549997329712,0.635675311088562,-0.26313313841819763,0.22408753633499146,-0.9383739829063416,-0.08595743775367737,0.7614471316337585,-0.38231998682022095,0.9674868629229255,-0.08712880919833402,-0.15238628346593422,0.18208848638221622
1729787445812240600,1.37624072265625,3.245880603790283,0.393184632062912,0.7850850224494934,-0.2568911015987396,0.1959880143404007,-0.9463591575622559,-0.003484874963760376,0.481303870677948,-0.10573434829711914,0.9684699805909819,-0.07274103452226348,-0.14672816607773784,0.18773829841025325
1729787445822271500,1.386271484375,2.5144498348236084,0.11065363138914108,0.7104818820953369,-0.25316476821899414,0.1700735092163086,-0.9523563385009766,0.10153818130493164,-0.0015554279088974,0.10903358459472656,0.9688808945819081,-0.05930771487453632,-0.14249358838230494,0.19351499764614807
1729787445832302600,1.396302490234375,1.4041470289230347,0.20009535551071167,0.40371477603912354,-0.25105753540992737,0.15277791023254395,-0.9558394551277161,0.15118876099586487,-0.38642048835754395,0.35673362016677856,0.9689600799922966,-0.05032759447416903,-0.13981204871795164,0.1975761170236106
1729787445842333700,1.406333740234375,0.706359326839447,0.3057791590690613,0.3817159831523895,-0.24785058200359344,0.14406877756118774,-0.9580262303352356,0.12677209079265594,-0.5389662384986877,0.4191926121711731,0.9690267630477777,-0.04598308045945763,-0.13737696920165327,0.20000115387482126
1729787445852364800,1.41636474609375,0.45028337836265564,0.11541376262903214,0.4014042019844055,-0.24527278542518616,0.13943971693515778,-0.9593736529350281,0.18568721413612366,-0.5197345018386841,0.21657580137252808,0.9688898058126868,-0.043623336880044966,-0.13568408417971128,0.20233507529714648
1729787445862395600,1.426395751953125,-0.13625414669513702,0.040602907538414,0.12038957327604294,-0.24418598413467407,0.1385280340909958,-0.9597828984260559,0.16778522729873657,-0.3546992838382721,0.04785662889480591,0.968691875809566,-0.043081251381428015,-0.13510203224799913,0.2037834429964931
1729787445872426800,1.4364267578125,-0.5012608766555786,0.001664292998611927,-0.14235363900661469,-0.24404016137123108,0.14193423092365265,-0.9593222141265869,-0.023263320326805115,0.021426379680633545,0.13829255104064941,0.9686600676447655,-0.04483987621462761,-0.1353819891431573,0.20336913897960593
1729787445882457900,1.446457763671875,-0.0036787930876016617,0.02458691969513893,0.049246154725551605,-0.24412986636161804,0.14466647803783417,-0.9588911533355713,-0.11931924521923065,0.351885050535202,0.07084488868713379,0.9686664623490687,-0.0462619529715208,-0.13569914734497124,0.2028077165875703
1729787445892488700,1.45648876953125,0.7461209893226624,0.16608817875385284,0.37739288806915283,-0.24292543530464172,0.14146500825881958,-0.9596743583679199,-0.03470821678638458,0.3818961977958679,-0.0947842001914978,0.9685843107781763,-0.04461194979734792,-0.13480575368166042,0.2041609191686143
1729787445902519800,1.466519775390625,0.746940553188324,0.30389702320098877,0.3109952211380005,-0.24009676277637482,0.13462844491004944,-0.9613681435585022,0.020171821117401123,0.17861925065517426,-0.1302914023399353,0.9685380931927543,-0.041209423218735566,-0.13273170503931422,0.20644144731459896
1729787445912550700,1.476550537109375,0.09223781526088715,0.24515967071056366,0.05151356756687164,-0.23712117969989777,0.13079681992530823,-0.962634801864624,-0.030838415026664734,-0.040022268891334534,-0.0069849491119384766,0.9686279342693204,-0.03947692744709391,-0.13085938463215177,0.2075506595510042
1729787445922581800,1.486581787109375,-0.6637582182884216,0.07757354527711868,-0.059310682117938995,-0.23552751541137695,0.13363142311573029,-0.9626367092132568,-0.02341414988040924,-0.21717329323291779,0.12447142601013184,0.9686956775781931,-0.04108662068832098,-0.13035923821502632,0.20723717938896297
1729787445932612600,1.496612548828125,-1.4368118047714233,-0.0505969412624836,-0.009143654257059097,-0.23554418981075287,0.14361663162708282,-0.9611936211585999,0.029474258422851562,-0.34034818410873413,0.12603437900543213,0.9685086933199311,-0.04613776608699002,-0.13143244657613495,0.20636825623887367
1729787445942643700,1.506643798828125,-2.1584465503692627,-0.013399558141827583,0.03109324723482132,-0.2359050214290619,0.1611151546239853,-0.958327054977417,0.006779029965400696,-0.3259711265563965,0.12248110771179199,0.9680042241485644,-0.05491344279464277,-0.13349528530195248,0.20525920528520886
1729787445952674600,1.516674560546875,-2.465005874633789,0.002942662686109543,0.0039670877158641815,-0.23585903644561768,0.1836918741464615,-0.954268217086792,-0.08253085613250732,-0.2042912244796753,0.1609790325164795,0.9672708419772623,-0.06632625291488715,-0.1358923181714942,0.2037678436642737
1729787445962705700,1.52670556640625,-2.1834301948547363,0.05189960449934006,-0.06499519944190979,-0.23576071858406067,0.2061328887939453,-0.9496979117393494,-0.13083168864250183,-0.10916326940059662,0.050009191036224365,0.9664671135696008,-0.07775813169968404,-0.13821980222636882,0.20196648250653235
1729787445972736500,1.536736572265625,-1.7054284811019897,-0.004516265355050564,-0.05941135063767433,-0.23565974831581116,0.2247125655412674,-0.9454991817474365,-0.12618716061115265,-0.032818034291267395,-0.1113244891166687,0.9657414527835959,-0.08729251730681795,-0.14010858545182717,0.2002324139506505
1729787445982767600,1.546767578125,-0.9787770509719849,-0.07507544010877609,0.012196521274745464,-0.23604579269886017,0.2372972071170807,-0.9423229098320007,-0.06403355300426483,0.041602954268455505,-0.21777230501174927,0.9651307310445998,-0.0937024702662309,-0.141627699135725,0.19920869267067376
1729787445992798500,1.556798583984375,-0.5135155916213989,-0.12257131189107895,0.005202794447541237,-0.2370021492242813,0.24423155188560486,-0.9403089880943298,0.004122510552406311,0.07054202258586884,-0.35990774631500244,0.9646911921382118,-0.09714412279889781,-0.14285846079882186,0.19881003525458915
1729787446002829800,1.566829833984375,-0.3276805579662323,-0.1646910160779953,0.000846128910779953,-0.2383754700422287,0.24807262420654297,-0.9389553070068359,0.024172574281692505,0.07892324030399323,-0.32898902893066406,0.964383788129341,-0.09896878161107112,-0.1439705311842339,0.19859913618134767
1729787446012860700,1.576860595703125,-0.362632155418396,-0.1677589863538742,0.0027276528999209404,-0.23999063670635223,0.25118792057037354,-0.9377148747444153,0.052780553698539734,0.029009252786636353,-0.20780819654464722,0.9640929004095377,-0.10039780875668147,-0.1451304783730914,0.19844999405220054
1729787446022891800,1.586891845703125,-0.5962749719619751,-0.16685904562473297,0.0005284138023853302,-0.24154436588287354,0.2557056248188019,-0.9360934495925903,0.06297075748443604,-0.03376650810241699,-0.03534209728240967,0.9637262163876987,-0.10255651781129407,-0.14640845051457022,0.19818807788632886
1729787446032921900,1.596921875,-0.7082260251045227,-0.17073075473308563,-0.03195389360189438,-0.2432025820016861,0.26185640692710876,-0.9339613318443298,0.0440601110458374,-0.054519981145858765,0.11422866582870483,0.963269826284911,-0.10556211657070345,-0.14790531157960007,0.1977170858500928
1729787446042952700,1.60695263671875,-0.7334449887275696,-0.11064232885837555,-0.04772220551967621,-0.24468542635440826,0.2686111629009247,-0.9316529035568237,0.01253819465637207,-0.032069385051727295,0.13087165355682373,0.9628118704903426,-0.108928590010536,-0.14935902215260582,0.19702750011095832
1729787446052983800,1.61698388671875,-0.47921961545944214,-0.024010231718420982,-0.014342144131660461,-0.24541781842708588,0.27432188391685486,-0.9297943711280823,-0.016850247979164124,0.05192628502845764,0.16494756937026978,0.9624469619849789,-0.11182930102461536,-0.15032302774451256,0.19645145461644664
1729787446063014700,1.6270146484375,-0.23769235610961914,0.04714362695813179,-0.0024348851293325424,-0.24529220163822174,0.2775617837905884,-0.9288655519485474,-0.021980762481689453,0.08288136124610901,0.06414997577667236,0.9622684228029521,-0.11352596668814142,-0.15059574219368174,0.19614393489282358
1729787446073045800,1.637045654296875,-0.10555029660463333,0.007377571891993284,-0.008913557045161724,-0.2450324147939682,0.2791222631931305,-0.9284664392471313,-0.0239952951669693,0.0683661699295044,-0.04142796993255615,0.9621994374303824,-0.1143661782822037,-0.15062258552132365,0.19597365012512638
1729787446083076600,1.64707666015625,-0.0444595105946064,-0.06526105105876923,-0.027174320071935654,-0.24539747834205627,0.27972277998924255,-0.928189218044281,-0.005960568785667419,0.020966947078704834,-0.067477285861969,0.9621532253928291,-0.11465467692101108,-0.15086313742797797,0.1958464884988356
1729787446093107700,1.657107666015625,-0.05526129528880119,-0.10727188736200333,-0.038491688668727875,-0.24633190035820007,0.28013667464256287,-0.9278168082237244,0.007531851530075073,-0.014435380697250366,-0.07215261459350586,0.96208952273443,-0.11479996576052273,-0.15136894589967628,0.19568407986171768
1729787446103138600,1.667138671875,-0.03527267277240753,-0.11690118163824081,-0.038913000375032425,-0.2475578933954239,0.2804890275001526,-0.9273839592933655,0.012160539627075195,-0.0290851891040802,-0.06370490789413452,0.9620074459611795,-0.11488446509575308,-0.15201836348935083,0.19553429288913585
1729787446113169700,1.677169677734375,-0.06407342851161957,-0.0739997923374176,-0.05206581950187683,-0.2485412359237671,0.28078803420066833,-0.9270303845405579,0.00452268123626709,-0.033732980489730835,-0.03878992795944214,0.9619566711473257,-0.11497372799676245,-0.15253146956164348,0.19533199535504708
1729787446123200800,1.68720068359375,-0.042352549731731415,-0.026008402928709984,-0.03983631730079651,-0.24913251399993896,0.2812992036342621,-0.926716685295105,-0.023740410804748535,0.012661397457122803,0.08516395092010498,0.9619258571936963,-0.11521546501180907,-0.15286289615911164,0.19508242316311433
1729787446133231600,1.697231689453125,0.03854496031999588,0.02263689786195755,-0.04187603294849396,-0.24929149448871613,0.2811518609523773,-0.9267185926437378,-0.030325815081596375,0.05199328064918518,0.13956350088119507,0.9619626886608711,-0.11515427800406425,-0.1529057986733454,0.19490308696878347
1729787446143262700,1.7072626953125,0.016055764630436897,0.05187031254172325,-0.02455856278538704,-0.24900412559509277,0.2808578610420227,-0.9268850088119507,-0.03088785707950592,0.04885408282279968,0.12511193752288818,0.962039392306317,-0.11505922890031323,-0.15270519003653427,0.19473746071504527
1729787446153293600,1.71729345703125,0.009658051654696465,0.042180135846138,-0.01071891374886036,-0.24861517548561096,0.2806979715824127,-0.9270378351211548,-0.022518262267112732,0.024615168571472168,0.14099657535552979,0.9620968815374801,-0.11502927579911386,-0.15247736609739979,0.19464969643489086
1729787446163324700,1.72732470703125,-0.11861356347799301,0.023500721901655197,-0.01789293810725212,-0.24835355579853058,0.28112858533859253,-0.9269774556159973,-0.014845281839370728,-0.02562016248703003,0.07973325252532959,0.9621058450830271,-0.11529134427139955,-0.1523783925479823,0.19452771161080723
1729787446173355500,1.73735546875,-0.2490067332983017,-0.021051567047834396,-0.04394344612956047,-0.2483418881893158,0.28267478942871094,-0.9265102744102478,-0.020762130618095398,-0.05092430114746094,0.019710958003997803,0.9620450353061779,-0.11612238637543133,-0.15251380385328353,0.1942278890856358
1729787446183387000,1.747386962890625,-0.2798854112625122,-0.07092330604791641,-0.04248856008052826,-0.24881452322006226,0.2849180996417999,-0.9256959557533264,-0.015482977032661438,-0.04944446682929993,-0.035226285457611084,0.9619122232594068,-0.11727531380220875,-0.1529657393872874,0.19383750719154297
1729787446193417700,1.757417724609375,-0.30237552523612976,-0.11386305093765259,-0.05336437746882439,-0.24977551400661469,0.28733372688293457,-0.9246899485588074,0.0010877549648284912,-0.04655000567436218,-0.05370354652404785,0.9617295007841895,-0.11847056925022321,-0.15368713861682673,0.19344634238922662
1729787446203448800,1.76744873046875,-0.3456435203552246,-0.1519170105457306,-0.0715084969997406,-0.25133785605430603,0.2902865409851074,-0.9233434200286865,-0.0019885599613189697,-0.048678845167160034,-0.04087471961975098,0.9614742491666939,-0.11989599236212449,-0.1547683778026884,0.19297455059722765
1729787446213479700,1.777479736328125,-0.437064528465271,-0.14814545214176178,-0.11518885940313339,-0.2533043324947357,0.29403024911880493,-0.9216198325157166,-0.027197986841201782,-0.06316474080085754,-0.011699259281158447,0.9611581460336848,-0.12171781142037079,-0.1561244791298828,0.1923148683540895
1729787446223510800,1.7875107421875,-0.47191375494003296,-0.15899382531642914,-0.14180317521095276,-0.2553677260875702,0.2982226610183716,-0.919701337814331,-0.05975675582885742,-0.06653320789337158,0.04160386323928833,0.960841439838041,-0.12380411999329033,-0.1575495575417672,0.1914013855102378
1729787446233541600,1.797541748046875,-0.5244336724281311,-0.14471688866615295,-0.10631893575191498,-0.257392019033432,0.30269157886505127,-0.9176748394966125,-0.0718926191329956,-0.08072197437286377,0.039729952812194824,0.9604954653320164,-0.1260399724508128,-0.15898583864710922,0.19048846494391894
1729787446243572700,1.80757275390625,-0.5805588960647583,-0.19149520993232727,-0.07014229148626328,-0.25930964946746826,0.3073899745941162,-0.9155707955360413,-0.06068241596221924,-0.10557723045349121,-0.02810901403427124,0.9601012817382154,-0.1283852551114599,-0.1604113989550774,0.1897131048471376
1729787446253602800,1.817602783203125,-0.6460832953453064,-0.24396081268787384,-0.10323846340179443,-0.2615872025489807,0.3127734661102295,-0.9130963087081909,-0.05127900838851929,-0.138899564743042,-0.12549316883087158,0.9596052567175698,-0.1310490391855708,-0.16210485584750634,0.1889603657061568
1729787446263633700,1.827633544921875,-0.6756166815757751,-0.26469963788986206,-0.1525181382894516,-0.2643889784812927,0.31853461265563965,-0.910293459892273,-0.036865293979644775,-0.14310428500175476,-0.18954479694366455,0.9590713953110085,-0.13390761956723177,-0.1640792982912907,0.18795995068945454
1729787446273664800,1.837664794921875,-0.5888904929161072,-0.2056417465209961,-0.15749238431453705,-0.26709532737731934,0.32396697998046875,-0.9075822234153748,0.0006005764007568359,-0.06232449412345886,-0.17122942209243774,0.9585842980551578,-0.1366372506344308,-0.16594922512710947,0.1868352767013772
1729787446283695600,1.847695556640625,-0.4412120580673218,-0.1460602879524231,-0.12820453941822052,-0.2692019045352936,0.3282549977302551,-0.9054164886474609,0.05855429172515869,0.06500980257987976,-0.09563636779785156,0.9582130194580519,-0.13881998246853702,-0.1673940424538491,0.18583925215545355
1729787446293726700,1.857726806640625,-0.16181662678718567,-0.12187372893095016,-0.12064594775438309,-0.2707884907722473,0.3307206928730011,-0.904045045375824,0.11096790432929993,0.1363966464996338,-0.015159666538238525,0.9580015957780632,-0.14007684778657833,-0.16839225058895038,0.18508272302937853
1729787446303757600,1.867757568359375,-0.02367394044995308,-0.09996949881315231,-0.15195193886756897,-0.27224498987197876,0.33102622628211975,-0.9034956097602844,0.12952950596809387,0.09815776348114014,0.053016483783721924,0.9579793036327887,-0.14021537786580715,-0.16909121428251297,0.18445475916316556
1729787446313788700,1.87778857421875,-0.21775780618190765,-0.01760394312441349,-0.23981335759162903,-0.2737342119216919,0.3314814865589142,-0.9028785228729248,0.0996009111404419,0.023209095001220703,0.1419379711151123,0.9580182814886314,-0.14050236601769264,-0.16976403700778342,0.18341285455127432
1729787446323819500,1.887819580078125,-0.21961508691310883,0.03626013919711113,-0.1806831955909729,-0.2740788459777832,0.3330635726451874,-0.9021914601325989,0.032043904066085815,-0.03173297643661499,0.24458348751068115,0.9580672523864558,-0.14149755191455324,-0.1699491102726113,0.182217005300777
1729787446333850600,1.8978505859375,-0.30019116401672363,0.06498845666646957,-0.25066253542900085,-0.2744905948638916,0.33473503589630127,-0.9014474153518677,0.0063478946685791016,-0.11473381519317627,0.11897671222686768,0.9581085151364331,-0.14254219577355456,-0.1701705862642058,0.1809750661136147
1729787446343881700,1.9078818359375,-0.12284832447767258,0.24410255253314972,-0.31977343559265137,-0.2740463614463806,0.3361438810825348,-0.9010582566261292,-0.06866604089736938,-0.0760883092880249,0.03826528787612915,0.9583298569230644,-0.14361042198459648,-0.16984384675171124,0.1792575121982567
1729787446353912600,1.91791259765625,0.18279680609703064,0.29211288690567017,-0.24092017114162445,-0.2725817859172821,0.33503204584121704,-0.9019161462783813,-0.09706240892410278,0.05959078669548035,-0.03651463985443115,0.9588457826530666,-0.14343941618683026,-0.1687218802595788,0.17768736012815828
1729787446363943700,1.927943603515625,0.9142541289329529,0.4682389199733734,0.03188899904489517,-0.2696944773197174,0.33010074496269226,-0.9045984745025635,-0.06360328197479248,0.13712340593338013,-0.07347464561462402,0.9596244633790536,-0.14122004016112094,-0.16660631973844015,0.17725715352622087
1729787446373974800,1.937974853515625,1.8445961475372314,0.5086953043937683,0.43969860672950745,-0.2644028067588806,0.3182063400745392,-0.9104042053222656,-0.012361079454421997,0.059982746839523315,-0.1572684645652771,0.960783315058472,-0.13523713183284294,-0.16281523924941638,0.17915763772882368
1729787446384006000,1.948005859375,2.4810938835144043,0.28955093026161194,0.08462677896022797,-0.2593526542186737,0.2987276613712311,-0.9184214472770691,0.051482200622558594,-0.2791658937931061,-0.04048657417297363,0.962248676934289,-0.12517128934583222,-0.1584973809840077,0.18245047819535576
1729787446394036700,1.95803662109375,0.7245858907699585,0.6655434966087341,-0.69570392370224,-0.25659188628196716,0.2815953195095062,-0.9245889186859131,-0.06947317719459534,-0.5692235231399536,0.2558724880218506,0.9639777047080492,-0.11680936411300315,-0.15511643174794695,0.18177341937713512
1729787446404067800,1.96806787109375,-0.25591543316841125,0.5738295912742615,-0.09818217903375626,-0.25144556164741516,0.2794249653816223,-0.9266589879989624,-0.22134801745414734,-0.13811329007148743,0.5226520299911499,0.9649940900322405,-0.11656549275447871,-0.1519309067496374,0.1792095181253602
1729787446414098700,1.9780986328125,-0.029294807463884354,0.2657766342163086,0.25479984283447266,-0.24753136932849884,0.2815997004508972,-0.9270544052124023,0.11471886932849884,0.14410525560379028,0.16599178314208984,0.9650256694165955,-0.11795028289346353,-0.15020165077351388,0.17959058624502233
1729787446424129800,1.9881298828125,0.45197540521621704,0.3240829110145569,-0.08008173853158951,-0.24449165165424347,0.27960649132728577,-0.9284632802009583,0.061523497104644775,0.23601853847503662,-0.48022812604904175,0.9653183415520579,-0.11714299319646375,-0.14847854060669155,0.17997863876802578
1729787446434160600,1.99816064453125,0.5123077630996704,0.21854691207408905,0.08672454953193665,-0.24189616739749908,0.27496954798698425,-0.9305256605148315,-0.1708846092224121,0.46576839685440063,-0.43847763538360596,0.9658387065396704,-0.11500623944017341,-0.14666538823430833,0.18005131973874935
1729787446444191700,2.008191650390625,0.4545189440250397,0.05642660707235336,0.2621760070323944,-0.24016784131526947,0.27084317803382874,-0.9321820735931396,0.06528685986995697,0.5046695470809937,-0.21179986000061035,0.9660346448230182,-0.11287884021498294,-0.1454899957291392,0.1812957352128567
1729787446454222600,2.01822265625,0.35997486114501953,0.05043209716677666,0.1466270238161087,-0.2391766756772995,0.26762324571609497,-0.9333661198616028,0.1889752447605133,0.2599188983440399,-0.024519622325897217,0.9660971730657284,-0.1111422315732451,-0.14479068214615637,0.18259061954514877
1729787446464253700,2.028253662109375,0.3929056227207184,0.09827791154384613,0.041175443679094315,-0.23826563358306885,0.2643742859363556,-0.9345242977142334,0.09625208377838135,0.02210947871208191,0.14837628602981567,0.9662748896291097,-0.1094841425027252,-0.14405228318682273,0.18323463149933292
1729787446474284500,2.038284423828125,0.41250962018966675,0.1087128221988678,0.02363639697432518,-0.23718926310539246,0.2606048583984375,-0.9358559846878052,0.006613701581954956,-0.087493896484375,0.10939419269561768,0.9665464036396545,-0.10761855430594486,-0.1431442131895525,0.1836197651654954
1729787446484314600,2.048314697265625,0.20411334931850433,0.11135553568601608,0.07782453298568726,-0.2360493689775467,0.2576967477798462,-0.936948835849762,-0.082111656665802,-0.08391439914703369,0.16100889444351196,0.9667539328246056,-0.10619425206963207,-0.14229677290380885,0.18401449689568844
1729787446494345700,2.058345703125,-0.2443390041589737,0.11513961851596832,0.13184861838817596,-0.23466940224170685,0.2580049932003021,-0.9372106194496155,-0.11640481650829315,-0.029321491718292236,0.22062736749649048,0.9667313037823405,-0.10640437632645448,-0.14167853971922406,0.18448843256133346
1729787446504376600,2.06837646484375,-0.7359008193016052,0.01644483581185341,0.17015472054481506,-0.2336297482252121,0.2630956768989563,-0.9360544085502625,-0.0810522586107254,-0.02955988049507141,0.19426363706588745,0.9663813552608569,-0.10902915625611928,-0.14172312245158533,0.1847552317008466
1729787446514408000,2.078407958984375,-0.9577807784080505,-0.1615254282951355,0.2851095497608185,-0.23364517092704773,0.2716864049434662,-0.9335933327674866,0.010958388447761536,-0.1621130406856537,0.008956491947174072,0.9656306105341458,-0.11328268017855724,-0.1427248434431639,0.18534953542821317
1729787446524438800,2.088438720703125,-1.071155309677124,-0.14865155518054962,0.20790715515613556,-0.23453086614608765,0.281997412443161,-0.9303078651428223,0.14409200847148895,-0.202438086271286,-0.23274755477905273,0.9646687676310186,-0.11833811451976778,-0.14436813410644952,0.18592488170193847
1729787446534470000,2.098469970703125,-0.7300854921340942,-0.22927476465702057,0.09669516235589981,-0.2356855422258377,0.2910415530204773,-0.9272255301475525,0.1506330370903015,-0.020442157983779907,-0.221929132938385,0.963836723639357,-0.12279641820210564,-0.14597356315106774,0.1860959036131665
1729787446544500700,2.108500732421875,-0.27472221851348877,-0.277732789516449,0.04608551412820816,-0.23808147013187408,0.2957017123699188,-0.9251366257667542,0.1435074806213379,0.14962604641914368,-0.23529428243637085,0.9632809205652646,-0.12493698186375841,-0.14772423526016723,0.18616749515132733
1729787446554531800,2.11853173828125,0.19234111905097961,-0.400678426027298,-0.0334567166864872,-0.240996852517128,0.2962205708026886,-0.9242153167724609,0.08338882029056549,0.1839888095855713,-0.12935829162597656,0.9629919524831932,-0.12489775679681983,-0.149308086613337,0.18642493862122567
1729787446564562700,2.128562744140625,0.19525820016860962,-0.2595827579498291,-0.11252091079950333,-0.24436303973197937,0.29384690523147583,-0.9240891337394714,-0.04117467999458313,-0.01645737886428833,0.022905051708221436,0.9629642670331229,-0.12339093075185707,-0.15076511164032438,0.1863985746921155
1729787446574593800,2.13859375,-0.13004851341247559,-0.09061770141124725,0.0660477727651596,-0.24603362381458282,0.29353952407836914,-0.923743486404419,-0.16259674727916718,-0.18361520767211914,0.30193257331848145,0.9628753242059366,-0.12308429046860758,-0.15158667236298967,0.18639462942196977
1729787446584624600,2.148624755859375,-0.09678896516561508,0.07314955443143845,0.1567789912223816,-0.24568484723567963,0.2951399087905884,-0.9233262538909912,-0.12923885881900787,-0.1896253526210785,0.3830888271331787,0.9626706557932899,-0.12385110249759343,-0.15165015446948635,0.18689157504250276
1729787446594655700,2.15865576171875,0.34487950801849365,0.18960878252983093,0.06276968866586685,-0.24413716793060303,0.29454344511032104,-0.9239270687103271,-0.12276042997837067,-0.08914485573768616,0.18386054039001465,0.9627149630897852,-0.12359821526437471,-0.15086401879288552,0.18746599855765642
1729787446604686800,2.168686767578125,1.0763070583343506,0.2575477957725525,-0.06505752354860306,-0.24201056361198425,0.28792908787727356,-0.9265677332878113,-0.12424616515636444,0.08537721633911133,0.02890843152999878,0.9633295083395076,-0.12037665285566472,-0.14908254534122078,0.18782990537936808
1729787446614717700,2.1787177734375,1.4176803827285767,0.26878899335861206,-0.12777763605117798,-0.23986561596393585,0.2757197618484497,-0.9308292865753174,-0.09041088819503784,0.21810045838356018,-0.09462237358093262,0.9643724484521327,-0.1143372303351516,-0.1466709370584063,0.18815048208600307
1729787446624748800,2.188748779296875,1.3472509384155273,0.33437758684158325,-0.06998064368963242,-0.23736807703971863,0.26266804337501526,-0.9352335929870605,-0.04012824594974518,0.26240214705467224,-0.03643077611923218,0.9654549274934442,-0.1079259447663153,-0.14399716448258268,0.18845084238913512
1729787446634779600,2.198779541015625,1.4256755113601685,0.22389155626296997,-0.0027446108870208263,-0.23473595082759857,0.2494661808013916,-0.9395028948783875,0.007044300436973572,0.1794431507587433,-0.05329495668411255,0.9664207993475273,-0.10141058210100605,-0.14129561999455617,0.189162214014311
1729787446644811000,2.20881103515625,1.1991615295410156,0.1864517778158188,-0.07428830116987228,-0.2328970730304718,0.23687313497066498,-0.943212628364563,0.018617898225784302,0.010731250047683716,-0.11191731691360474,0.967249316918454,-0.09515407104970806,-0.13906609870506645,0.18982954420835935
1729787446654841900,2.218841796875,0.9356861710548401,0.12399212270975113,-0.0702994167804718,-0.23164860904216766,0.2265280932188034,-0.9460570812225342,-0.015818431973457336,-0.029247194528579712,0.0001952648162841797,0.9679302255704847,-0.09004153213704091,-0.13734626232336267,0.19010439782206398
1729787446664873000,2.228873046875,0.5729925036430359,0.07917522639036179,-0.08349564671516418,-0.2308492213487625,0.21916034817695618,-0.9479859471321106,0.015364602208137512,-0.04061725735664368,0.11149919033050537,0.9683960890165341,-0.08640239076848702,-0.13616770411820248,0.19026857049200663
1729787446674903800,2.23890380859375,0.285722941160202,0.11552071571350098,-0.2015831470489502,-0.23028087615966797,0.2148837447166443,-0.9491025805473328,0.023280128836631775,-0.0745639055967331,0.20885294675827026,0.9687717962130313,-0.08437768778742878,-0.13538506378351406,0.18982260958417566
1729787446684935000,2.248934814453125,-0.043410226702690125,0.1766364872455597,-0.21787557005882263,-0.22940607368946075,0.21301758289337158,-0.9497349262237549,-0.03566962480545044,-0.10941039025783539,0.21586346626281738,0.9691396604196101,-0.08367173803353622,-0.1346535977862342,0.18877469767931981
1729787446694965800,2.2589658203125,-0.4438724219799042,0.20105500519275665,0.009683030657470226,-0.227678582072258,0.21532520651817322,-0.9496302008628845,-0.043668463826179504,-0.062462642788887024,0.11921638250350952,0.9692719483503759,-0.08510089065356793,-0.13395048617402447,0.18795522839683135
1729787446704995800,2.268995849609375,-0.6065798401832581,0.07860701531171799,0.07301539927721024,-0.22622275352478027,0.22039106488227844,-0.9488155841827393,0.04041647911071777,-0.012841001152992249,-0.13849520683288574,0.9690794354496352,-0.08778525972486302,-0.13373834565135329,0.18786414639966262
1729787446715027000,2.27902685546875,-1.0098010301589966,-0.05768611282110214,-0.030485160648822784,-0.22610263526439667,0.2281009554862976,-0.9470203518867493,0.13090303540229797,-0.0029269903898239136,-0.26902884244918823,0.9687086048402006,-0.09172709342974693,-0.13444685067967488,0.18738744253971093
1729787446725057800,2.289057861328125,-1.0795823335647583,-0.17561063170433044,0.03044450283050537,-0.2271917760372162,0.23826557397842407,-0.9442528486251831,0.1849096566438675,0.042694538831710815,-0.1310492753982544,0.9681253942979049,-0.09682515149714968,-0.1360090923210864,0.18670734902426117
1729787446735089000,2.2990888671875,-1.0024387836456299,-0.1844531148672104,-0.05049082636833191,-0.2290324568748474,0.2481386959552765,-0.9412605166435242,0.2400035262107849,-0.012558221817016602,-0.14115220308303833,0.9674693582316436,-0.10170894330018816,-0.13793129087326209,0.18610033298001327
1729787446745119700,2.30911962890625,-0.8358094692230225,-0.08067319542169571,-0.1565706580877304,-0.23052527010440826,0.2566186487674713,-0.9386186599731445,0.12462925910949707,-0.039531826972961426,-0.11475658416748047,0.9669975997770688,-0.10600457380909624,-0.13947653364361498,0.18499995108328254
1729787446755150800,2.31915087890625,-0.6864237189292908,-0.016365040093660355,-0.1668778955936432,-0.23144565522670746,0.2634047865867615,-0.936509907245636,-0.012221947312355042,0.005653470754623413,-0.053877055644989014,0.9667024034191285,-0.10953735653036119,-0.1405226301299467,0.18368832381432726
1729787446765181700,2.329181640625,-0.46737241744995117,0.0839661955833435,-0.15863434970378876,-0.23153086006641388,0.26850810647010803,-0.9350384473800659,-0.07045583426952362,0.048050761222839355,-0.06999695301055908,0.9665511201751265,-0.11228583090823907,-0.14097047220249995,0.18247835959054465
1729787446775212800,2.339212890625,-0.4368182420730591,0.10461314767599106,-0.21095214784145355,-0.23117519915103912,0.2720876634120941,-0.9340912103652954,-0.06588292121887207,0.07610264420509338,-0.10747373104095459,0.9665418703813812,-0.11431174053278767,-0.14102209813256625,0.18122518130791568
1729787446785243600,2.34924365234375,-0.6034371852874756,0.16304871439933777,-0.15365371108055115,-0.2303951531648636,0.2765175998210907,-0.9329823851585388,-0.050885364413261414,0.11584693193435669,-0.06935220956802368,0.9665098441560855,-0.11682351897295935,-0.14092933473571395,0.17986117765592766
1729787446795274800,2.359274658203125,-0.7478004693984985,0.11668920516967773,-0.13252604007720947,-0.2295094132423401,0.28260108828544617,-0.9313764572143555,-0.013532578945159912,0.13199549913406372,-0.02995777130126953,0.9663217262840382,-0.12016562494716634,-0.14096809598219387,0.17863533802827022
1729787446805305600,2.3693056640625,-0.742376446723938,0.4339873790740967,-0.14585517346858978,-0.22763775289058685,0.289364218711853,-0.9297577142715454,-0.03287555277347565,0.08368268609046936,-0.02854001522064209,0.966162482100297,-0.12396867913007481,-0.1405450373084962,0.17722592880283233
1729787446815336700,2.379336669921875,-0.49689075350761414,0.7623732686042786,0.03067273646593094,-0.22215670347213745,0.2950860261917114,-0.9292849898338318,-0.12620146572589874,0.07677069306373596,-0.10217857360839844,0.9662513903686943,-0.12751463248647982,-0.13819374651671376,0.17607038525470867
1729787446825367800,2.389367919921875,-0.05288442224264145,0.7839273810386658,0.189996600151062,-0.21432287991046906,0.29798147082328796,-0.9302003979682922,-0.16914574801921844,0.11029797792434692,-0.033758342266082764,0.9665137451855863,-0.12967418323977617,-0.13447828176416732,0.17593065866804652
1729787446835399000,2.39939892578125,0.29501578211784363,0.46770521998405457,0.21502552926540375,-0.2076728641986847,0.29721689224243164,-0.9319517612457275,-0.0916130393743515,0.05805352330207825,0.02190232276916504,0.9668434677181305,-0.12975785900222447,-0.1310992391788082,0.17660597449032095
1729787446845430000,2.409429931640625,0.4950808584690094,0.059976015239953995,0.14318010210990906,-0.20466561615467072,0.2939017415046692,-0.9336668252944946,0.04077097773551941,-0.08223181962966919,0.011303603649139404,0.967103171156415,-0.12819314354097178,-0.12935648681480638,0.17760900815134278
1729787446855460900,2.4194609375,0.6685730814933777,-0.2350124716758728,-0.059064608067274094,-0.20577047765254974,0.28852444887161255,-0.9351000785827637,0.15004536509513855,-0.22896936535835266,0.11344480514526367,0.9673462590114971,-0.12527199177939655,-0.12944838444386197,0.17830139416696925
1729787446865492000,2.429491943359375,0.9391794800758362,-0.1624939739704132,-0.21345844864845276,-0.20802012085914612,0.28077924251556396,-0.9369581937789917,0.13592234253883362,-0.23277506232261658,0.0245436429977417,0.9678410774881806,-0.12115703864695399,-0.12977625912494645,0.17822102433065254
1729787446875522800,2.439522705078125,1.3591032028198242,-0.08774649351835251,-0.17938730120658875,-0.20981420576572418,0.2695866525173187,-0.9398409724235535,-0.025049075484275818,-0.06017500162124634,0.03148525953292847,0.9686179651298857,-0.11535497067882017,-0.1295096515509579,0.17804408558658982
1729787446885554000,2.449553955078125,1.5450587272644043,-0.08013816177845001,0.05070103704929352,-0.21065498888492584,0.25558018684387207,-0.9435588121414185,-0.14559195935726166,0.12843778729438782,0.010895848274230957,0.9694635361317879,-0.10812106538472602,-0.12857068681913972,0.17866176000198855
1729787446895584800,2.459584716796875,1.6052879095077515,-0.24603845179080963,0.26385432481765747,-0.21176114678382874,0.2409791201353073,-0.9471464157104492,-0.16615328192710876,0.19757376611232758,0.03380107879638672,0.9700275066456135,-0.100408547412466,-0.1278472696868496,0.1806100719219868
1729787446905616000,2.469615966796875,1.5611492395401,-0.2111656367778778,0.18651479482650757,-0.2134898453950882,0.2263411432504654,-0.9503640532493591,-0.1263386607170105,0.130073681473732,-0.006667196750640869,0.9704263470612432,-0.09259738200148984,-0.1274508054519774,0.18290688594957452
1729787446915646700,2.479646728515625,1.641690969467163,-0.11795127391815186,0.10913451761007309,-0.2148122936487198,0.21146468818187714,-0.9534874558448792,-0.1000528335571289,0.16359637677669525,0.033489346504211426,0.9709037356973733,-0.08479709931899704,-0.1267505807246728,0.18463443038215852
1729787446925676800,2.4896767578125,1.6416960954666138,-0.2138986736536026,0.28904783725738525,-0.21583107113838196,0.19604483246803284,-0.9565476179122925,0.04430703818798065,0.17131051421165466,0.13860028982162476,0.9713026935647435,-0.07673211659373487,-0.1258505597687596,0.1866682809839399
1729787446935708000,2.4997080078125,1.3069932460784912,-0.4041977822780609,0.360942006111145,-0.2181583195924759,0.1824076622724533,-0.9587149620056152,0.2842746376991272,0.012248724699020386,0.10960912704467773,0.9713267685397384,-0.06935806670807022,-0.12582515515292464,0.189425439581403
1729787446945738800,2.50973876953125,0.8813689351081848,-0.46160030364990234,0.17866991460323334,-0.22192968428134918,0.1726321578025818,-0.9596589803695679,0.362646222114563,-0.1279849261045456,0.20141923427581787,0.9711418470113012,-0.06385145707010453,-0.1268601593224906,0.19160669637428082
1729787446955769900,2.519769775390625,0.7488076686859131,-0.49290233850479126,0.08585316687822342,-0.22630779445171356,0.16508319973945618,-0.9599647521972656,0.26247110962867737,-0.14445331692695618,0.16943740844726562,0.970972238203702,-0.05951393218896712,-0.1283577627853506,0.1928611619734184
1729787446965800700,2.52980078125,0.5753108859062195,-0.6023555397987366,0.12223567813634872,-0.23141774535179138,0.15898656845092773,-0.9597755670547485,0.17441090941429138,-0.09526585042476654,0.019437432289123535,0.970706739562039,-0.055846174393081545,-0.13035884392228356,0.19394943747223614
1729787446975831800,2.539831787109375,0.6293365955352783,-0.6567959189414978,0.13586919009685516,-0.2372865378856659,0.1536617875099182,-0.959209680557251,0.0772218257188797,0.03106112778186798,-0.021533727645874023,0.9703200120615781,-0.05246724770434958,-0.13282454590661888,0.19515123159117115
1729787446985862700,2.549862548828125,0.832802951335907,-0.626995861530304,0.18919232487678528,-0.24325735867023468,0.14700450003147125,-0.9587572813034058,-0.051725536584854126,0.12441883981227875,-0.10693174600601196,0.969916112249844,-0.048379549277234646,-0.13520640058959968,0.19657459400681337
1729787446995893800,2.559893798828125,0.9001758694648743,-0.6389001607894897,0.2559540569782257,-0.24896670877933502,0.1391252875328064,-0.9584673643112183,-0.10961483418941498,0.1006971001625061,-0.10842710733413696,0.969464480491865,-0.04364425919906852,-0.1373371129782935,0.1984247489573528
1729787447005924600,2.569924560546875,0.7280187010765076,-0.6920716166496277,0.2592505216598511,-0.25501003861427307,0.13183671236038208,-0.9579086303710938,-0.08399447798728943,-0.020203396677970886,-0.03936004638671875,0.9689116005510193,-0.03913933130270825,-0.1396917765498018,0.20041125573398957
1729787447015956000,2.5799560546875,0.47148218750953674,-0.7991767525672913,0.15072590112686157,-0.26195165514945984,0.12648840248584747,-0.9567559957504272,-0.04732874035835266,-0.15050573647022247,0.041640639305114746,0.9682770466232609,-0.035544928363275795,-0.1426834386400486,0.20203371889424226
1729787447025986800,2.58998681640625,-0.0031955623999238014,-0.709457278251648,0.001178758218884468,-0.2691555619239807,0.12452028691768646,-0.95501309633255,-0.05245393514633179,-0.19753357768058777,0.10346585512161255,0.9676964532815373,-0.03373443802874021,-0.14613502431616796,0.20265809715806773
1729787447036018000,2.600017822265625,-0.1881294548511505,-0.5592174530029297,-0.03772896155714989,-0.27531325817108154,0.12550441920757294,-0.9531270861625671,-0.11662399768829346,-0.12292566895484924,0.26489466428756714,0.9672241378085654,-0.03359542671922937,-0.1493579447065872,0.20258650000052134
1729787447046048800,2.610048828125,-0.409252792596817,-0.38885119557380676,-0.048127271234989166,-0.2798526883125305,0.12816692888736725,-0.9514492750167847,-0.15711325407028198,-0.09206461906433105,0.26068389415740967,0.9668640705102882,-0.03449966629067483,-0.1519379464278117,0.2022337084618466
1729787447056080000,2.620079833984375,-0.7214863300323486,-0.289573609828949,-0.039152950048446655,-0.283134788274765,0.13335281610488892,-0.9497640132904053,-0.18730893731117249,-0.10330824553966522,0.2654378414154053,0.9665530548019117,-0.036826146678796086,-0.15414869396483696,0.2016363588116845
1729787447066111000,2.630111083984375,-1.22979736328125,-0.20748130977153778,-0.01986207813024521,-0.28551429510116577,0.14245851337909698,-0.947727382183075,-0.18900352716445923,-0.1644311547279358,0.23781222105026245,0.9662000771248495,-0.04123361315686591,-0.15632052179015307,0.20080110017493835
1729787447076141800,2.640141845703125,-1.669240951538086,-0.2533244490623474,0.003211814910173416,-0.2875909209251404,0.15635277330875397,-0.9449049234390259,-0.16615968942642212,-0.21715903282165527,0.15036451816558838,0.9657087991012808,-0.04811267551329377,-0.15884811098725757,0.19964701469104948
1729787447086173000,2.6501728515625,-1.7693289518356323,-0.44270750880241394,0.07508334517478943,-0.2907794415950775,0.17298778891563416,-0.9410220980644226,-0.10553708672523499,-0.25421029329299927,-0.09089928865432739,0.9649363657665259,-0.05625774713619946,-0.16224680392075447,0.19851699129693487
1729787447096203800,2.660203857421875,-1.4690676927566528,-0.5542777180671692,0.1398056000471115,-0.29525554180145264,0.1887107938528061,-0.936596155166626,-0.0027486085891723633,-0.2077079862356186,-0.35643357038497925,0.96392254753651,-0.06376197689213449,-0.1662417471081168,0.19786718663555106
1729787447106235000,2.67023486328125,-1.049494981765747,-0.7034204602241516,0.019974548369646072,-0.30101945996284485,0.2007705569267273,-0.932243824005127,0.06821608543395996,-0.08480373024940491,-0.47089338302612305,0.9628772611025948,-0.06928675054224998,-0.17052110980322416,0.19745730321746677
1729787447116265700,2.680265625,-0.6039294600486755,-0.809937596321106,-0.16933199763298035,-0.308243989944458,0.2082875669002533,-0.9282251596450806,0.06446957588195801,0.0743967741727829,-0.38371026515960693,0.962003162857317,-0.0724831648148973,-0.17502460105756598,0.19662806755716028
1729787447126295800,2.6902958984375,-0.2590610384941101,-0.7255828976631165,-0.17521439492702484,-0.31597191095352173,0.21156920492649078,-0.9248784780502319,0.02056175470352173,0.23334656655788422,-0.1633935570716858,0.9613383572183342,-0.07355197055544169,-0.17930660750286445,0.19562173518575546
1729787447136327000,2.700326904296875,-0.10276436060667038,-0.5232322216033936,0.061400286853313446,-0.321833074092865,0.2129409909248352,-0.9225397706031799,-0.0017753541469573975,0.2743331789970398,0.12296396493911743,0.9607782205741884,-0.07370870551450351,-0.18247506210421693,0.19538437477238207
1729787447146357800,2.710357666015625,-0.34965670108795166,-0.3489002287387848,0.17075100541114807,-0.32565322518348694,0.21512296795845032,-0.9206911325454712,0.02693188190460205,0.09823153913021088,0.2849031686782837,0.9601684530887341,-0.07430714415512325,-0.18475090184634102,0.19601585406655414
1729787447156388900,2.720388916015625,-0.8881933689117432,-0.2352583408355713,0.11709976941347122,-0.3279670178890228,0.22137141227722168,-0.9183857440948486,0.06131964921951294,-0.058499082922935486,0.33563733100891113,0.9595215342709424,-0.07717396947467567,-0.1866850747938878,0.1962429110180084
1729787447166419700,2.730419677734375,-0.9630892276763916,-0.28873109817504883,0.07506949454545975,-0.32996538281440735,0.2306201010942459,-0.9153891205787659,0.11737993359565735,-0.06100338697433472,0.29893404245376587,0.9588035742198967,-0.08168982918126967,-0.18876498542953737,0.19593437738032013
1729787447176450800,2.740450927734375,-0.664935290813446,-0.3720840513706207,-0.01578078418970108,-0.3330267667770386,0.2382112443447113,-0.9123314023017883,0.1899298131465912,0.01062910258769989,0.16291123628616333,0.958109383470702,-0.08531450569831887,-0.19119553876662873,0.1954281807945662
1729787447186481700,2.750481689453125,-0.45144790410995483,-0.3871123194694519,-0.029661178588867188,-0.33649855852127075,0.24319371581077576,-0.9097392559051514,0.13477736711502075,0.13800135254859924,0.10015374422073364,0.9575376219456955,-0.08759258007900197,-0.19354045439055093,0.19491361038446867
1729787447196512800,2.7605126953125,-0.1633354276418686,-0.3821047842502594,0.04389932379126549,-0.34015077352523804,0.2460363805294037,-0.9076142311096191,0.029268205165863037,0.1836969256401062,0.06696176528930664,0.9570081183572247,-0.08869787521544431,-0.19576921107619702,0.1947885492624964
1729787447206544000,2.7705439453125,-0.08343414217233658,-0.30569326877593994,0.15109288692474365,-0.3429561257362366,0.24733366072177887,-0.9062048196792603,-0.05918926000595093,0.09768283367156982,-0.020278334617614746,0.9565311791223001,-0.08897031368094678,-0.1974382974660822,0.1953215461398208
1729787447216575000,2.780574951171875,-0.17949064075946808,-0.25436854362487793,0.1305822879076004,-0.34513911604881287,0.24900293350219727,-0.9049179553985596,-0.08883610367774963,-0.03684471547603607,-0.09123682975769043,0.9560471200239041,-0.0894507501528636,-0.19884560963888445,0.19604323371153556
1729787447226605800,2.790605712890625,-0.37468215823173523,-0.2567484378814697,0.03819590061903,-0.3471924960613251,0.2517681121826172,-0.9033660292625427,-0.07796317338943481,-0.1307201087474823,-0.09225469827651978,0.9555896132654574,-0.09059469580200648,-0.2002737515477105,0.19629482616937086
1729787447236637000,2.800636962890625,-0.507886528968811,-0.32140228152275085,0.004103175364434719,-0.3497541844844818,0.2559202313423157,-0.9012085795402527,-0.038154780864715576,-0.11843851208686829,-0.07680350542068481,0.9550782655685894,-0.09249883637802807,-0.2020883050905747,0.19603553693660655
1729787447246667800,2.810667724609375,-0.5182607769966125,-0.4073221981525421,0.005845681764185429,-0.3530637323856354,0.260567843914032,-0.8985824584960938,0.02112400531768799,-0.051110416650772095,-0.01084136962890625,0.9544568567257602,-0.0945978623609978,-0.2043526937992807,0.1957123186533089
1729787447256699000,2.820698974609375,-0.506931722164154,-0.37664952874183655,-0.003984046168625355,-0.3566656708717346,0.26524338126182556,-0.8957876563072205,0.04080876708030701,-0.0030058324337005615,0.008412837982177734,0.9537941335466698,-0.09669049922961781,-0.20677792141433884,0.19537315419549411
1729787447266729700,2.830729736328125,-0.41215938329696655,-0.3415585160255432,-0.010199065320193768,-0.3598400354385376,0.26940470933914185,-0.8932728171348572,0.02574881911277771,0.04279014468193054,0.022407948970794678,0.9532050667817652,-0.09856912784793971,-0.20892037416574633,0.19503010624303072
1729787447276760800,2.8407607421875,-0.2883540689945221,-0.3470371961593628,-0.027704287320375443,-0.36298203468322754,0.2724102735519409,-0.8910873532295227,0.02814316749572754,0.03824344277381897,0.018437206745147705,0.9526906865321672,-0.09985533947420865,-0.21091522208759414,0.19474118927344278
1729787447286791700,2.850791748046875,-0.2644352912902832,-0.3808632791042328,-0.03798382356762886,-0.36629530787467957,0.2747136056423187,-0.8890220522880554,0.030754506587982178,0.015218645334243774,0.02317732572555542,0.9522055628962728,-0.10076816295996319,-0.21291961639376736,0.1944621394692789
1729787447296822800,2.86082275390625,-0.3706192374229431,-0.36702442169189453,-0.0053169578313827515,-0.36974653601646423,0.2773708403110504,-0.8867654800415039,0.020961105823516846,-0.007625937461853027,0.053681373596191406,0.9516660254448907,-0.10184549947862555,-0.21504596841660015,0.19420273601002933
1729787447306854000,2.87085400390625,-0.39167267084121704,-0.40933090448379517,0.01536035630851984,-0.3731239438056946,0.2809301018714905,-0.8842266798019409,0.006012707948684692,-0.013672411441802979,0.001566767692565918,0.9510361816139197,-0.10337476633605185,-0.21725635830231999,0.19401922524796425
1729787447316883700,2.8808837890625,-0.30714258551597595,-0.4352432191371918,-0.01962505653500557,-0.3769112527370453,0.28398144245147705,-0.8816419243812561,-0.0047416090965271,-0.02261364459991455,-0.0857500433921814,0.9503883320166041,-0.1046018403203914,-0.2196303506252178,0.19386372509585453
1729787447326914800,2.890914794921875,-0.31628477573394775,-0.4396066963672638,-0.029490206390619278,-0.3808687627315521,0.28661710023880005,-0.879084587097168,-0.017599284648895264,0.0016367137432098389,-0.08137989044189453,0.9497668546690956,-0.1056252363203758,-0.22203833249557817,0.1936116121448581
1729787447336945700,2.900945556640625,-0.2245069146156311,-0.45072299242019653,0.035044312477111816,-0.3847479820251465,0.2890990972518921,-0.8765789866447449,-0.009432315826416016,0.0611359179019928,-0.04236632585525513,0.9491204506149444,-0.10653620427618977,-0.224411564325808,0.19354553572547936
1729787447346976800,2.910976806640625,-0.15160754323005676,-0.4812662899494171,0.04198877140879631,-0.3887072503566742,0.2908577620983124,-0.8742473721504211,0.028309911489486694,0.05214455723762512,-0.021260440349578857,0.9484501995951757,-0.10698969459948576,-0.2267807981222933,0.19381926605378674
1729787447357007600,2.921007568359375,-0.1913086175918579,-0.4686751365661621,-0.04521510377526283,-0.39290493726730347,0.2923402488231659,-0.8718731999397278,0.03337734937667847,0.0062895119190216064,-0.007826507091522217,0.9478105118312474,-0.10732798727379461,-0.22922501213248045,0.1938860619508333
1729787447367038700,2.931038818359375,-0.2509225308895111,-0.49326810240745544,-0.07420814037322998,-0.3972359597682953,0.29406267404556274,-0.86932772397995,0.0129585862159729,-0.010066062211990356,0.024967432022094727,0.9472030740280862,-0.10786934361660629,-0.23173331187739465,0.1935723341345503
1729787447377069800,2.94106982421875,-0.24823781847953796,-0.5621883273124695,-0.0799829363822937,-0.4020640552043915,0.2959626019001007,-0.8664587140083313,0.030390441417694092,-0.023288041353225708,0.0330541729927063,0.9465186558069412,-0.10846718158997351,-0.23453257224814378,0.19321451303288298
1729787447387100700,2.9511005859375,-0.29002538323402405,-0.5896625518798828,-0.09262123703956604,-0.4073447585105896,0.29792988300323486,-0.863312304019928,0.029109865427017212,-0.028932660818099976,-0.009963512420654297,0.945774083523442,-0.10907598666275772,-0.23758428189163117,0.1927892393795559
1729787447397132000,2.961132080078125,-0.3274577260017395,-0.5790255665779114,-0.04592563584446907,-0.4126617908477783,0.3003193438053131,-0.8599526882171631,-0.0007293522357940674,0.0028423070907592773,0.00036406517028808594,0.9449677191898942,-0.10989613165126157,-0.24072081091268738,0.19238626847368
1729787447407163000,2.971162841796875,-0.28319883346557617,-0.5428970456123352,0.022772200405597687,-0.4175337255001068,0.3030281960964203,-0.856644332408905,-0.0035935938358306885,0.009197145700454712,0.059525251388549805,0.9441147309316534,-0.1108515527820566,-0.24370013435906104,0.19227531589837504
1729787447417194000,2.981194091796875,-0.20923489332199097,-0.4640882909297943,0.0016868887469172478,-0.4218646287918091,0.30513444542884827,-0.8537700176239014,-0.015040308237075806,-0.02325880527496338,0.04012560844421387,0.9433401020629039,-0.11150480329703166,-0.24633649941751545,0.192339620408229
1729787447427224800,2.991224853515625,-0.21907246112823486,-0.3696744441986084,-0.031940046697854996,-0.4254433810710907,0.30692464113235474,-0.8513490557670593,-0.05238562822341919,-0.03650835156440735,0.041763484477996826,0.9427222287770087,-0.11211560637784486,-0.24850668140725374,0.19222200080843077
1729787447437256000,3.001255859375,-0.19134202599525452,-0.28382983803749084,-0.012045434676110744,-0.4282732307910919,0.30860835313796997,-0.8493191003799438,-0.06109139323234558,-0.007933884859085083,-0.013016104698181152,0.942221921304192,-0.1127625511449121,-0.2502499752948902,0.19203530809552308
1729787447447286800,3.011286865234375,-0.09023652225732803,-0.2725532054901123,0.03167647868394852,-0.43059638142585754,0.3098706603050232,-0.847683310508728,-0.025092124938964844,0.035161107778549194,-0.13786661624908447,0.9417812714581864,-0.11318333958550546,-0.25169006005848915,0.19206712435635906
1729787447457318000,3.02131787109375,-0.07923393696546555,-0.2920560836791992,-0.00016267644241452217,-0.4329374134540558,0.31059372425079346,-0.8462249636650085,0.0283658504486084,0.01830950379371643,-0.12295222282409668,0.9413605831166217,-0.1132888703169677,-0.2530872123953075,0.19223089681369201
1729787447467348700,3.0313486328125,-0.20770542323589325,-0.26503312587738037,-0.07053564488887787,-0.4354221820831299,0.31165093183517456,-0.8445598483085632,0.031430453062057495,-0.022481590509414673,-0.08131295442581177,0.9409587206526713,-0.11365044321993927,-0.2545656436167333,0.19203331209216698
1729787447477379800,3.0413798828125,-0.33063215017318726,-0.21554306149482727,-0.0768744945526123,-0.4377434551715851,0.31360384821891785,-0.8426347374916077,-0.0018012523651123047,-0.04907745122909546,-0.015031278133392334,0.9405634533126106,-0.11459296934424226,-0.2560294507163992,0.191462200471144
1729787447487410700,3.05141064453125,-0.40407559275627136,-0.09039884060621262,-0.060457706451416016,-0.4392642676830292,0.3165038824081421,-0.8407569527626038,-0.022329390048980713,-0.0650390088558197,0.04131847620010376,0.9402069017919803,-0.11613957242922367,-0.2571636172131661,0.19076072301101213
1729787447497441800,3.06144189453125,-0.3309401273727417,0.08621986955404282,-0.09355254471302032,-0.43954384326934814,0.3193863332271576,-0.8395198583602905,-0.050232768058776855,-0.0634048581123352,0.004223227500915527,0.9400465511979782,-0.11783312942701102,-0.2575954497875067,0.1899277896573864
1729787447507472600,3.07147265625,-0.011307483538985252,0.23151028156280518,-0.1375434398651123,-0.4385210871696472,0.32036060094833374,-0.8396835327148438,-0.08142215013504028,-0.011629492044448853,-0.15486907958984375,0.9402673116160764,-0.11867413141806771,-0.2570499896233754,0.1890484123227998
1729787447517504000,3.08150390625,0.27671632170677185,0.24687165021896362,-0.1511913388967514,-0.4368875026702881,0.3185752332210541,-0.8412129282951355,-0.0752890408039093,0.04632347822189331,-0.2302592396736145,0.9408033346386896,-0.11807741984342131,-0.2558344383508461,0.18840304645810899
1729787447527534800,3.091534912109375,0.4429934322834015,0.21218737959861755,-0.19356809556484222,-0.43553173542022705,0.3147103488445282,-0.8433679938316345,-0.03668203949928284,0.06003028154373169,-0.18228203058242798,0.9414663285477477,-0.11632561091882301,-0.2545277250005523,0.18795018000316202
1729787447537566000,3.10156591796875,0.4092693030834198,0.2731809914112091,-0.21635863184928894,-0.43418237566947937,0.3101263642311096,-0.8457584381103516,-0.016196072101593018,0.02988526225090027,-0.08466148376464844,0.9422146408934624,-0.11423434112089934,-0.2531230978533143,0.18737882095442615
1729787447547597000,3.11159716796875,0.31787678599357605,0.3302575945854187,-0.21819435060024261,-0.4322844445705414,0.30610743165016174,-0.8481912612915039,-0.019253641366958618,-0.024918437004089355,-0.025877952575683594,0.9430046221793509,-0.11252906875145115,-0.2514788036668445,0.18664907487358057
1729787447557628000,3.1216279296875,0.1832936853170395,0.4205728769302368,-0.25374433398246765,-0.42985644936561584,0.3029516935348511,-0.8505549430847168,-0.033491939306259155,-0.07338318228721619,-0.0336308479309082,0.943830115041613,-0.1113915753451045,-0.2496286043092082,0.18564028040634314
1729787447567659000,3.131658935546875,0.11580140143632889,0.47561731934547424,-0.24080751836299896,-0.42670509219169617,0.3007010817527771,-0.8529371023178101,-0.04936915636062622,-0.05623999238014221,-0.02493155002593994,0.9447078168566654,-0.1108504261281723,-0.2474745160132729,0.18437968861921464
1729787447577689900,3.14168994140625,0.1826683133840561,0.4159039258956909,-0.23052717745304108,-0.42357486486434937,0.2984723150730133,-0.8552769422531128,-0.028710931539535522,-0.011240839958190918,-0.05898392200469971,0.9455529793649726,-0.11028838007512147,-0.2453527958662206,0.18321637275726582
1729787447587721000,3.151720947265625,0.22771568596363068,0.3865695297718048,-0.2863297164440155,-0.42093148827552795,0.2955816984176636,-0.8575827479362488,0.006792664527893066,0.0015679895877838135,-0.07977986335754395,0.9463884538450388,-0.10933912448778275,-0.2434205659652691,0.18204529555489032
1729787447597752000,3.161751953125,0.18309788405895233,0.39154139161109924,-0.32196253538131714,-0.41848862171173096,0.2924875020980835,-0.859836220741272,-0.001387476921081543,0.010582566261291504,-0.024792015552520752,0.947254615271505,-0.10832617721469964,-0.24155190758622544,0.180628981514588
1729787447607783200,3.171783203125,0.11516303569078445,0.38522782921791077,-0.3004058599472046,-0.4160515069961548,0.28989583253860474,-0.8618941903114319,-0.013254553079605103,-0.0014436542987823486,0.043336451053619385,0.9480864412855518,-0.10759395496110896,-0.23974246330786075,0.17910696432865744
1729787447617814000,3.18181396484375,0.07199425995349884,0.4265049695968628,-0.29673096537590027,-0.41342878341674805,0.2878826856613159,-0.8638288378715515,-0.01694539189338684,-0.03655517101287842,0.059766948223114014,0.94888128696491,-0.10716913806981712,-0.23790831596251424,0.17759177455840527
1729787447627845000,3.19184521484375,0.019292768090963364,0.488408625125885,-0.32403314113616943,-0.41037100553512573,0.28616052865982056,-0.8658567070960999,-0.038924068212509155,-0.05663779377937317,0.051662981510162354,0.9497274469806832,-0.10696629246930398,-0.23585982089260435,0.17591568066360386
1729787447637876000,3.2018759765625,-0.06481917947530746,0.5253410935401917,-0.30880093574523926,-0.4068641662597656,0.28508302569389343,-0.8678647875785828,-0.051891326904296875,-0.047228991985321045,0.07753580808639526,0.9505937087866895,-0.10716564636585221,-0.2336303575557422,0.1740806274539778
1729787447647907000,3.211906982421875,-0.12757503986358643,0.5087310671806335,-0.2542349100112915,-0.40314146876335144,0.284796804189682,-0.8696940541267395,-0.029582560062408447,-0.01700502634048462,0.0784037709236145,0.9513909513564539,-0.1077577845848323,-0.2313897642672638,0.17234390561594745
1729787447657938000,3.22193798828125,-0.1960158795118332,0.4856502413749695,-0.20994733273983002,-0.39947566390037537,0.28526559472084045,-0.8712306022644043,0.0007024407386779785,-0.002749115228652954,0.0623774528503418,0.9520738434851551,-0.10868012879071083,-0.22928873917006684,0.170794665854978
1729787447667969000,3.231968994140625,-0.32177719473838806,0.46276453137397766,-0.1640448272228241,-0.39587774872779846,0.2867831885814667,-0.8723739385604858,0.006503939628601074,-0.005884110927581787,0.05317533016204834,0.952634326213478,-0.11010774582102524,-0.2273528733545994,0.16933665871609732
1729787447677999900,3.241999755859375,-0.33291053771972656,0.4283823072910309,-0.14480535686016083,-0.3923942446708679,0.28916555643081665,-0.8731609582901001,0.0038291513919830322,-0.0002861320972442627,0.015525460243225098,0.9530822817701509,-0.11194284967663656,-0.2255843693880518,0.16797275736215309
1729787447688031000,3.252031005859375,-0.2685818374156952,0.3652617335319519,-0.14940916001796722,-0.389371782541275,0.29116639494895935,-0.8738487958908081,-0.004137128591537476,0.008104264736175537,-0.0801917314529419,0.9534851192731472,-0.1135164673341498,-0.22403037811021442,0.16670477058270042
1729787447698061800,3.262061767578125,-0.2140946090221405,0.38942644000053406,-0.13964174687862396,-0.38655799627304077,0.2928076386451721,-0.874549388885498,-0.0061574578285217285,0.02115723490715027,-0.05799150466918945,0.9538774928169016,-0.11486734261543077,-0.2225551593054697,0.1655070309841361
1729787447708092000,3.272091796875,0.060019493103027344,0.4550569951534271,-0.11512628197669983,-0.38324302434921265,0.2930709421634674,-0.8759191036224365,-0.008495897054672241,0.05879676342010498,-0.0022852420806884766,0.9543992626945969,-0.11548368526184957,-0.22068975628897364,0.16456550647509896
1729787447718123000,3.282123046875,0.26568663120269775,0.5292718410491943,-0.08846110850572586,-0.37921538949012756,0.2911418378353119,-0.8783121109008789,-0.016307711601257324,0.0834309458732605,-0.024458885192871094,0.955127665125416,-0.11494173618430113,-0.21824837096448285,0.1639732099824307
1729787447728153900,3.29215380859375,0.3990188539028168,0.5308287143707275,-0.033869240432977676,-0.37465155124664307,0.28796276450157166,-0.8813136219978333,-0.01818600296974182,0.10694998502731323,0.014263451099395752,0.9559552449580611,-0.11371793282660839,-0.21543312053551947,0.16372658186335975
1729787447738185000,3.30218505859375,0.41114741563796997,0.4809088110923767,-0.009050976485013962,-0.3702210485935211,0.28419938683509827,-0.8844021558761597,0.0039185285568237305,0.08370530605316162,0.03290069103240967,0.9567499150217603,-0.11211249540854108,-0.21267280541788366,0.16380123758995363
1729787447748215800,3.3122158203125,0.2547071576118469,0.44133222103118896,-0.0027480730786919594,-0.366134911775589,0.28118833899497986,-0.8870616555213928,0.01460292935371399,0.01875370740890503,0.07291370630264282,0.9574318555885734,-0.11086984476980023,-0.21018339976167152,0.1638752235612969
1729787447758247000,3.322246826171875,0.10281349718570709,0.4016820192337036,-0.008883463218808174,-0.3624158799648285,0.27963632345199585,-0.8890771865844727,0.011890947818756104,-0.03230658173561096,0.09211063385009766,0.9579698261811075,-0.11038043813655288,-0.2080325870808568,0.16380621488251557
1729787447768277800,3.33227783203125,0.02344823256134987,0.38433581590652466,-0.02534845843911171,-0.3589954674243927,0.279034823179245,-0.8906524777412415,-0.0015086829662322998,-0.06355020403862,0.08541566133499146,0.9584224631522031,-0.1103931987560446,-0.20612402023778523,0.1635621748080854
1729787447778308900,3.342308837890625,-0.03906334936618805,0.3643764853477478,0.012857784517109394,-0.3556247055530548,0.279150128364563,-0.8919676542282104,-0.022945880889892578,-0.0518551766872406,0.07489001750946045,0.9588103602139509,-0.1107730189091191,-0.20431720048423244,0.1632987715306509
1729787447788340000,3.352340087890625,0.09028925001621246,0.2937169373035431,0.03410714864730835,-0.35260647535324097,0.27909326553344727,-0.8931828737258911,-0.019967377185821533,-0.004435032606124878,-0.012746691703796387,0.9591321405301371,-0.11098625419416987,-0.20270820659772543,0.16326988143629922
1729787447798371000,3.36237109375,0.19585907459259033,0.25992992520332336,0.029393088072538376,-0.35005760192871094,0.27785491943359375,-0.8945704698562622,-0.008935928344726562,0.03708648681640625,-0.07157021760940552,0.9594699362219344,-0.1105213990969883,-0.20124557896499512,0.16340981001794372
1729787447808402200,3.372402099609375,0.2649173140525818,0.2294648140668869,0.07336880266666412,-0.34770068526268005,0.2759990692138672,-0.8960629105567932,0.009504884481430054,0.07275581359863281,0.013021588325500488,0.9598016563380185,-0.10968529842968835,-0.19984411791959678,0.1637446158525156
1729787447818433000,3.38243310546875,0.4019838273525238,0.20610596239566803,0.07748391479253769,-0.3455308675765991,0.27330511808395386,-0.8977264165878296,0.04410871863365173,0.05964168906211853,0.04633176326751709,0.9601302604591312,-0.1083497863037666,-0.19848705315881357,0.16435653919556165
1729787447828464000,3.392464111328125,0.393734335899353,0.18055003881454468,0.022538375109434128,-0.3436492681503296,0.26977649331092834,-0.8995141983032227,0.03381958603858948,0.025709956884384155,0.004921972751617432,0.9605035045288345,-0.1065827547678402,-0.19718774925686205,0.1648942783843742
1729787447838495000,3.402494873046875,0.2971707880496979,0.13650934398174286,0.044549401849508286,-0.3421444892883301,0.2667933702468872,-0.9009764194488525,0.0025601089000701904,0.01892748475074768,0.08881211280822754,0.9608180770516441,-0.10509899238097845,-0.1961275039801888,0.16527857671795762
1729787447848526000,3.412526123046875,0.192611962556839,0.0893985703587532,0.11901458352804184,-0.3409464657306671,0.2647932767868042,-0.9020199775695801,0.007343560457229614,-0.0052259862422943115,0.15595674514770508,0.96098635883483,-0.10405110849644884,-0.19535447388834018,0.16587763608153944
1729787447858557000,3.422556884765625,0.02039412036538124,0.09468254446983337,0.11918901652097702,-0.3398211896419525,0.2642664313316345,-0.9025989174842834,0.004417717456817627,-0.054793745279312134,0.13494455814361572,0.9610246999977357,-0.103740877251192,-0.19477772384754768,0.1665265775214894
1729787447868588000,3.432588134765625,-0.10046751797199249,0.09294019639492035,0.08730538934469223,-0.33866414427757263,0.26504993438720703,-0.9028040170669556,-0.025135904550552368,-0.07243826985359192,0.09776562452316284,0.9610078874721526,-0.10415237030519847,-0.19429426937307817,0.16693092300355508
1729787447878619000,3.442618896484375,-0.1228516548871994,0.0658678337931633,0.06798974424600601,-0.3377544581890106,0.2663719952106476,-0.9027557373046875,-0.02934148907661438,-0.0645744800567627,0.0359039306640625,0.9609589473069734,-0.1048584688381088,-0.19397637605602883,0.1671405149598128
1729787447888650000,3.45264990234375,-0.1267589032649994,0.052378442138433456,0.06813622266054153,-0.3370439410209656,0.26774755120277405,-0.9026143550872803,-0.008170902729034424,-0.03666841983795166,-0.018589258193969727,0.9608904683602437,-0.10558153644463789,-0.1937662659603742,0.16732264521164827
1729787447898680000,3.46268017578125,-0.0055246297270059586,0.049665745347738266,0.05081688612699509,-0.336438924074173,0.2686465084552765,-0.9025729298591614,0.009610891342163086,-0.0010531246662139893,-0.05813568830490112,0.9608462218835144,-0.10605086913742535,-0.19356326242329705,0.1675146465327153
1729787447908711000,3.4727109375,0.1266864687204361,0.03971729427576065,0.029398944228887558,-0.3358932435512543,0.26815271377563477,-0.9029229879379272,0.015916436910629272,0.023976802825927734,-0.08726561069488525,0.960894904811104,-0.10579403041111562,-0.19325150081855724,0.1677576437528531
1729787447918742000,3.482741943359375,0.08100233972072601,0.031262025237083435,0.03687337413430214,-0.3355349004268646,0.26722973585128784,-0.9033297300338745,0.012338519096374512,0.03594714403152466,-0.03247648477554321,0.9609606835287161,-0.10530595795895935,-0.1929916898363719,0.16798640663349929
1729787447928772900,3.49277294921875,-0.00448160246014595,0.021171309053897858,0.0934426411986351,-0.3353796601295471,0.2672964632511139,-0.9033676385879517,0.003119528293609619,0.032523512840270996,0.06450045108795166,0.9609130980918792,-0.10528664812860708,-0.1929531049138208,0.16831506733044962
1729787447938804000,3.502803955078125,-0.13411389291286469,0.028198592364788055,0.09648077934980392,-0.33522361516952515,0.2681295573711395,-0.9031786322593689,-0.0003018975257873535,-0.02581995725631714,0.1015581488609314,0.9607977268630383,-0.10564883889265136,-0.1929999954468169,0.16869226989169622
1729787447948834800,3.512834716796875,-0.23180097341537476,0.05134545639157295,0.0683937519788742,-0.3349880874156952,0.26980361342430115,-0.9027674198150635,-0.02412751317024231,-0.07323986291885376,0.09881234169006348,0.96066664615486,-0.10649516552927066,-0.19306754012867172,0.16882928095902058
1729787447958866000,3.522865966796875,-0.2708309292793274,0.03957881033420563,0.08568618446588516,-0.33463600277900696,0.2720363438129425,-0.9022277593612671,-0.036076247692108154,-0.0738857090473175,0.07930606603622437,0.9605198699648195,-0.10765690434507215,-0.19312199045904835,0.16886517780506743
1729787447968896800,3.532896728515625,-0.3137480616569519,0.03174065053462982,0.09779638051986694,-0.3341245949268341,0.27467668056488037,-0.901617169380188,-0.015530586242675781,-0.05328688025474548,0.02698338031768799,0.9603375202546518,-0.10902077067602059,-0.19314734108956003,0.1689984469827201
1729787447978928000,3.54292822265625,-0.3084542155265808,0.029108647257089615,0.07826315611600876,-0.3334294557571411,0.2778237462043762,-0.900909960269928,0.004129499197006226,-0.018073350191116333,-0.02773994207382202,0.9601331247096343,-0.11066288988771746,-0.19312880012789493,0.16911390375605412
1729787447988959000,3.552958984375,-0.18594813346862793,0.005974139086902142,0.007980471476912498,-0.3330019414424896,0.28012362122535706,-0.9003557562828064,0.019006580114364624,0.011136174201965332,-0.0815625786781311,0.9599934233040627,-0.11187915960276278,-0.19314546821607442,0.16908786198215328
1729787447998990000,3.562989990234375,-0.15806908905506134,0.007908659055829048,-0.01427236944437027,-0.33286479115486145,0.28172966837882996,-0.899905264377594,0.02114298939704895,0.03000742197036743,-0.099881112575531,0.9599111940951378,-0.11275215130425284,-0.19322092872566887,0.168888410329666
1729787448009021000,3.57302099609375,-0.042200420051813126,0.0027027656324207783,-0.014349868521094322,-0.3329392671585083,0.2827567160129547,-0.899555504322052,0.0198746919631958,0.04607018828392029,-0.038646399974823,0.9598476048363981,-0.11330329728496097,-0.19335101204186778,0.1687318004115769
1729787448019052000,3.583052001953125,-0.03366898000240326,0.014776472933590412,-0.05165595933794975,-0.3331840932369232,0.28283247351646423,-0.8994410037994385,-0.0027991831302642822,0.021198898553848267,-0.021152257919311523,0.9598563490602617,-0.11336647116457618,-0.19346195762105994,0.16851227554178874
1729787448029083100,3.593083251953125,-0.07254194468259811,0.009286312386393547,-0.06640854477882385,-0.3336559534072876,0.2827020585536957,-0.899307131767273,-0.04598274827003479,0.001828610897064209,0.05078113079071045,0.9598958811117532,-0.11334706350851659,-0.1936462877202195,0.1680881672680186
1729787448039114000,3.603114013671875,-0.09619640558958054,0.014550583437085152,-0.05044608563184738,-0.3341689705848694,0.2828693985939026,-0.8990639448165894,-0.07604831457138062,-0.017488539218902588,0.08062827587127686,0.9599087243460738,-0.11347930542068888,-0.19388259459000987,0.16765264546463376
1729787448049145000,3.61314501953125,-0.10198259353637695,0.046313680708408356,-0.03315391391515732,-0.33415886759757996,0.28333935141563416,-0.8989197611808777,-0.08992865681648254,-0.025160610675811768,0.046777427196502686,0.9599311673249644,-0.11379023246354375,-0.19388633956379933,0.16730876356580543
1729787448059176000,3.623176025390625,-0.07693156599998474,0.03761845827102661,-0.040236856788396835,-0.333802729845047,0.28383833169937134,-0.8988946080207825,-0.09075784683227539,0.00571247935295105,-0.023102402687072754,0.9599759230733259,-0.11413386239870804,-0.19371665739775007,0.1670140910684025
1729787448069207000,3.63320703125,-0.023782994598150253,-0.020556963980197906,-0.05406665429472923,-0.3335740566253662,0.2841111123561859,-0.8988933563232422,-0.06512284278869629,0.05776205658912659,-0.05169868469238281,0.9600224804153956,-0.11434623082640336,-0.19359302525225405,0.1667446864000958
1729787448079238000,3.64323779296875,0.02599281445145607,-0.08129088580608368,-0.06798247247934341,-0.33391574025154114,0.28383657336235046,-0.8988532423973083,-0.02577972412109375,0.09488660097122192,-0.05678945779800415,0.9600528335757461,-0.1142257517478878,-0.1937159357190802,0.16650943376556643
1729787448089268000,3.65326806640625,-0.013169566169381142,-0.13829489052295685,-0.06318105757236481,-0.33489471673965454,0.28371095657348633,-0.8985286355018616,-0.007512539625167847,0.07923462986946106,-0.026245534420013428,0.9600031091742373,-0.11412392530501256,-0.19419429624685008,0.16630846693683646
1729787448099299000,3.663299072265625,-0.04187178611755371,-0.13078397512435913,0.04145960137248039,-0.3361395001411438,0.28414395451545715,-0.8979267477989197,-0.015056788921356201,0.009664028882980347,0.016334950923919678,0.9598582515433193,-0.11426052789377575,-0.19488752976489904,0.16623983529134734
1729787448109330000,3.673329833984375,0.10171913355588913,-0.091157466173172,0.2298918217420578,-0.33738794922828674,0.28429490327835083,-0.8974106311798096,0.0076149702072143555,-0.10524824261665344,0.01787877082824707,0.9595939783916345,-0.1140859956183488,-0.19565039080853,0.16698775239328226
1729787448119361000,3.683361083984375,-0.0752606987953186,0.12855544686317444,0.28937485814094543,-0.33689209818840027,0.28499969840049744,-0.897373378276825,0.13918393850326538,-0.18624478578567505,0.03885287046432495,0.9593612261910851,-0.11422665607762915,-0.1956159298585271,0.1682645168612137
1729787448129391900,3.693391845703125,-0.315927118062973,-0.005831867456436157,0.070258229970932,-0.33588656783103943,0.28732216358184814,-0.897009551525116,0.29809051752090454,-0.13192662596702576,0.14160799980163574,0.959143084185929,-0.11535517473859436,-0.19541851311065914,0.1689653938991602
1729787448139423000,3.703423095703125,-0.46211016178131104,-0.2681039571762085,-0.3189854025840759,-0.33746615052223206,0.2905297577381134,-0.8953821063041687,0.33020293712615967,-0.042040348052978516,0.0906488299369812,0.9588825605093529,-0.11706239198466149,-0.19648242343792757,0.1680343125924059
1729787448149453800,3.713453857421875,-0.2492741048336029,-0.40352028608322144,-0.4482909142971039,-0.3418164849281311,0.29258084297180176,-0.8930609822273254,0.1239972710609436,0.10542941093444824,-0.025502800941467285,0.958650654823336,-0.11821014905617044,-0.19873566583938457,0.16588963760571362
1729787448159485000,3.72348486328125,0.20523375272750854,-0.2061198353767395,-0.10433488339185715,-0.34562113881111145,0.2917831540107727,-0.891856849193573,-0.17175865173339844,0.1838638186454773,-0.134815514087677,0.9585604492207331,-0.11777078470013196,-0.2005034171397296,0.16459154743127052
1729787448169516000,3.73351611328125,0.43570810556411743,0.12622486054897308,0.3882244825363159,-0.34552451968193054,0.2891376316547394,-0.892755389213562,-0.31870582699775696,0.12245291471481323,-0.1447811722755432,0.9586027899749168,-0.11618657579283583,-0.20030719767227753,0.16570570192249248
1729787448179547100,3.743547119140625,0.15879260003566742,0.2483702152967453,0.46574458479881287,-0.34225594997406006,0.2879183888435364,-0.8944070339202881,-0.20591607689857483,-0.02145412564277649,-0.019182443618774414,0.9586115532801193,-0.11531764013153309,-0.19874188400342035,0.16812946216898714
1729787448189578000,3.753577880859375,-0.19934649765491486,-0.0190273504704237,0.08279985189437866,-0.34027886390686035,0.28919875621795654,-0.8947482109069824,0.008201837539672852,-0.13319289684295654,0.10747098922729492,0.9584720631403916,-0.11586585679250105,-0.19799242221442087,0.16942667646224316
1729787448199609000,3.763609130859375,-0.25254687666893005,-0.2459193468093872,-0.29978400468826294,-0.3419961929321289,0.29094019532203674,-0.8935280442237854,0.1140909492969513,-0.15802088379859924,0.06572353839874268,0.9582880334673077,-0.11677756161831492,-0.19899490543773882,0.1686654112746573
1729787448209640000,3.773639892578125,-0.11566278338432312,-0.13433057069778442,-0.20975318551063538,-0.3446921408176422,0.29173919558525085,-0.8922306895256042,0.06341159343719482,-0.043905943632125854,-0.03162795305252075,0.9582048178977066,-0.11727443115780908,-0.20032816303411233,0.16720903773542492
1729787448219671000,3.783671142578125,0.20762258768081665,0.05003555491566658,0.1366036832332611,-0.3450786769390106,0.2912391126155853,-0.8922446370124817,-0.01309087872505188,0.10989922285079956,-0.03133934736251831,0.9582227277950022,-0.11700373780398204,-0.20046895661959951,0.16712770689581435
1729787448229702000,3.793701904296875,0.21331296861171722,0.1367960125207901,0.18431662023067474,-0.34367141127586365,0.28971534967422485,-0.8932832479476929,-0.02032703161239624,0.10190150141716003,-0.02862226963043213,0.9583080763238311,-0.11611308533587407,-0.19969004888453443,0.16818846312779034
1729787448239733000,3.80373291015625,0.013087737374007702,0.053139735013246536,0.024562645703554153,-0.3423720598220825,0.2891484200954437,-0.8939656615257263,0.0043135881423950195,0.010518968105316162,0.03456014394760132,0.9583879507707789,-0.11581110325543328,-0.1990099657889896,0.16874651692340517
1729787448249763800,3.813763916015625,-0.12061759829521179,-0.07490532100200653,-0.09205637872219086,-0.3426590859889984,0.28948476910591125,-0.8937467932701111,0.05654153227806091,-0.06916311383247375,0.07407522201538086,0.9583724569493058,-0.11600958548831096,-0.19916923357816813,0.16850994363601973
1729787448259795000,3.823794921875,-0.12768429517745972,-0.0946396067738533,-0.0986756682395935,-0.34375831484794617,0.29038435220718384,-0.8930325508117676,0.04479286074638367,-0.07647138833999634,0.018017351627349854,0.9582858827102787,-0.1165007196261735,-0.19977810899069548,0.16794219819603043
1729787448269826000,3.833825927734375,-0.0007619657553732395,-0.008100454695522785,-0.008751637302339077,-0.3444177210330963,0.2907853126525879,-0.8926479816436768,-0.048633426427841187,-0.017698734998703003,-0.03180575370788574,0.9582406931334612,-0.11671922037166928,-0.20013156428964346,0.16762746928971187
1729787448279855900,3.84385595703125,0.1060936376452446,0.07318668067455292,0.11164961010217667,-0.3439456522464752,0.29045483469963074,-0.8929375410079956,-0.10324370861053467,0.02953726053237915,-0.024649739265441895,0.9582644693520124,-0.11652584464213098,-0.19988238196689398,0.1679229547786633
1729787448289887000,3.853886962890625,0.08766283839941025,0.08013391494750977,0.14172734320163727,-0.3427896201610565,0.29000771045684814,-0.8935271501541138,-0.051558494567871094,0.04289326071739197,0.010119616985321045,0.9582948285272876,-0.11624325099323367,-0.19930861318701878,0.16862569791140947
1729787448299917800,3.863917724609375,-0.01792670413851738,0.015608977526426315,0.06657055020332336,-0.3420325517654419,0.2900191843509674,-0.8938135504722595,0.04607304930686951,0.02257239818572998,0.03175300359725952,0.9582787259895924,-0.11620332627596752,-0.19897241742989535,0.16914112845086912
1729787448309949000,3.873948974609375,-0.07575152069330215,-0.09237363189458847,-0.011489898897707462,-0.34226667881011963,0.2906360924243927,-0.8935235142707825,0.09264811873435974,-0.008058547973632812,0.03570491075515747,0.9581852121065663,-0.11647971033472143,-0.19917512192783698,0.16924254531326943
1729787448319980000,3.88397998046875,-0.053503476083278656,-0.12498696893453598,-0.06469187140464783,-0.34346482157707214,0.291043758392334,-0.892930805683136,0.057606667280197144,-0.0392279326915741,-0.009611308574676514,0.958063704203189,-0.11663093689116988,-0.1998294737733732,0.16905421689377814
1729787448330011000,3.894010986328125,-0.07369402796030045,-0.05183722823858261,-0.0244472436606884,-0.3443494737148285,0.29126399755477905,-0.8925182223320007,-0.042399823665618896,-0.03647273778915405,-0.022276699542999268,0.9580043995674853,-0.11672952227328774,-0.20028758202082944,0.16878035541080955
1729787448340042000,3.9040419921875,-0.03453117981553078,0.0116235027089715,0.08861113339662552,-0.34425118565559387,0.2915368974208832,-0.8924670219421387,-0.09494256973266602,-0.000902712345123291,0.05434751510620117,0.9579730126504927,-0.11685611190375647,-0.2002776408045177,0.1688827981350244
1729787448350072800,3.91407275390625,-0.029597274959087372,0.03656570985913277,0.12670232355594635,-0.3438578248023987,0.2920171022415161,-0.8924616575241089,-0.059126824140548706,0.020849138498306274,0.07141673564910889,0.9578893449452358,-0.11703711461831061,-0.20017861978768822,0.16934846539215628
1729787448360104200,3.924104248046875,0.04628630355000496,-0.034874651581048965,0.0858912467956543,-0.344056636095047,0.2924114167690277,-0.8922559022903442,0.008348017930984497,0.04146614670753479,0.019697368144989014,0.9577482501139725,-0.11712019711226432,-0.20038689768794313,0.16984166404660495
1729787448370135000,3.934135009765625,0.08719884604215622,-0.12477924674749374,0.04774146527051926,-0.34488698840141296,0.29224586486816406,-0.891989529132843,0.059196680784225464,0.028966903686523438,-0.024773776531219482,0.9576029458056938,-0.11687809391415666,-0.20086002377736464,0.17026848783753407
1729787448380166100,3.944166259765625,0.04443966597318649,-0.14288313686847687,0.04726662486791611,-0.34573253989219666,0.29201358556747437,-0.89173823595047,0.059264034032821655,0.0029693543910980225,-0.0005346536636352539,0.9574621083916885,-0.11660082679686637,-0.20133335104984035,0.17069162543392652
1729787448390197000,3.954197021484375,-0.060901135206222534,-0.13719941675662994,0.06233718991279602,-0.3462391197681427,0.2923583984375,-0.8914286494255066,0.015840590000152588,-0.0178375244140625,0.04102587699890137,0.9573115832129109,-0.11665405155175114,-0.20168664022755547,0.17108185868624357
1729787448400228000,3.96422802734375,-0.10251355916261673,-0.14567571878433228,0.07212164252996445,-0.34693101048469543,0.2931568920612335,-0.890897274017334,-0.038994282484054565,-0.022649049758911133,0.060559749603271484,0.9571126800096981,-0.11693604925021725,-0.20218143199027558,0.17141768064557
1729787448410259000,3.974259033203125,-0.12340658903121948,-0.17579874396324158,0.1205645427107811,-0.34829434752464294,0.29413411021232605,-0.890042781829834,-0.057299524545669556,0.00420573353767395,0.04656749963760376,0.9568199324536932,-0.11724310188301157,-0.20305824546139575,0.17180545539205902
1729787448420290000,3.9842900390625,-0.04419379681348801,-0.2926174998283386,0.18365348875522614,-0.350574254989624,0.295502245426178,-0.8886935114860535,-0.030178308486938477,0.04037421941757202,0.04421108961105347,0.9563388125540276,-0.11760477653291235,-0.20450517854514993,0.17251943121362234
1729787448430321000,3.99432080078125,0.020725548267364502,-0.36419662833213806,0.21168965101242065,-0.3534398674964905,0.2964169383049011,-0.887252688407898,-0.0009150207042694092,0.041382163763046265,0.03634631633758545,0.9557596964181679,-0.11759582246429107,-0.20626412248142673,0.17363718694670605
1729787448440352000,4.00435205078125,-0.03928159549832344,-0.3796229660511017,0.2530916929244995,-0.3559248149394989,0.2976672351360321,-0.885839581489563,0.0027753710746765137,0.021409332752227783,0.09549534320831299,0.9551411869006875,-0.11773381171107931,-0.20789168591563997,0.17500074067043656
1729787448450382800,4.0143828125,-0.10376258194446564,-0.37476590275764465,0.2851835787296295,-0.35781726241111755,0.29943040013313293,-0.8844819068908691,0.016203492879867554,0.0027699172496795654,0.14443069696426392,0.9545045446257016,-0.11814533936409939,-0.20928619549852367,0.17652830850320744
1729787448460414000,4.0244140625,-0.16373103857040405,-0.381356418132782,0.248149111866951,-0.3596673011779785,0.3016383945941925,-0.8829800486564636,0.03795096278190613,-0.009279966354370117,0.10038727521896362,0.9538427414715259,-0.11880355868508795,-0.21070286098565036,0.17797234160574424
1729787448470444800,4.03444482421875,-0.17330624163150787,-0.4127226173877716,0.14221550524234772,-0.36250361800193787,0.3036669194698334,-0.881122887134552,0.04910331964492798,-0.011293232440948486,0.022571861743927002,0.9531692506769769,-0.11938028056812175,-0.21257210760731796,0.17896916297771084
1729787448480476000,4.044475830078125,-0.16928380727767944,-0.38217827677726746,0.1293385773897171,-0.3655272126197815,0.30574479699134827,-0.8791530132293701,0.019015341997146606,-0.007176071405410767,-0.014462709426879883,0.9525262155322949,-0.12003639068136657,-0.21451052615968183,0.17963965351307695
1729787448490506000,4.054506103515625,-0.09557688981294632,-0.38014838099479675,0.13384784758090973,-0.3685675263404846,0.30734124779701233,-0.8773251175880432,-0.02382749319076538,0.001054137945175171,-0.10067164897918701,0.951907879019701,-0.120427311986144,-0.21641326149428225,0.18037210995704597
1729787448500536800,4.064536865234375,-0.05195404961705208,-0.3583213686943054,0.12034109979867935,-0.37136128544807434,0.30856406688690186,-0.8757163286209106,-0.05750226974487305,-0.007920116186141968,-0.20025718212127686,0.9513435166697561,-0.12064203029657164,-0.21814525209913516,0.18111792136756502
1729787448510568000,4.07456787109375,-0.029639553278684616,-0.32555505633354187,0.06202133744955063,-0.374118834733963,0.30914926528930664,-0.8743351101875305,-0.054531097412109375,-0.017492741346359253,-0.16933554410934448,0.9508625747669741,-0.12055877898409784,-0.21976813712855695,0.18173606454808755
1729787448520598500,4.0845986328125,-0.10654311627149582,-0.2834148108959198,0.040574099868535995,-0.37660834193229675,0.31006884574890137,-0.8729395866394043,-0.012292414903640747,-0.00855514407157898,-0.0470890998840332,0.950433409096453,-0.12073739715400059,-0.22125253836790745,0.18206150231113113
1729787448530629600,4.094629638671875,0.08486631512641907,-0.27651992440223694,0.0031731994822621346,-0.3789918124675751,0.310261070728302,-0.8718390464782715,0.017907798290252686,0.009303778409957886,0.07955694198608398,0.9500899753749454,-0.12056047755715425,-0.22258853696536426,0.1823419729440782
1729787448540660700,4.10466064453125,0.22890737652778625,-0.24153584241867065,-0.04509979113936424,-0.38133326172828674,0.3088953197002411,-0.8713028430938721,-0.009200215339660645,-0.00021001696586608887,0.0005600452423095703,0.9499082411929344,-0.11960025364506581,-0.2237059496124844,0.18255392768610654
1729787448550691600,4.114691650390625,0.39919355511665344,-0.11351945251226425,-0.05514496564865112,-0.38309550285339355,0.305873841047287,-0.8715956807136536,-0.06259849667549133,0.0217629075050354,0.03901517391204834,0.9499442589934712,-0.11783836717766955,-0.2243128839475509,0.18276719575129213
