time,seconds_elapsed,rotationRateX,rotationRateY,rotationRateZ,gravityX,gravityY,gravityZ,accelerationX,accelerationY,accelerationZ,quaternionW,quaternionX,quaternionY,quaternionZ
1729788026612337400,0.05333740234375,-0.3043176531791687,-0.47885966300964355,-0.005571556277573109,-0.48372557759284973,-0.30819830298423767,-0.8191601037979126,0.020102649927139282,-0.08236557245254517,0.18054920434951782,0.9537189172003149,0.16157711855663004,-0.25359964941633545,9.689608253824947e-17
1729788026622368300,0.0633681640625,-0.24302679300308228,-0.4403788149356842,0.06903290748596191,-0.48764678835868835,-0.3057141900062561,-0.8177648782730103,0.04378402233123779,-0.13982704281806946,0.14967399835586548,0.953352997998087,0.16018125483350407,-0.2558506029546243,-0.0005777494829786917
1729788026632398300,0.0733984375,0.006864262279123068,-0.3262096345424652,0.30825188755989075,-0.49134835600852966,-0.30380770564079285,-0.8162583112716675,0.0568697452545166,-0.1299842894077301,0.1503341794013977,0.9529579737611195,0.1593433234443364,-0.25783824403138667,-0.00021858958670012651
1729788026642429400,0.083429443359375,0.0709465742111206,-0.07017053663730621,0.38238072395324707,-0.4942210018634796,-0.3024906814098358,-0.8150122165679932,0.04317134618759155,-0.12559455633163452,0.1876012682914734,0.9526299581074299,0.15917355310116013,-0.25914794530418345,0.0014978050984788326
1729788026652460300,0.093460205078125,-0.04105186462402344,0.14952214062213898,0.27850836515426636,-0.494803249835968,-0.30094650387763977,-0.8152306079864502,-0.03682810068130493,-0.17630255222320557,0.24201887845993042,0.9526833420530582,0.1587974013472915,-0.2591680460353327,0.0031268823078610497
1729788026662490400,0.103490478515625,-0.13169054687023163,0.21810029447078705,0.29580453038215637,-0.494101345539093,-0.29881545901298523,-0.8164393305778503,-0.17771250009536743,-0.2475559115409851,0.37163031101226807,0.9529948753748648,0.15800375547424886,-0.2584862544588618,0.004522641829288167
1729788026672521500,0.113521484375,-0.12802816927433014,0.1953563690185547,0.3438277244567871,-0.49336594343185425,-0.296082079410553,-0.8178786039352417,-0.1404077410697937,-0.21623167395591736,0.3965223431587219,0.9533639364264552,0.15691425226096523,-0.2577568828845389,0.00603419593565129
1729788026682551300,0.12355126953125,-0.05547168478369713,0.16975568234920502,0.37809115648269653,-0.49295464158058167,-0.2935088872909546,-0.8190532922744751,0.016712695360183716,-0.11173391342163086,0.26956892013549805,0.9536591295024641,0.15599066219293606,-0.25717752484417916,0.007805780826451096
1729788026692582400,0.13358251953125,0.04002021625638008,0.1360911875963211,0.36867555975914,-0.49284854531288147,-0.2915237843990326,-0.8198256492614746,0.07057693600654602,-0.034678518772125244,0.13353103399276733,0.9538438511555256,0.15543252147467804,-0.2567642902923397,0.009722763813734426
1729788026702613200,0.14361328125,0.18677310645580292,0.14095726609230042,0.3121417164802551,-0.4927405118942261,-0.2907378375530243,-0.8201696276664734,0.03950884938240051,0.025585949420928955,0.03217518329620361,0.9539127992128723,0.15551480935582848,-0.2563792708675633,0.011618140096942486
1729788026712643300,0.153643310546875,0.28955087065696716,0.16736090183258057,0.27047520875930786,-0.4923243820667267,-0.29127711057662964,-0.8202281594276428,-0.025482505559921265,0.0424216091632843,-0.004631519317626953,0.9539043095241848,0.15627886253469464,-0.25585704792764047,0.013431452148250556
1729788026722674400,0.16367431640625,0.3634081482887268,0.1853872537612915,0.2822924554347992,-0.4917058050632477,-0.2925693392753601,-0.8201392889022827,-0.07094663381576538,0.04765063524246216,-0.026464104652404785,0.953852751230441,0.15745808474778292,-0.25522008822919606,0.015308980693530991
1729788026732704500,0.17370458984375,0.5193133354187012,0.15872474014759064,0.3433014750480652,-0.49119266867637634,-0.2945878803730011,-0.8197241425514221,-0.053057700395584106,0.09385859966278076,-0.056237220764160156,0.9537062679764313,0.15911561820928827,-0.2545980021927132,0.01750060479900479
1729788026742734000,0.183734130859375,0.7993099093437195,-0.05717362090945244,0.3593185245990753,-0.4916701018810272,-0.29811015725135803,-0.8181630373001099,0.0015273988246917725,0.1172478199005127,-0.08067125082015991,0.953245442799358,0.1617350094105577,-0.2544803723540569,0.020111864598671744
1729788026752765000,0.193764892578125,1.1258007287979126,-0.6276459097862244,0.33365684747695923,-0.49543604254722595,-0.3041931986808777,-0.8136397004127502,0.0369400680065155,0.14081740379333496,-0.10078907012939453,0.951999110551848,0.16588776691653645,-0.2562447972665037,0.022745491776673517
1729788026762795000,0.203794921875,1.0686951875686646,-0.15280437469482422,0.4885993003845215,-0.4988802373409271,-0.31106260418891907,-0.8089242577552795,0.034601181745529175,0.15858161449432373,-0.06314611434936523,0.9506805426531388,0.170609434671732,-0.257740720255018,0.025854546025391122
1729788026772825900,0.213825927734375,1.075391411781311,-0.0795634463429451,0.48065587878227234,-0.5015329122543335,-0.3172532320022583,-0.8048695921897888,0.05178028345108032,0.09659597277641296,0.014662623405456543,0.9495053054375626,0.17511752329809863,-0.25864850934589206,0.02957062600458468
1729788026782857000,0.22385693359375,0.8589229583740234,-0.04562343284487724,0.08511467278003693,-0.5035048723220825,-0.32437974214553833,-0.8007875084877014,0.01987767219543457,0.013481974601745605,0.15167856216430664,0.9483463372503398,0.17981381879257372,-0.2593708630292603,0.03213896518699005
1729788026792887000,0.233886962890625,0.10904230177402496,0.4057557284832001,0.09969254583120346,-0.5038197636604309,-0.32818540930747986,-0.7990369200706482,-0.05967193841934204,-0.02600151300430298,0.17182433605194092,0.9478312848915359,0.18233795044437137,-0.25929599647870943,0.03367928716597348
1729788026802918000,0.24391796875,0.3570566475391388,-0.6692632436752319,-0.37316393852233887,-0.503821074962616,-0.3295190930366516,-0.7984869480133057,-0.09705460071563721,-0.15429124236106873,0.15864014625549316,0.947676060363903,0.1831474118190663,-0.25925575037629517,0.033962133793546734
1729788026812948000,0.253947998046875,-0.5353859663009644,-0.5480614304542542,-0.342183917760849,-0.5097702145576477,-0.33063700795173645,-0.7942376732826233,-0.07013994455337524,-0.1973627805709839,0.17276233434677124,0.94665082711614,0.18329886836718381,-0.2632160699641346,0.031158920256583005
1729788026822979000,0.26397900390625,-0.8226382732391357,0.16771872341632843,-0.4714633524417877,-0.5094543695449829,-0.3270992934703827,-0.7959033846855164,-0.25406473875045776,-0.14361894130706787,-0.05216491222381592,0.9471877223749633,0.1804746732813255,-0.26358529901416805,0.02805065999050968
1729788026833010000,0.274010009765625,-0.37076857686042786,0.31344902515411377,-0.12822771072387695,-0.5065445899963379,-0.3237030804157257,-0.7991425395011902,-0.32115304470062256,0.007418990135192871,-0.08960568904876709,0.9481057039910109,0.17785361453392898,-0.2622914587322605,0.02582046170921316
1729788026843040000,0.2840400390625,0.22655746340751648,0.08204930275678635,0.33556419610977173,-0.5052161812782288,-0.32263460755348206,-0.8004145622253418,-0.23791718482971191,0.1772032082080841,-0.23539787530899048,0.9484214278873982,0.1774021667907135,-0.261383228616548,0.026530800166595123
1729788026853070800,0.29407080078125,0.7801639437675476,-0.042630307376384735,0.39186155796051025,-0.506349503993988,-0.3252192437648773,-0.7986504435539246,0.09948927164077759,0.36037561297416687,-0.3134864568710327,0.947881890914687,0.1795726424424528,-0.2615882916155691,0.02906869073383727
1729788026863102000,0.30410205078125,0.792963981628418,-0.28356578946113586,0.3187450170516968,-0.5089303851127625,-0.3300116956233978,-0.7950358986854553,0.248493492603302,0.437372624874115,-0.26924943923950195,0.9468440475978983,0.18305874233467287,-0.26262432856268353,0.03168874806227319
1729788026873132000,0.314132080078125,0.537573516368866,-0.017522664740681648,0.34685441851615906,-0.5117830038070679,-0.3337451219558716,-0.791638970375061,0.1847110390663147,0.31775403022766113,-0.19073718786239624,0.9458718848873249,0.18586489472537338,-0.26388398335234525,0.03384750480137728
1729788026883163000,0.324162841796875,-1.2253751754760742,-0.4499000012874603,0.219900444149971,-0.5114999413490295,-0.3290270268917084,-0.7937940359115601,0.12588000297546387,0.039049118757247925,0.010865509510040283,0.9463748688189879,0.1837564720189892,-0.2633183441758815,0.03565643190203189
1729788026893193000,0.33419287109375,-1.4378606081008911,-0.6370148062705994,-0.42740508913993835,-0.5188479423522949,-0.31861862540245056,-0.793271005153656,0.09854471683502197,-0.21090704202651978,0.19799506664276123,0.9463550456032425,0.1775072889531023,-0.2680590399336609,0.03236455736920651
1729788026903224000,0.34422412109375,-2.139317035675049,0.1354440301656723,-0.652883768081665,-0.518060564994812,-0.3075506389141083,-0.7981389164924622,0.04522132873535156,-0.5045220255851746,0.4737370014190674,0.9478041434713087,0.1699295407777461,-0.26842967618586405,0.027137846224243187
1729788026913255000,0.3542548828125,-2.732677936553955,0.2487676590681076,-0.21528510749340057,-0.515069305896759,-0.2905004620552063,-0.8064199090003967,-0.21346145868301392,-0.46650323271751404,0.09044688940048218,0.9501287079352756,0.1589451698653948,-0.2674443700503346,0.02156763225524882
1729788026923285000,0.364284912109375,-2.649946928024292,-0.4498426020145416,-0.011371389031410217,-0.5155792236328125,-0.2687146067619324,-0.8136156797409058,0.0885012149810791,-0.12967699766159058,0.038087666034698486,0.952104974535912,0.14602402941856818,-0.2680842223059793,0.017430699053467495
1729788026933316000,0.374316162109375,-2.377800941467285,-0.6070335507392883,-0.07978346943855286,-0.5201979279518127,-0.24851787090301514,-0.8170880675315857,0.3633987307548523,-0.1616535633802414,-0.06755554676055908,0.9530799479310896,0.1342171271862455,-0.27100134304238427,0.013508109641169655
1729788026943347000,0.384346923828125,-2.0366621017456055,-0.30845949053764343,-0.48554906249046326,-0.5234801173210144,-0.23116953670978546,-0.8200787305831909,0.23461610078811646,-0.14979657530784607,-0.16718024015426636,0.9539183708657675,0.12371253601727158,-0.2732322185435103,0.008882160990217592
1729788026953377000,0.394376953125,-1.7334047555923462,0.3078135550022125,-0.8382759690284729,-0.5211470127105713,-0.2196633517742157,-0.8247143626213074,0.06182706356048584,-0.07881374657154083,-0.1754535436630249,0.9551689453380016,0.11585380208615517,-0.27243481427023863,0.0030402817786809298
1729788026963408000,0.404407958984375,-0.5157577991485596,1.32657790184021,-1.0794411897659302,-0.5143654346466064,-0.21509511768817902,-0.8301579356193542,-0.019371628761291504,-0.02227051556110382,-0.20148885250091553,0.9565935860933849,0.11165446162377249,-0.26917337426948773,-0.0027477387901166223
1729788026973438000,0.41443798828125,-0.6516881585121155,0.5713552832603455,-0.24727286398410797,-0.5023130774497986,-0.214707151055336,-0.8376051783561707,0.06861263513565063,0.020356029272079468,-0.2983964681625366,0.9585201751008523,0.11023219701275327,-0.2627666011345682,-0.006445986526042881
1729788026983469000,0.424468994140625,-1.1599057912826538,-1.1379984617233276,1.0295357704162598,-0.5065425634384155,-0.20494654774665833,-0.8375031352043152,0.3522915840148926,0.0016843080520629883,-0.10817563533782959,0.958497442894529,0.10529989281951604,-0.2648780293985108,-0.005827563470012194
1729788026993500000,0.4345,-1.6909841299057007,-1.1871415376663208,1.4021787643432617,-0.5195622444152832,-0.18641270697116852,-0.8338497281074524,0.6060339212417603,-0.1645088493824005,0.09938311576843262,0.9575593623456089,0.09671124403060441,-0.27151808696679186,-0.0022083107150867843
1729788027003530000,0.444530029296875,-2.2713491916656494,-0.44565680623054504,1.125462532043457,-0.5285590887069702,-0.16307909786701202,-0.8330849409103394,0.19378137588500977,-0.3374090790748596,-0.01536482572555542,0.9573618027811122,0.08542585533586608,-0.2759709392897351,0.0008837889251240494
1729788027013561000,0.45456103515625,-2.75246524810791,-0.07478100061416626,0.7708868980407715,-0.5319004654884338,-0.13696341216564178,-0.8356571197509766,-0.060811758041381836,-0.43992555141448975,0.009714126586914062,0.958031943283337,0.07200346305122426,-0.27746518570943635,0.0018017137477401423
1729788027023592000,0.464592041015625,-3.0998528003692627,-0.12157332897186279,0.6106277108192444,-0.5334663391113281,-0.10869059711694717,-0.8388086557388306,0.0020638704299926758,-0.46392589807510376,0.02554565668106079,0.9588551972708106,0.05694918231595312,-0.278123107023943,0.0009374326016061587
1729788027033622000,0.4746220703125,-3.358928918838501,-0.3932937979698181,0.7051180005073547,-0.5362206697463989,-0.0779084712266922,-0.8404746055603027,0.12022048234939575,-0.3636350631713867,0.07858794927597046,0.9592897207811713,0.04044629600478927,-0.2795117077683239,-0.0005528164864930531
1729788027043653000,0.484653076171875,-3.3065595626831055,-0.4787828028202057,0.899061918258667,-0.5405491590499878,-0.04530041292309761,-0.8400919437408447,0.23882198333740234,-0.2695188522338867,0.13824862241744995,0.9591890521620386,0.0231787225828929,-0.28180983231214435,-0.001481246449728533
1729788027053683000,0.494682861328125,-2.9867162704467773,-0.42948371171951294,1.0168523788452148,-0.5447053909301758,-0.013443094678223133,-0.8385196924209595,0.25176727771759033,-0.20820602774620056,0.1400333046913147,0.9587793224037706,0.00660786955782505,-0.28407129091812394,-0.0013590198016864806
1729788027063714000,0.504714111328125,-2.506037712097168,-0.3323032855987549,0.9892634749412537,-0.5479491949081421,0.015201528556644917,-0.8363734483718872,0.19805002212524414,-0.17064276337623596,0.14147287607192993,0.9582203994057341,-0.008054771464797519,-0.2859167818470745,-0.00041089528306741184
1729788027073745000,0.514744873046875,-2.055372953414917,-0.2300485521554947,0.8691783547401428,-0.5500329732894897,0.039428628981113434,-0.8342116475105286,0.1528468132019043,-0.12263476848602295,0.09174942970275879,0.9576560048437444,-0.020344563296991195,-0.28719380570502806,0.0008051039501012515
1729788027083775000,0.52477490234375,-1.5731470584869385,-0.19976651668548584,0.8460450172424316,-0.5514143109321594,0.05926461145281792,-0.8321236968040466,0.11678314208984375,-0.021987345069646835,0.11187833547592163,0.9571083839576116,-0.03027397593065173,-0.28813473908322274,0.00227959098096506
1729788027093806000,0.53480615234375,-1.0740938186645508,-0.1533803641796112,0.968321681022644,-0.5523183345794678,0.07524597644805908,-0.8302304148674011,0.12079989910125732,0.0671185702085495,0.15089380741119385,0.9566047355475152,-0.037896186636311446,-0.288874849926425,0.00474709691748228
1729788027103837000,0.5448369140625,-0.7030539512634277,-0.03253383934497833,1.1474010944366455,-0.5522814989089966,0.08840334415435791,-0.828957200050354,0.13797497749328613,0.12561646103858948,0.14925438165664673,0.9562454976328643,-0.04363959336305652,-0.28916604059074813,0.008547024451715195
1729788027113867000,0.554866943359375,-0.3673933446407318,0.11154238134622574,1.354036569595337,-0.5507717132568359,0.09984102845191956,-0.8286629319190979,0.12329685688018799,0.15464508533477783,0.19211196899414062,0.9561076109546254,-0.048054725777921324,-0.28872007909988034,0.013767749274115539
1729788027123898000,0.564898193359375,-0.15493595600128174,0.25941359996795654,1.4345502853393555,-0.5477079153060913,0.10958153009414673,-0.8294624090194702,0.10598140954971313,0.12255047261714935,0.23499518632888794,0.9562052496830014,-0.05126867852440186,-0.2874723139922602,0.02006239752449488
1729788027133928000,0.574927978515625,-0.37171193957328796,0.44390302896499634,1.4050920009613037,-0.5431721210479736,0.11942135542631149,-0.831085205078125,0.059071898460388184,0.09209601581096649,0.2634734511375427,0.9564726373421742,-0.05451720810586283,-0.2854562717238195,0.02650654146014792
1729788027143959000,0.584958984375,-0.697996199131012,0.5665143728256226,1.4733197689056396,-0.5370968580245972,0.13160765171051025,-0.8331905007362366,0.03802776336669922,0.08961431682109833,0.3520655632019043,0.9568384921812618,-0.059175359865072524,-0.2826712594082897,0.03248494442797001
1729788027153990100,0.594990234375,-1.0056171417236328,0.5087698698043823,1.524549126625061,-0.5304239392280579,0.1467667520046234,-0.8349311351776123,0.06643480062484741,0.046729981899261475,0.36651676893234253,0.9570778672785624,-0.06547845081450285,-0.279726683200718,0.038306683244138336
1729788027164020000,0.60502001953125,-1.3159197568893433,0.3642875552177429,1.5131511688232422,-0.5243849754333496,0.16459152102470398,-0.8354220390319824,0.09016579389572144,-0.0026957541704177856,0.38408225774765015,0.9569681025648923,-0.07328744178205741,-0.2773408202414252,0.043852248431665825
1729788027174051000,0.615051025390625,-1.4429789781570435,0.23342247307300568,1.4837894439697266,-0.5192932486534119,0.18416742980480194,-0.8345159292221069,0.06780111789703369,0.001409977674484253,0.40289050340652466,0.9564822263697613,-0.08215499679887338,-0.2756675348887332,0.04898625518217917
1729788027184082000,0.62508203125,-1.2994872331619263,0.1818418949842453,1.3677194118499756,-0.5148496627807617,0.20315292477607727,-0.8328617215156555,0.028826892375946045,0.026339292526245117,0.36406588554382324,0.9557871323170153,-0.09080727256883629,-0.2744506789408768,0.05386773945409022
1729788027194112000,0.635112060546875,-1.0769668817520142,0.2298261970281601,1.2414519786834717,-0.5103510022163391,0.21979068219661713,-0.8314047455787659,-0.030755996704101562,0.09045101702213287,0.27961641550064087,0.9551409263371098,-0.09836036292519447,-0.27317184767079145,0.058378395822547745
1729788027204143000,0.64514306640625,-0.781614363193512,0.22757050395011902,1.2182763814926147,-0.5056648850440979,0.23385408520698547,-0.830430805683136,-0.08091336488723755,0.21223662793636322,0.2520463466644287,0.9546027438629608,-0.10459919431091948,-0.27174182076513725,0.06284039222964019
1729788027214173200,0.655173095703125,-0.4058695137500763,0.25433021783828735,1.2475208044052124,-0.5007351040840149,0.24500957131385803,-0.8302015066146851,-0.08703327178955078,0.29708942770957947,0.23199594020843506,0.9542027432231234,-0.10918788841035156,-0.270143002705911,0.06780632847996292
1729788027224204000,0.6652041015625,-0.10900042206048965,0.26516857743263245,1.259669303894043,-0.49544015526771545,0.25339996814727783,-0.8308594822883606,-0.0945713222026825,0.30006682872772217,0.22484135627746582,0.9539670950919447,-0.11219211067799134,-0.2682968503848823,0.07332328535498961
1729788027234235100,0.675235107421875,-0.0015120450407266617,0.29573872685432434,1.2394580841064453,-0.4899269640445709,0.2599044144153595,-0.8321185111999512,-0.11699125170707703,0.2404617965221405,0.2705950140953064,0.9538336033137734,-0.11415250279182523,-0.2662892232613209,0.07912340430719526
1729788027244265000,0.685264892578125,-0.157814621925354,0.3486368954181671,1.1282950639724731,-0.4840877950191498,0.2663295269012451,-0.8335031867027283,-0.14062216877937317,0.14088180661201477,0.258017897605896,0.9537333656214079,-0.11622075977800242,-0.26408550805849235,0.08452240809474669
1729788027254296000,0.695296142578125,-0.23818910121917725,0.3686889111995697,0.9700985550880432,-0.47828659415245056,0.2731710970401764,-0.8346373438835144,-0.1706695854663849,0.053931593894958496,0.26798689365386963,0.9536173826533881,-0.11877145110383759,-0.26186767703159447,0.08906414676188652
1729788027264327200,0.7053271484375,-0.3706364929676056,0.450485497713089,0.8606322407722473,-0.47235745191574097,0.2799120545387268,-0.8357796669006348,-0.19210165739059448,-0.010182440280914307,0.167597234249115,0.9535659802598011,-0.1215319662733411,-0.2594998053188818,0.09274487697760404
1729788027274357000,0.71535693359375,-0.5335111618041992,0.39816024899482727,0.6839922070503235,-0.46674293279647827,0.2875349521636963,-0.8363460302352905,-0.20150035619735718,0.04264998435974121,0.10384780168533325,0.9534358485515506,-0.1249988591708675,-0.2572980337454634,0.09556653747050894
1729788027284388000,0.72538818359375,-0.25857552886009216,0.44449567794799805,0.5795896649360657,-0.461389422416687,0.29397597908973694,-0.8370769619941711,-0.20079606771469116,0.19781476259231567,0.15795403718948364,0.9534055757951562,-0.12801579068002858,-0.2550950101911183,0.09775583235795164
1729788027294418200,0.735418212890625,0.26380643248558044,0.524881899356842,0.6002134680747986,-0.455625981092453,0.296716570854187,-0.8392640948295593,-0.19571056962013245,0.2757779061794281,0.01332104206085205,0.9537211604051634,-0.12902618558037718,-0.25242859320038086,0.10023938890302941
1729788027304449000,0.745448974609375,0.7718856930732727,0.6909151077270508,0.696128785610199,-0.44862034916877747,0.29519686102867126,-0.8435630202293396,-0.1713898777961731,0.28027310967445374,-0.031849026679992676,0.9544852755383884,-0.12761736867995663,-0.2488620304733754,0.10362982315253098
1729788027314480000,0.755480224609375,1.1009236574172974,0.862379252910614,0.6796826720237732,-0.43997687101364136,0.29024845361709595,-0.849809467792511,-0.1635080873966217,0.20303764939308167,-0.0018598437309265137,0.9556747938281484,-0.12434581117826642,-0.24419947140554474,0.10765815717205383
1729788027324510200,0.76551025390625,0.9868930578231812,0.874212920665741,0.4805064797401428,-0.4305874705314636,0.2835693061351776,-0.8568447232246399,-0.17752093076705933,0.06726077198982239,0.05711627006530762,0.9571015723896287,-0.12036395728783846,-0.23893546027923912,0.11126068885229776
1729788027334541000,0.775541015625,0.02588549256324768,0.24692901968955994,0.19683293998241425,-0.4246734380722046,0.28009575605392456,-0.8609290719032288,-0.18410634994506836,-0.02020806074142456,0.16177129745483398,0.9579581583662484,-0.11838721475492255,-0.23562670808655697,0.11305115943619465
1729788027344572200,0.785572265625,-1.463443398475647,-0.5451287627220154,-0.02480916678905487,-0.42640528082847595,0.28674590587615967,-0.8578783869743347,-0.110963374376297,0.025937199592590332,0.02873098850250244,0.9572226343374163,-0.1219102328420809,-0.2370626596370812,0.11253446490644614
1729788027354602000,0.79560205078125,-1.6384762525558472,-1.0173873901367188,0.22612345218658447,-0.43247753381729126,0.3013719320297241,-0.8497871160507202,0.0722481906414032,0.2659345865249634,-0.44145745038986206,0.9552172203043757,-0.12953553682543842,-0.24150982292770407,0.11159539990504369
1729788027364633000,0.805633056640625,-1.1353731155395508,-1.1783872842788696,0.06178591400384903,-0.4418201446533203,0.3139192461967468,-0.8403865694999695,0.20291343331336975,0.1877897083759308,-0.6787784695625305,0.9527595379854484,-0.13573606128740687,-0.24775479087080626,0.11154492912874134
1729788027374663200,0.8156630859375,-1.0723121166229248,-0.6047692894935608,-0.3562304973602295,-0.4498801529407501,0.3221342861652374,-0.8329690098762512,0.0047203898429870605,-0.09990528225898743,-0.601860761642456,0.95097894882135,-0.14010500568678538,-0.25275698985377665,0.11010668319012921
1729788027384694000,0.825694091796875,-1.0475308895111084,-0.07777024060487747,-0.28783118724823,-0.4538244605064392,0.3296267092227936,-0.8278825879096985,-0.21028366684913635,-0.14205041527748108,-0.4943373203277588,0.9499720242177995,-0.14469258042639724,-0.2551916495412861,0.10721139113081915
1729788027394725000,0.83572509765625,-0.6187871694564819,0.047438811510801315,0.09787867218255997,-0.4540199041366577,0.3361603021621704,-0.8251436948776245,-0.15295931696891785,-0.10758364200592041,-0.201452374458313,0.9494198227790069,-0.14857157243719585,-0.2556455090947285,0.10570633313903526
1729788027404755200,0.845755126953125,-0.06516845524311066,0.05228283628821373,0.12330599874258041,-0.4532147943973541,0.3397868275642395,-0.8241002559661865,0.010114967823028564,-0.03094896674156189,0.08671921491622925,0.9491239223975215,-0.15048871209351303,-0.2555445639737774,0.10589535476650712
1729788027414786000,0.8557861328125,0.49809861183166504,0.09620635211467743,-0.12765060365200043,-0.4526185095310211,0.3378729522228241,-0.8252140879631042,-0.006030023097991943,0.11842584609985352,0.27835434675216675,0.9493948810416527,-0.14943676565539682,-0.2550717563036062,0.10609551648307365
1729788027424817200,0.865817138671875,0.7844215631484985,0.2653098404407501,0.17127564549446106,-0.45041462779045105,0.33255839347839355,-0.8285720348358154,-0.0751284658908844,0.24274373054504395,0.45879048109054565,0.9501789165351826,-0.14645412876261543,-0.25350578613192265,0.10698600951473473
1729788027434847200,0.87584716796875,0.8511694073677063,0.2714489698410034,0.3002072870731354,-0.4475383758544922,0.32691630721092224,-0.8323671221733093,0.10412421822547913,0.35126057267189026,0.4353334307670593,0.9509504600982334,-0.14304368601662065,-0.2517040490821785,0.10897994405589703
1729788027444878000,0.885878173828125,0.860751211643219,0.15735119581222534,0.11370769888162613,-0.445157527923584,0.32060062885284424,-0.8360920548439026,0.10944908857345581,0.3436144292354584,0.2782612442970276,0.9516920784653177,-0.13925579075180056,-0.2501235462737594,0.11103185068263038
1729788027454908200,0.895908203125,0.7044985294342041,0.2902466654777527,-0.32913655042648315,-0.4438321590423584,0.31350332498550415,-0.8394811749458313,-0.010467618703842163,0.21725839376449585,0.06950736045837402,0.952547499211942,-0.13548180108016525,-0.24880532702584351,0.11132724404039165
1729788027464939000,0.90593896484375,0.624591052532196,0.5651025176048279,-0.5113311409950256,-0.44158971309661865,0.3061089515686035,-0.8433835506439209,-0.1787257194519043,0.0622534453868866,-0.0847780704498291,0.9537562493491254,-0.1320926539083782,-0.24669768652565263,0.10973061093813048
1729788027474970000,0.91597021484375,0.9098568558692932,0.7376774549484253,-0.32316309213638306,-0.4372839629650116,0.29777514934539795,-0.8485945463180542,-0.20579758286476135,0.018753141164779663,-0.039451777935028076,0.9553072759489569,-0.12831216359455622,-0.24339006213652156,0.1080982442714944
1729788027485000200,0.926000244140625,1.3524271249771118,0.6457465291023254,0.04988238215446472,-0.4316602647304535,0.2876388728618622,-0.8549463748931885,-0.12749791145324707,0.14597013592720032,-0.1069982647895813,0.9569361116612886,-0.12316706062069038,-0.23949258070814336,0.10838095614538808
1729788027495031000,0.936031005859375,1.854318380355835,0.512259840965271,0.11000511050224304,-0.42642465233802795,0.27426305413246155,-0.8619406819343567,-0.01710239052772522,0.26696616411209106,-0.08386009931564331,0.958524372193533,-0.11589281790047165,-0.2357933822749621,0.11045871373988472
1729788027505062100,0.946062255859375,1.9135922193527222,0.4780643582344055,0.06990882009267807,-0.42194101214408875,0.2578968405723572,-0.8691691160202026,-0.014414429664611816,0.23630478978157043,-0.05546772480010986,0.9601363871902311,-0.10701213447046859,-0.23230119844188127,0.11279399749109471
1729788027515092200,0.95609228515625,1.7176368236541748,0.28527411818504333,0.2509121596813202,-0.4180668294429779,0.242792546749115,-0.8753695487976074,-0.038140326738357544,0.0759025365114212,0.08389616012573242,0.9614348163757934,-0.09873531577421393,-0.22927397231530214,0.11544572761446419
1729788027525123000,0.966123046875,1.5037719011306763,-0.026282334700226784,0.19099316000938416,-0.4164623022079468,0.22947488725185394,-0.8797160983085632,0.03778505325317383,-0.20966896414756775,0.14457809925079346,0.9622020614690391,-0.0912268682466014,-0.22763921502569004,0.11842758076265769
1729788027535153200,0.976153076171875,0.8347675204277039,0.10732951760292053,-0.025869105011224747,-0.4161761403083801,0.21929818391799927,-0.8824430108070374,-0.005149424076080322,-0.35513192415237427,0.14432960748672485,0.9626927788532467,-0.0855799916554229,-0.22683595269099185,0.1201831173292078
1729788027545184300,0.986184326171875,0.23564225435256958,0.36196810007095337,-0.11258774995803833,-0.4142250418663025,0.2144560068845749,-0.8845486044883728,-0.12250274419784546,-0.2102598249912262,0.19623982906341553,0.9632303403895751,-0.08318045927635988,-0.225403450994761,0.12025574469433242
1729788027555215000,0.996215087890625,0.1330157369375229,0.4102477431297302,-0.02835090458393097,-0.4109039902687073,0.2127676159143448,-0.8865031599998474,-0.1830594837665558,-0.018095970153808594,0.04533183574676514,0.9637854699717234,-0.0825903790872577,-0.22344408949090724,0.11987070243741457
1729788027565245200,1.0062451171875,0.4697134494781494,0.4850400686264038,0.21066460013389587,-0.4068467617034912,0.210569828748703,-0.8888959884643555,-0.17913639545440674,0.110414057970047,0.03513616323471069,0.9643412792176298,-0.08157191314827791,-0.22112901081900385,0.12039014307857555
1729788027575276000,1.016276123046875,0.9870263934135437,0.4516831636428833,0.5171550512313843,-0.40181735157966614,0.20567888021469116,-0.8923222422599792,-0.12679272890090942,0.27581220865249634,-0.027523398399353027,0.9649292052268117,-0.07881007599945859,-0.21823805297407967,0.12277097422125921
1729788027585307100,1.02630712890625,1.1550450325012207,0.49552908539772034,0.6179980039596558,-0.3965693414211273,0.1979689747095108,-0.896404504776001,-0.06725195050239563,0.3388504981994629,-0.1713598370552063,0.9654861621741722,-0.07430547456366737,-0.21511960219559526,0.12664387702140975
1729788027595337200,1.036337158203125,0.7706185579299927,0.6906349062919617,0.5954636931419373,-0.3899858593940735,0.19153064489364624,-0.9006814360618591,-0.03460508584976196,0.22575145959854126,-0.16706764698028564,0.9660949235007954,-0.07059939682883483,-0.21136464231385466,0.13038891146842665
1729788027605368000,1.0463681640625,0.513087272644043,0.4570128321647644,0.6030201315879822,-0.3834291100502014,0.18842963874340057,-0.9041439890861511,0.029989898204803467,0.07344171404838562,-0.09388762712478638,0.9665268631214398,-0.068706057999237,-0.2078640788839414,0.1337824497653669
1729788027615398000,1.05639794921875,0.3730420768260956,0.3323225677013397,0.3274815082550049,-0.379191517829895,0.18619085848331451,-0.9063921570777893,0.13991859555244446,-0.16264653205871582,-0.16450023651123047,0.9667325967771319,-0.06727285156808256,-0.20561683905547073,0.13647019155603873
1729788027625429200,1.06642919921875,0.03291550278663635,0.45839983224868774,0.03343203663825989,-0.3752552568912506,0.18490839004516602,-0.9082909226417542,0.11495572328567505,-0.2557244300842285,-0.12952041625976562,0.967094919200713,-0.0666942435063854,-0.20348569040914363,0.13737834493915135
1729788027635460000,1.076460205078125,-0.14941301941871643,0.5217582583427429,-0.01496292743831873,-0.3708342909812927,0.1856953352689743,-0.9099445939064026,0.07235726714134216,-0.1307942122220993,-0.03365892171859741,0.9675610819889262,-0.06745130054493323,-0.20119150475525915,0.13710526376575805
1729788027645490000,1.086489990234375,-0.1420801430940628,0.45345553755760193,0.0829111710190773,-0.3662088215351105,0.1871265321969986,-0.9115232825279236,0.0986003577709198,-0.04291573166847229,-0.17243057489395142,0.9679905922479165,-0.06852339630828956,-0.19885396622198903,0.13695107478793137
1729788027655521300,1.096521240234375,-0.3522970378398895,0.26565343141555786,0.1152467429637909,-0.36267197132110596,0.18962614238262177,-0.912420392036438,0.09837460517883301,-0.039647504687309265,-0.2486056685447693,0.9682026306083044,-0.07000431075514471,-0.19720346208486034,0.13709046814412618
1729788027665550800,1.10655078125,-0.6294816732406616,-0.024764012545347214,0.12070063501596451,-0.3613802194595337,0.19461898505687714,-0.9118814468383789,0.023962736129760742,-0.041924282908439636,-0.2019338607788086,0.9680536067468115,-0.07261681511891589,-0.19694180130702266,0.13715992967770274
1729788027675582000,1.11658203125,-0.9389899969100952,-0.11536289006471634,0.060740888118743896,-0.36198750138282776,0.20208561420440674,-0.9100145101547241,-0.0737423300743103,-0.11385929584503174,-0.13554823398590088,0.9676121504526188,-0.07643645909293116,-0.19786412030490452,0.13687151238487513
1729788027685613000,1.126613037109375,-1.2343082427978516,-0.08834777772426605,-0.015390630811452866,-0.3629361391067505,0.21207427978515625,-0.9073598384857178,-0.18929457664489746,-0.22612762451171875,-0.0663798451423645,0.9670567273477223,-0.08165654773527975,-0.1991288417613638,0.1359452765298878
1729788027695643000,1.136642822265625,-1.6458922624588013,-0.04471801221370697,-0.039642173796892166,-0.3636280298233032,0.22502419352531433,-0.9039573073387146,-0.26404210925102234,-0.31985756754875183,-0.062214016914367676,0.9663990181988327,-0.08855634536497468,-0.20044733566999415,0.13435613717343295
1729788027705674000,1.146674072265625,-1.9288995265960693,-0.030032863840460777,-0.007491695694625378,-0.36400288343429565,0.24122601747512817,-0.899617612361908,-0.2584030032157898,-0.3381345868110657,0.02272552251815796,0.965537731571149,-0.09722855224911961,-0.2018360451706142,0.13245985184580306
1729788027715705000,1.156705078125,-1.8862519264221191,-0.026107097044587135,-0.02734050154685974,-0.36429741978645325,0.258721262216568,-0.8946231603622437,-0.18067008256912231,-0.2987297773361206,0.04443395137786865,0.9645192013127909,-0.10662986572222292,-0.20326947063200537,0.13043803923590647
1729788027725735000,1.16673486328125,-1.4496333599090576,-0.029967404901981354,-0.16006234288215637,-0.3648519515991211,0.2734636068344116,-0.8900004029273987,-0.11386191844940186,-0.18801438808441162,-0.1248769760131836,0.9636065973199536,-0.11465546549215141,-0.20458234530367617,0.12830549573606098
1729788027735766000,1.17676611328125,-0.7909963130950928,0.05767136812210083,-0.28392326831817627,-0.36537596583366394,0.2827581763267517,-0.8868755102157593,-0.07751023769378662,0.004290133714675903,-0.12311899662017822,0.9630980087633507,-0.11992368414879748,-0.2053790533427628,0.12601495600579346
1729788027745795800,1.1867958984375,0.07517427951097488,0.1192779541015625,-0.24079953134059906,-0.3654070794582367,0.2849437892436981,-0.8861628770828247,-0.034998685121536255,0.22593572735786438,-0.001059412956237793,0.9631374834147509,-0.1214233318848154,-0.2053653397889791,0.12428839296875127
1729788027755827000,1.196826904296875,0.6840320229530334,0.2643693685531616,-0.14493797719478607,-0.36433079838752747,0.2804947793483734,-0.8880234956741333,0.024746596813201904,0.3560713529586792,-0.0911177396774292,0.9637003463599321,-0.11930868146348769,-0.20433720534081937,0.12366605719651994
1729788027765858000,1.206858154296875,0.8666549921035767,0.3972989618778229,0.022147957235574722,-0.36151859164237976,0.27318960428237915,-0.8914436101913452,0.02877029776573181,0.36954110860824585,-0.06903612613677979,0.9645495371876637,-0.11562136877041136,-0.20226193501672843,0.1239593956741226
1729788027775888000,1.216887939453125,0.8175926208496094,0.4148593246936798,0.1456642895936966,-0.3575496971607208,0.2659246623516083,-0.8952330946922302,0.025732189416885376,0.2699182331562042,-0.04827892780303955,0.9653955409353887,-0.11187255896357037,-0.1996696957247648,0.12501179252604705
1729788027785919000,1.2269189453125,0.6743213534355164,0.3916786313056946,0.19503237307071686,-0.3535367548465729,0.2598433196544647,-0.8986062407493591,0.05426624417304993,0.10075238347053528,-0.11324989795684814,0.9660900725435577,-0.10868542453761573,-0.1971911838471606,0.1263836840220545
1729788027795949800,1.23694970703125,0.6192229390144348,0.38792383670806885,0.11012708395719528,-0.34956589341163635,0.2547018527984619,-0.9016266465187073,0.1298699975013733,-0.011934548616409302,-0.057830750942230225,0.9667124742706862,-0.1060255907796664,-0.194795403344451,0.12759370964758268
1729788027805980000,1.24697998046875,0.6936801075935364,0.3448072671890259,-0.006108449772000313,-0.3461529612541199,0.2490709275007248,-0.9045118689537048,0.2003401219844818,0.028608515858650208,-0.040648043155670166,0.9673741761375305,-0.10320623661741371,-0.19259419826752122,0.12823033732444006
1729788027816011000,1.257010986328125,0.9313808083534241,0.21381224691867828,0.06648266315460205,-0.3434939980506897,0.24187612533569336,-0.9074733257293701,0.23802536725997925,0.16458749771118164,0.16748303174972534,0.96804031127187,-0.09952627368336861,-0.19067738646607227,0.1289750076282843
1729788027826041000,1.267041015625,1.0155731439590454,0.14035484194755554,0.15977957844734192,-0.341702401638031,0.23325036466121674,-0.9104030728340149,0.28796106576919556,0.24016882479190826,0.09671282768249512,0.9686068130396283,-0.09493926342907859,-0.18916925669487686,0.13039311338032009
1729788027836072000,1.277072021484375,0.9411859512329102,0.14783114194869995,0.1756237894296646,-0.34000784158706665,0.22483234107494354,-0.9131511449813843,0.2086755633354187,0.17383404076099396,0.05321156978607178,0.9690835069727819,-0.09040769671824793,-0.18775213381186856,0.13210803198182094
1729788027846103000,1.28710302734375,0.512939453125,0.16123606264591217,0.1829586625099182,-0.3383121192455292,0.21842944622039795,-0.9153324365615845,0.054834455251693726,0.024078503251075745,-0.05620992183685303,0.9694446247238069,-0.08696349470525541,-0.1864701910592714,0.13357861587140282
1729788027856132900,1.2971328125,0.018181364983320236,0.18956837058067322,0.1377973109483719,-0.3362700641155243,0.21638880670070648,-0.9165687561035156,-0.04922786355018616,-0.1473275125026703,0.020572662353515625,0.9696268024513349,-0.08586476053570101,-0.18531825590816675,0.1345664892110211
1729788027866164000,1.3071640625,-0.46307575702667236,0.0578620508313179,0.09955965727567673,-0.3348678946495056,0.21887947618961334,-0.9164907336235046,-0.10963577032089233,-0.26866888999938965,0.09227192401885986,0.9695647370288235,-0.08716702461999629,-0.18481489861577297,0.13486826230311597
1729788027876195000,1.317195068359375,-0.9810366034507751,0.04510657489299774,0.11153749376535416,-0.33422785997390747,0.225938081741333,-0.9150102138519287,-0.15797477960586548,-0.272568941116333,0.03967452049255371,0.9692092589433126,-0.09084427559599866,-0.18504648516730254,0.13467928456744335
1729788027886225000,1.327224853515625,-1.1783257722854614,0.056378670036792755,0.12930849194526672,-0.3335475027561188,0.23652175068855286,-0.912580668926239,-0.15558812022209167,-0.19768813252449036,0.1860334277153015,0.9686433837563178,-0.09637765211262393,-0.18552899167252657,0.134239398829026
1729788027896256000,1.337256103515625,-1.1971298456192017,0.10976093262434006,0.06768161803483963,-0.3325161039829254,0.24772723019123077,-0.9099803566932678,-0.15249964594841003,-0.16777117550373077,0.20101118087768555,0.9680631380541658,-0.10230355294880504,-0.18585963545681938,0.13358101186668592
1729788027906286000,1.3472861328125,-1.1984002590179443,0.018236132338643074,-0.021997135132551193,-0.3318188190460205,0.2587496340274811,-0.9071630835533142,-0.16015493869781494,-0.18416467308998108,0.1284918189048767,0.9674762204399696,-0.10819703523471173,-0.186311170523128,0.13255650434308616
1729788027916317000,1.35731689453125,-1.2884057760238647,-0.06012791395187378,-0.05646989122033119,-0.332202285528183,0.2699367105960846,-0.9037564992904663,-0.15166905522346497,-0.17861288785934448,0.04696023464202881,0.96678349290348,-0.11419143108579528,-0.18730209470636097,0.1311782923429569
1729788027926348000,1.36734814453125,-1.1467241048812866,-0.10156244039535522,0.02460259199142456,-0.3329949975013733,0.2810330092906952,-0.90007483959198,-0.13992053270339966,-0.1713223159313202,-0.01290428638458252,0.9659932969816294,-0.12009734931046669,-0.18851841679731976,0.1299781023108661
1729788027936378000,1.377378173828125,-1.0734455585479736,-0.14649614691734314,0.03784995526075363,-0.33401259779930115,0.2910095751285553,-0.8965204954147339,-0.1392538845539093,-0.2479950487613678,-0.1809026598930359,0.9651750714256228,-0.12534267428873105,-0.18981299397834764,0.12921748337379424
1729788027946409000,1.387408935546875,-1.0879237651824951,-0.261065274477005,-0.09030801802873611,-0.3358921706676483,0.3007793128490448,-0.8925851583480835,-0.16107121109962463,-0.3225993812084198,-0.2598959803581238,0.9642900019538867,-0.13049586504110816,-0.19151568640565053,0.12820773393572726
1729788027956440000,1.397440185546875,-1.132009744644165,-0.17015640437602997,-0.288727343082428,-0.3386411964893341,0.3098485469818115,-0.8884345889091492,-0.18595585227012634,-0.2478978931903839,-0.2868279218673706,0.9634541605661545,-0.13541668775232818,-0.19350718635749703,0.12638553569967098
1729788027966470000,1.407469970703125,-1.4502772092819214,0.02789728157222271,-0.24098914861679077,-0.3400590419769287,0.32028526067733765,-0.8841816782951355,-0.17790043354034424,-0.040316998958587646,-0.20616567134857178,0.9626926597069426,-0.14131047720359002,-0.19478327214175378,0.12374815132377044
1729788027976501000,1.4175009765625,-1.7056056261062622,0.06399333477020264,0.07646951824426651,-0.3398800790309906,0.3339966833591461,-0.8791630864143372,-0.06809404492378235,0.13688954710960388,0.07099652290344238,0.9616466110621252,-0.14890385613715781,-0.19556610898079085,0.12172585308516883
1729788027986531000,1.427531005859375,-1.9203300476074219,-0.10518509149551392,0.2679334878921509,-0.33929362893104553,0.35063284635543823,-0.8728896975517273,0.15487605333328247,0.09672430157661438,0.23333275318145752,0.960121720172138,-0.1578511791745261,-0.19656593425332292,0.12087589030579282
1729788027996562000,1.43756201171875,-1.889387845993042,-0.09335612505674362,0.054966360330581665,-0.33971261978149414,0.368028849363327,-0.8655345439910889,0.3111635446548462,-0.009279489517211914,0.23148608207702637,0.958317710780292,-0.16720731475644332,-0.19817777670310924,0.11997661979629914
1729788028006593000,1.447593017578125,-1.4671359062194824,-0.03732960298657417,-0.19854287803173065,-0.34052351117134094,0.3825087249279022,-0.8589125275611877,0.333794504404068,0.01026773452758789,0.08518511056900024,0.9568483993781108,-0.17529590329281283,-0.1995371487191803,0.11788661013708249
1729788028016623000,1.457623046875,-0.7278158068656921,-0.09489079564809799,-0.1755550056695938,-0.3419366478919983,0.39128273725509644,-0.8543869853019714,0.29271194338798523,0.08212119340896606,0.014589011669158936,0.9559092914257643,-0.18033084029005056,-0.20071693636915502,0.11589176607905698
1729788028026654000,1.467654052734375,-0.2917882800102234,-0.07312312722206116,-0.07106747478246689,-0.34320032596588135,0.395010381937027,-0.8521621227264404,0.2736203372478485,0.12326964735984802,-0.10677647590637207,0.9554478243874001,-0.18247891566615143,-0.20154497194242382,0.11489298875162227
1729788028036685000,1.47768505859375,-0.16107234358787537,-0.009846954606473446,-0.029999401420354843,-0.34370627999305725,0.3966681957244873,-0.8511875867843628,0.1448691189289093,0.1697685420513153,-0.07001602649688721,0.9552386754180223,-0.1834253045390938,-0.20189443505189228,0.1145111201362922
1729788028046715100,1.487715087890625,-0.08551660180091858,0.2739935517311096,0.1981339007616043,-0.34281083941459656,0.39811021089553833,-0.8508753776550293,-0.02675691246986389,0.11872020363807678,0.0495448112487793,0.9551653790875387,-0.18425323498088417,-0.2015267940267169,0.11444033323667625
1729788028056746000,1.49774609375,1.4230507612228394,0.19117334485054016,0.694330096244812,-0.3381860852241516,0.39423274993896484,-0.8545236587524414,-0.12040144205093384,-0.06557372212409973,0.04925626516342163,0.9557933892332315,-0.18182124410482262,-0.19919643725094363,0.11713479763830104
1729788028066776000,1.507776123046875,0.867236316204071,0.33450478315353394,0.07388678193092346,-0.33533576130867004,0.38428059220314026,-0.8601617813110352,-0.037115901708602905,-0.5138581991195679,-0.10376644134521484,0.9568708453173945,-0.1759828181781886,-0.19735538855770648,0.12032843028714145
1729788028076807000,1.517806884765625,-0.11807893961668015,0.512933611869812,-0.0610412061214447,-0.33113983273506165,0.3816499412059784,-0.8629540205001831,-0.2717958092689514,-0.4177217483520508,0.2701958417892456,0.9576565672768349,-0.1748799861965267,-0.19478186948024576,0.11987771921108431
1729788028086838000,1.527838134765625,-0.2579393684864044,0.25394296646118164,0.27072873711586,-0.3276408612728119,0.38385456800460815,-0.8633117079734802,-0.21035340428352356,-0.05450889468193054,0.540603518486023,0.9577399675882857,-0.1762077689904431,-0.1931190793609585,0.11995740468051314
1729788028096868000,1.5378681640625,0.22963722050189972,0.330574095249176,0.1673687845468521,-0.32427558302879333,0.38525331020355225,-0.863959014415741,0.048152655363082886,0.14817863702774048,0.03250759840011597,0.9578034704570324,-0.17694895349617049,-0.19159738885022837,0.12079673751576313
1729788028106899000,1.54789892578125,1.2477480173110962,0.47104132175445557,-0.010856865905225277,-0.3204500377178192,0.3791041970252991,-0.868096649646759,-0.08583036065101624,0.3977665305137634,-0.32913851737976074,0.9587918608442543,-0.17372862638831219,-0.18912970688769568,0.1215171411989106
1729788028116929000,1.557928955078125,1.8225404024124146,0.5659388303756714,0.010533909313380718,-0.3159223794937134,0.3652347922325134,-0.8756691813468933,-0.16884922981262207,0.5702052712440491,-0.4589865803718567,0.9606462411487389,-0.16643542139556025,-0.18564656775163063,0.12244681915912217
1729788028126960000,1.567960205078125,1.8829741477966309,0.6014483571052551,0.2551197111606598,-0.3103487193584442,0.3491813540458679,-0.8841696977615356,-0.13020288944244385,0.6173102855682373,-0.16995322704315186,0.9626160365278754,-0.1579186160566981,-0.18159534330517002,0.12431862348637043
1729788028136991000,1.577990966796875,2.0809836387634277,0.5790944695472717,0.2791304886341095,-0.3039897382259369,0.3325125575065613,-0.8927628993988037,-0.03220704197883606,0.47397544980049133,0.1615006923675537,0.964494984133579,-0.14904037797409017,-0.1772160189518254,0.1270065032009741
1729788028147021000,1.58802099609375,2.0373637676239014,0.4269217550754547,0.22626300156116486,-0.29875466227531433,0.31439387798309326,-0.9010561108589172,-0.03402411937713623,0.24348267912864685,0.15892964601516724,0.9662892690089951,-0.1394264869204596,-0.1732980130630835,0.12966458332892314
1729788028157052200,1.59805224609375,1.712990164756775,0.28741443157196045,0.32341113686561584,-0.29461440443992615,0.29824772477149963,-0.9078825116157532,-0.053407907485961914,0.10701039433479309,0.11563092470169067,0.9676911860062793,-0.13083689640130436,-0.17011896846059057,0.13234359599735254
1729788028167083000,1.6080830078125,1.3283480405807495,0.1591605544090271,0.33496764302253723,-0.29166632890701294,0.28536471724510193,-0.912960946559906,0.01198810338973999,0.01846829056739807,0.0803040862083435,0.9686113451298344,-0.1238819672211181,-0.1678474850132364,0.13517555988990343
1729788028177113000,1.618113037109375,0.8940814137458801,0.1297009289264679,0.1969597041606903,-0.28958359360694885,0.2760814130306244,-0.9164717197418213,0.020525485277175903,-0.09958305954933167,0.06365799903869629,0.9692178182406791,-0.1188756315682592,-0.1662309545961934,0.13730495230872494
1729788028187144000,1.62814404296875,1.1950699090957642,0.031389378011226654,0.0793238952755928,-0.28850051760673523,0.26725369691848755,-0.9194253087043762,-0.01690402626991272,-0.09176239371299744,0.007514297962188721,0.9697732931538997,-0.11417242074581782,-0.16508181768930155,0.13875229126765504
1729788028197174000,1.638174072265625,1.6196223497390747,-0.06430812180042267,0.05071568489074707,-0.28848016262054443,0.2542549669742584,-0.923110842704773,0.027860164642333984,-0.016706138849258423,-0.11351031064987183,0.9705110922312971,-0.10727647508056103,-0.16412295539153843,0.14022705261922627
1729788028207205000,1.648205078125,1.596541404724121,-0.10103098303079605,0.09306846559047699,-0.2891874611377716,0.2392427921295166,-0.9268945455551147,0.09454649686813354,0.0791318267583847,-0.007202744483947754,0.971235499465035,-0.09928518421378628,-0.16338661407923066,0.14194613149831337
1729788028217236000,1.658236083984375,1.4016491174697876,-0.18684974312782288,0.1773250252008438,-0.2901226282119751,0.22580622136592865,-0.9299679398536682,0.14569827914237976,0.13309577107429504,0.1870937943458557,0.9717323183543654,-0.0920540601696955,-0.16291736152897185,0.14394538268996435
1729788028227266000,1.66826611328125,1.202029824256897,-0.18472805619239807,0.07120098918676376,-0.29168859124183655,0.2139449417591095,-0.932279646396637,0.159288227558136,0.021269291639328003,0.18630796670913696,0.9720564337472207,-0.08562422591629551,-0.16287625529512292,0.14576028117142226
1729788028237297200,1.678297119140625,0.9185160398483276,-0.12056292593479156,-0.04786921292543411,-0.2931429147720337,0.20409618318080902,-0.9340299367904663,0.08277010917663574,-0.08666452765464783,0.1804136037826538,0.9723625371754065,-0.08037428773993878,-0.16286495105078697,0.14671751991544368
1729788028247328000,1.688327880859375,0.8315094113349915,-0.11489401012659073,-0.027316797524690628,-0.29438820481300354,0.19591064751148224,-0.935390055179596,0.00807240605354309,-0.040652453899383545,0.19625431299209595,0.9726317599778158,-0.07605722604377547,-0.16285042086340035,0.14724952378749737
1729788028257358000,1.698358154296875,0.8368719220161438,-0.08881447464227676,0.025639627128839493,-0.2953647971153259,0.18811528384685516,-0.9366815090179443,0.0049749016761779785,0.023005321621894836,0.048192739486694336,0.9728546558200034,-0.07192940767186383,-0.1627433681509481,0.14796784237978203
1729788028267389200,1.70838916015625,0.9202938079833984,-0.048669878393411636,0.018892239779233932,-0.29594433307647705,0.1799977570772171,-0.9380925893783569,0.0018160045146942139,0.027765914797782898,0.024304747581481934,0.9730859116923297,-0.06764806211434184,-0.16241130208922933,0.14882895877371025
1729788028277419000,1.7184189453125,0.9189819693565369,-0.09008336067199707,-0.0038128048181533813,-0.2965356707572937,0.1712537407875061,-0.939541757106781,0.011104881763458252,-0.0045362114906311035,-0.097415030002594,0.9733337728742736,-0.0630630194203125,-0.16202520884789443,0.1496403245522154
1729788028287450000,1.7284501953125,0.8010241985321045,-0.18226420879364014,-0.04899413138628006,-0.29788830876350403,0.16306297481060028,-0.940570592880249,0.03888574242591858,-0.07855978608131409,-0.20542556047439575,0.9735016399159541,-0.05873513679629958,-0.1620644702005206,0.15026572054341578
1729788028297481000,1.73848095703125,0.7713664174079895,-0.2579571306705475,0.03944092616438866,-0.29989829659461975,0.1560150384902954,-0.9411271214485168,0.0401938259601593,-0.12169800698757172,-0.17984455823898315,0.9735575611395804,-0.05494565484544272,-0.16253431100091392,0.1508282052905944
1729788028307511000,1.748510986328125,0.9706395864486694,-0.3016640543937683,-0.07774695008993149,-0.302773118019104,0.14730176329612732,-0.9416106343269348,0.03688880801200867,-0.08995921909809113,-0.11222237348556519,0.9735433170655363,-0.050199618588552014,-0.16332381114605735,0.15171932504530497
1729788028317542100,1.758542236328125,0.7995602488517761,-0.25074735283851624,-0.2880607545375824,-0.3057151138782501,0.13855215907096863,-0.9419881105422974,-0.005304664373397827,-0.009508579969406128,-0.1974315047264099,0.9736706056871876,-0.045613540945051614,-0.16408948054839712,0.1515241394060327
1729788028327573000,1.768572998046875,1.046241044998169,-0.0697096511721611,-0.17077596485614777,-0.30757075548171997,0.1291714757680893,-0.9427167773246765,-0.11590629816055298,0.1311282217502594,0.08515757322311401,0.9739246569679931,-0.04083535967334086,-0.1642378677010961,0.1510929015610398
1729788028337603000,1.77860302734375,0.9812347888946533,0.05763259530067444,0.02417914941906929,-0.3076917827129364,0.11904115974903107,-0.9440100193023682,-0.04979100823402405,0.09442931413650513,0.14547181129455566,0.9741696160763389,-0.0356500669091421,-0.16347493374613423,0.15165241233664442
1729788028347634200,1.78863427734375,0.520666778087616,0.13576260209083557,-0.03658566623926163,-0.306763619184494,0.11185791343450546,-0.9451898336410522,-0.0028218328952789307,-0.02099180966615677,0.17843568325042725,0.9743698109057607,-0.03201120305790273,-0.16242029477642753,0.15230982502781062
1729788028357664000,1.7986640625,-0.0564681701362133,0.12583912909030914,-0.1858489215373993,-0.30559611320495605,0.10930604487657547,-0.9458663463592529,-0.052832722663879395,-0.13368956744670868,0.25098109245300293,0.9746051323228853,-0.03088902491609176,-0.1615941928228828,0.15191399176664588
1729788028367695000,1.808695068359375,-0.6191840767860413,0.041421614587306976,-0.1707213670015335,-0.3050093352794647,0.11195613443851471,-0.9457458257675171,-0.08654633164405823,-0.21156549453735352,0.19502860307693481,0.9747615569410256,-0.03246230315728005,-0.16147228291238194,0.15070735821101466
1729788028377726000,1.818725830078125,-1.1513206958770752,-0.0321681872010231,-0.06786981970071793,-0.30512920022010803,0.12004665285348892,-0.9447141885757446,-0.05090400576591492,-0.22756007313728333,0.16346418857574463,0.9747000836288691,-0.0367287186890779,-0.16215391515281927,0.14938795495373272
1729788028387756000,1.828756103515625,-1.458895206451416,-0.12456485629081726,0.0071562230587005615,-0.30590322613716125,0.13249094784259796,-0.9427986741065979,-0.035969823598861694,-0.17970162630081177,0.1009712815284729,0.9743908889844972,-0.04311550714516576,-0.163528933915188,0.14819466664986877
1729788028397787100,1.838787109375,-1.7111047506332397,-0.19331888854503632,0.0031841183081269264,-0.30740734934806824,0.1474630981683731,-0.9400826096534729,-0.023631960153579712,-0.17621064186096191,0.0105171799659729,0.9738806138189814,-0.050737126629144425,-0.1654824149497234,0.14696209802015356
1729788028407818000,1.84881787109375,-1.7975324392318726,-0.3813204765319824,0.07285960018634796,-0.30995818972587585,0.1643010526895523,-0.936445951461792,-0.017129093408584595,-0.2079564481973648,-0.04536557197570801,0.9731369430021418,-0.05924655913148843,-0.16812750465356993,0.14569605049374637
1729788028417848000,1.85884814453125,-1.7922892570495605,-0.6510347723960876,0.0751160979270935,-0.31464216113090515,0.18130426108837128,-0.9317344427108765,-0.02091372013092041,-0.27955561876296997,-0.23191606998443604,0.972063355007541,-0.06765257520288885,-0.17191833013940502,0.14477537966290924
1729788028427879200,1.868879150390625,-1.8854877948760986,-0.6439365148544312,-0.12279804795980453,-0.32097887992858887,0.1984637826681137,-0.9260586500167847,-0.07806885242462158,-0.3309253454208374,-0.43449127674102783,0.9708211553436761,-0.07615340576479522,-0.17655402387453598,0.14330206262301307
1729788028437909200,1.8789091796875,-1.0219037532806396,-0.30993348360061646,-0.20544765889644623,-0.32596704363822937,0.21215064823627472,-0.9212695360183716,-0.23007836937904358,-0.04265601933002472,-0.22886168956756592,0.9698923056443983,-0.08313756588560502,-0.1801481962356223,0.14122172415086257
1729788028447940000,1.888940185546875,0.2215566486120224,-0.08149951696395874,-0.0018138359300792217,-0.32787850499153137,0.2150702327489853,-0.9199132919311523,-0.2591575086116791,0.328279972076416,0.045401573181152344,0.9696603517882663,-0.08464297032198723,-0.1813254523462539,0.14041151971191246
1729788028457971200,1.89897119140625,0.42657026648521423,-0.09207599610090256,0.1928057074546814,-0.3283325135707855,0.21186375617980957,-0.9204952120780945,-0.05335071682929993,0.42633509635925293,-0.05208474397659302,0.9696792645463925,-0.08281306578202408,-0.18136807850049785,0.14131355489939257
1729788028468001000,1.9090009765625,0.05666950345039368,-0.1997041404247284,0.17295610904693604,-0.32930830121040344,0.21018001437187195,-0.9205326437950134,0.1634606420993805,0.29508429765701294,0.05119365453720093,0.9695056756396226,-0.08165588219693434,-0.18184055135979202,0.14256537162040928
1729788028478032100,1.9190322265625,-0.4207783043384552,-0.2330237478017807,0.02695230022072792,-0.33114171028137207,0.2121484875679016,-0.9194227457046509,0.2369493544101715,0.014429256319999695,0.06952345371246338,0.9691555167767052,-0.08244764937535058,-0.1830055089881648,0.14299923660250013
1729788028488062200,1.929062255859375,-1.0043262243270874,-0.30536893010139465,-0.04242251440882683,-0.33359673619270325,0.21864727139472961,-0.9170095920562744,0.2188355028629303,-0.18782451748847961,-0.005506336688995361,0.9686267173175586,-0.08570435779000597,-0.18479711601337345,0.14236209327754254
1729788028498093000,1.939093017578125,-1.343184471130371,-0.4096604585647583,0.05234527215361595,-0.3368886411190033,0.22967983782291412,-0.9131008982658386,0.20114657282829285,-0.18198084831237793,0.026061654090881348,0.9677591571575345,-0.09128653354005133,-0.18739352246554533,0.14139515808973654
1729788028508124200,1.949124267578125,-1.321901559829712,-0.5026385188102722,0.08818449825048447,-0.34092047810554504,0.24228261411190033,-0.9083349108695984,0.1972896158695221,-0.08931325376033783,0.014276683330535889,0.9666229337994822,-0.09757994748432794,-0.19055364232524172,0.14073880743210956
1729788028518154200,1.959154296875,-0.985649585723877,-0.5639706254005432,-0.08847522735595703,-0.3457399606704712,0.25306305289268494,-0.9035612344741821,0.12584567070007324,0.0077554285526275635,-0.03407609462738037,0.9655048266205886,-0.10294063700474622,-0.19396547448105542,0.13993134876673222
1729788028528185000,1.96918505859375,-0.3699757158756256,-0.512307345867157,-0.2771862745285034,-0.35122251510620117,0.2586100399494171,-0.8998686671257019,-0.016285300254821777,0.11796161532402039,-0.03569352626800537,0.9647420409699924,-0.10570011032594516,-0.19721350216795103,0.13858930819889415
1729788028538216200,1.97921630859375,0.1912918984889984,-0.3333532512187958,-0.14729566872119904,-0.35567834973335266,0.25845813751220703,-0.8981605172157288,-0.1553841531276703,0.21320629119873047,0.035916805267333984,0.9644393337877148,-0.10553477136543704,-0.19945467247632528,0.13761115942663654
1729788028548246300,1.989246337890625,0.4894145131111145,-0.13076283037662506,0.1699930727481842,-0.35775113105773926,0.25527191162109375,-0.8982484936714172,-0.1999574601650238,0.21974942088127136,0.14461690187454224,0.9643855469070758,-0.10365251189169301,-0.20032949684894896,0.13814725829203311
1729788028558277000,1.999277099609375,0.336272656917572,-0.018310854211449623,0.26967093348503113,-0.35776978731155396,0.25215354561805725,-0.8991214036941528,-0.165774405002594,0.10073646903038025,0.07819855213165283,0.9643749433249408,-0.10170895440926055,-0.2002363049096611,0.13979086362461282
1729788028568307000,2.009306884765625,-0.06732601672410965,-0.010762229561805725,0.08060833811759949,-0.3573579490184784,0.2516169250011444,-0.8994355201721191,-0.10673800110816956,-0.08001658320426941,0.008169591426849365,0.9643059743266614,-0.10124621410499046,-0.20007860979027747,0.14082529296006527
1729788028578338000,2.019338134765625,-0.394070565700531,-0.10434144735336304,-0.09312058240175247,-0.35791462659835815,0.2537166476249695,-0.8986238837242126,-0.014903217554092407,-0.16437646746635437,0.011264324188232422,0.9641378674726413,-0.10234707587567696,-0.20053209682857384,0.14053426444349143
1729788028588369200,2.029369140625,-0.5855889916419983,-0.22126998007297516,-0.05581315606832504,-0.35959064960479736,0.2579422891139984,-0.8967498540878296,0.0962240993976593,-0.1100388765335083,0.01054990291595459,0.9637713496863275,-0.10457802237205238,-0.20171395272527667,0.13971192769497945
1729788028598399000,2.03939892578125,-0.5081495642662048,-0.258470356464386,-0.05060321092605591,-0.36195504665374756,0.2628215551376343,-0.8943787217140198,0.1665358543395996,-0.0026744604110717773,-0.043029725551605225,0.9632510870927485,-0.10707008559315095,-0.20333870190218148,0.13905564877096238
1729788028608430000,2.04943017578125,-0.30625849962234497,-0.21035507321357727,-0.09391899406909943,-0.36424681544303894,0.2663055956363678,-0.8924155831336975,0.1036420464515686,0.0605071485042572,-0.050180912017822266,0.9628389267141984,-0.10885834618630653,-0.204797637466304,0.13837925444577676
1729788028618460000,2.0594599609375,-0.04238744080066681,-0.1055503711104393,-0.07473225146532059,-0.3659491240978241,0.2675330936908722,-0.8913514018058777,-0.017702490091323853,0.07821577787399292,0.02936708927154541,0.9626381019971362,-0.1094932714615853,-0.2057560089134546,0.13785336596633926
1729788028628491000,2.069490966796875,0.03198060393333435,-0.013630189001560211,-0.013379678130149841,-0.3666123151779175,0.2672877311706543,-0.8911524415016174,-0.07302379608154297,0.0428929328918457,0.023064613342285156,0.9626090463313502,-0.10935806980592694,-0.2060693909537824,0.13769537265628448
1729788028638522000,2.079522216796875,-0.03865654766559601,0.04377158731222153,-0.0021307524293661118,-0.36646100878715515,0.2672436535358429,-0.8912279009819031,-0.0756470263004303,-0.017762452363967896,0.0091477632522583,0.9626320471250889,-0.10935024694033547,-0.20598200541765688,0.13767112225062475
1729788028648552000,2.089552001953125,-0.2319515198469162,0.06987866014242172,-0.03685331344604492,-0.36598846316337585,0.26838210225105286,-0.8910799622535706,-0.055428653955459595,-0.07227614521980286,0.05245685577392578,0.9626300127275222,-0.11002168237626955,-0.2058039255041452,0.13741663315040176
1729788028658583000,2.0995830078125,-0.36877939105033875,0.0683010071516037,-0.043660618364810944,-0.36547011137008667,0.27096661925315857,-0.8905103802680969,-0.02134007215499878,-0.06916913390159607,0.07930731773376465,0.9625634194813278,-0.1115092686495912,-0.20569517769979642,0.13684603645748755
1729788028668614100,2.1096142578125,-0.40188029408454895,0.046802420169115067,-0.006380092352628708,-0.36506351828575134,0.2744058072566986,-0.8896235227584839,0.02067279815673828,-0.04169401526451111,0.11343944072723389,0.9624138720817118,-0.1134312868292324,-0.20572206234239002,0.13627641833005794
1729788028678644000,2.11964404296875,-0.37281933426856995,0.05253301188349724,0.006040625274181366,-0.36462095379829407,0.2779012620449066,-0.8887195587158203,0.04745188355445862,-0.018028825521469116,0.09369081258773804,0.9622360929699186,-0.11535040692067434,-0.20575351128256442,0.13587278777329156
1729788028688674800,2.1296748046875,-0.29978588223457336,0.05766865238547325,-0.06507936120033264,-0.3642164170742035,0.2808428108692169,-0.8879604339599609,0.04167625308036804,0.001643151044845581,0.020528733730316162,0.9621126682383049,-0.11700785249489985,-0.20574002006646352,0.13534881575107321
1729788028698705000,2.139704833984375,-0.20008912682533264,0.04218796268105507,-0.07681111246347427,-0.3639962077140808,0.2828304171562195,-0.8874197006225586,0.007230609655380249,0.019797146320343018,-0.0013285279273986816,0.9620644201499193,-0.1181899086458424,-0.2057214265795621,0.1346913692158813
1729788028708736000,2.149736083984375,-0.07542974501848221,0.024048373103141785,-0.05638333782553673,-0.36390581727027893,0.28382423520088196,-0.8871393799781799,-0.0060586631298065186,0.027500838041305542,-0.015067040920257568,0.9620556580941577,-0.11880764786594154,-0.20570619713227528,0.13423290680254052
1729788028718766800,2.159766845703125,-0.004569154232740402,0.028456438332796097,-0.053358517587184906,-0.36382853984832764,0.2839716374874115,-0.8871239423751831,-0.016313552856445312,0.0287725031375885,-0.04073256254196167,0.9620948673600144,-0.11895490312902705,-0.20563987667150077,0.1339230086677658
1729788028728797000,2.169796875,-0.03945549950003624,0.020257364958524704,-0.031880393624305725,-0.3637663722038269,0.28395482897758484,-0.8871548175811768,-0.036318957805633545,0.02025964856147766,-0.023291409015655518,0.9621353447029124,-0.11899988415807342,-0.20557630934421392,0.13368962147080093
1729788028738828000,2.179828125,-0.11638330668210983,-0.011360482312738895,0.005353529006242752,-0.36375942826271057,0.2846249043941498,-0.8869429230690002,-0.023279666900634766,0.0031405985355377197,0.008708000183105469,0.9621003558264979,-0.1193781179770846,-0.205614723507123,0.13354450557495287
1729788028748859400,2.189859375,-0.1811322122812271,-0.05843158811330795,-0.0026359539479017258,-0.3642551004886627,0.2858186364173889,-0.8863554000854492,0.01012924313545227,-0.012304842472076416,0.02525615692138672,0.9619679898529858,-0.11999709326431947,-0.20596841774850605,0.13339886494070632
1729788028758890500,2.199890380859375,-0.2670188844203949,-0.10930941998958588,-0.030841760337352753,-0.3649052083492279,0.2877748906612396,-0.885454535484314,0.027472466230392456,-0.017663806676864624,0.018816351890563965,0.9617694375097556,-0.1210260676053071,-0.20645923945211886,0.1331413845135903
1729788028768921300,2.20992138671875,-0.27110177278518677,-0.1286676675081253,-0.016778938472270966,-0.365448534488678,0.2902624309062958,-0.8844179511070251,0.02655094861984253,-0.016092509031295776,0.03483903408050537,0.9615395717538546,-0.1223439554831288,-0.20693717732067662,0.13285511724481383
1729788028778951400,2.219951416015625,-0.14215950667858124,-0.12223267555236816,-0.02871762216091156,-0.36644667387008667,0.29220154881477356,-0.8833657503128052,0.02605372667312622,-0.01317933201789856,0.038791775703430176,0.961293972030621,-0.1233332088350701,-0.2076199380337498,0.13265247737479205
1729788028788982300,2.229982177734375,-0.03609113022685051,-0.0943634882569313,-0.049929965287446976,-0.36741575598716736,0.2930433452129364,-0.8826841115951538,0.004149883985519409,0.007921010255813599,0.01612222194671631,0.9611436817627959,-0.12375412886432662,-0.2081894616017559,0.13245709773013795
1729788028799013400,2.240013427734375,0.06291987746953964,-0.11656147241592407,-0.008965754881501198,-0.3683066964149475,0.29287809133529663,-0.8823676109313965,-0.01981574296951294,0.04254058003425598,0.03062194585800171,0.9610671367416611,-0.12362426357598735,-0.2086462131545544,0.13241472900004342
1729788028809043500,2.25004345703125,0.04843127727508545,-0.11053047329187393,0.013248470611870289,-0.36961761116981506,0.29234373569488525,-0.8819965720176697,-0.010417640209197998,0.024505019187927246,0.024162650108337402,0.9609514796580758,-0.12323831536273622,-0.20931803445770264,0.1325534610333133
1729788028819074300,2.26007421875,-0.04665062949061394,-0.10427689552307129,0.00008473126217722893,-0.37084734439849854,0.29223495721817017,-0.8815162777900696,-0.005632609128952026,-0.016920655965805054,0.02748185396194458,0.9608172254792702,-0.12309347016140144,-0.20997585430558824,0.13262072446570802
1729788028829104000,2.270104248046875,-0.16300180554389954,-0.12313394248485565,-0.00033045560121536255,-0.37165942788124084,0.29280978441238403,-0.8809833526611328,-0.008284300565719604,-0.03853732347488403,0.03691291809082031,0.9606852595663357,-0.12335367446472993,-0.21045709567901985,0.1325725686469252
1729788028839135500,2.280135498046875,-0.25221744179725647,-0.1471593827009201,-0.002083081752061844,-0.37173891067504883,0.2940077483654022,-0.880550742149353,0.005451828241348267,-0.03604269027709961,0.019832909107208252,0.9605854205940613,-0.1239912707402174,-0.21059630927632933,0.13247939751796098
1729788028849166300,2.290166259765625,-0.31188756227493286,-0.15362563729286194,-0.01980641856789589,-0.3723526895046234,0.2961293160915375,-0.8795799612998962,0.011253565549850464,-0.019212812185287476,-0.010938286781311035,0.9603628420293913,-0.1251043359015464,-0.21108986232002888,0.13226169871294843
1729788028859196200,2.300196044921875,-0.27512234449386597,-0.1643448770046234,-0.009731413796544075,-0.3732643127441406,0.298577219247818,-0.878365159034729,0.0024300813674926758,0.003256857395172119,-0.04700416326522827,0.9600830479663177,-0.12638099600731034,-0.21176701061838027,0.1319958384243177
1729788028869227300,2.310227294921875,-0.18940305709838867,-0.17454540729522705,-0.024839527904987335,-0.3746836185455322,0.30065715312957764,-0.8770503997802734,0.0011943578720092773,0.011964917182922363,-0.07009315490722656,0.9597663870764882,-0.12742010623181937,-0.2126943877016018,0.13180902337865172
1729788028879258400,2.32025830078125,-0.15934447944164276,-0.15477196872234344,-0.05062238872051239,-0.37660878896713257,0.30288389325141907,-0.8754582405090332,-0.007378488779067993,0.007296770811080933,-0.04598957300186157,0.9593827577071837,-0.1285163103165166,-0.2139028827842956,0.13158126242865786
1729788028889288200,2.3302880859375,-0.09717072546482086,-0.1457434892654419,-0.04045763239264488,-0.3782397210597992,0.3042798638343811,-0.8742702603340149,-0.021372586488723755,0.011699140071868896,0.003618955612182617,0.9591063207440137,-0.1292017656327335,-0.21487621392021966,0.13133934983063691
1729788028899319300,2.3403193359375,-0.07499511539936066,-0.12052495032548904,-0.0322582945227623,-0.37971338629722595,0.30434632301330566,-0.8736080527305603,-0.015702754259109497,0.0021569430828094482,0.017834067344665527,0.9589664710565895,-0.12920403553901472,-0.21564392152813983,0.13109958657885049
1729788028909349000,2.35034912109375,-0.08633892238140106,-0.11499713361263275,-0.01823488622903824,-0.38117170333862305,0.3040468990802765,-0.8730770349502563,-0.013481497764587402,-0.005493432283401489,0.027587532997131348,0.9588612341452215,-0.12901767278104873,-0.21636984954398836,0.13085652532353048
1729788028919380200,2.360380126953125,-0.1542801558971405,-0.12018176913261414,-0.000018066726624965668,-0.3821612596511841,0.304198294878006,-0.8725916147232056,-0.006891965866088867,-0.0068807899951934814,0.031084656715393066,0.9587564573740514,-0.1290750352414891,-0.21689588901590048,0.13069691102311304
1729788028929411000,2.3704111328125,-0.23629438877105713,-0.1273130178451538,0.026750698685646057,-0.38276562094688416,0.30543118715286255,-0.8718957901000977,0.006850242614746094,-0.004161655902862549,0.03929990530014038,0.9585867816759521,-0.12970211297145848,-0.21732342131913035,0.1306111636346156
1729788028939441200,2.380441162109375,-0.2983314096927643,-0.15254035592079163,0.02988923341035843,-0.3833523094654083,0.3076111972332001,-0.8708710074424744,0.016164958477020264,-0.0032136142253875732,0.03265988826751709,0.9583239060087775,-0.13081275754219274,-0.21783599065904868,0.13057807707721072
1729788028949472300,2.39047216796875,-0.286396324634552,-0.15259025990962982,-0.015994902700185776,-0.3840855360031128,0.30997323989868164,-0.8697096109390259,0.012457877397537231,-0.015219241380691528,-0.02947556972503662,0.9580411586098162,-0.13203725800460747,-0.21842929019243457,0.13042892618559473
1729788028959502300,2.40050244140625,-0.19531700015068054,-0.13245515525341034,-0.06516271829605103,-0.38522636890411377,0.31171879172325134,-0.8685804605484009,-0.01153254508972168,-0.015896648168563843,-0.06766831874847412,0.957798799485482,-0.13297108272498162,-0.2191539495888078,0.1300449102252149
1729788028969533200,2.410533203125,-0.12249166518449783,-0.09504600614309311,-0.035493236035108566,-0.38650912046432495,0.312866747379303,-0.8675972819328308,-0.03020825982093811,0.010528028011322021,-0.06422650814056396,0.9575926223770642,-0.13358308942022837,-0.21990204873275365,0.12967222344503204
1729788028979564300,2.420564208984375,-0.06886838376522064,-0.08264312893152237,0.001874641515314579,-0.3874726891517639,0.3135850727558136,-0.8669078946113586,-0.023751556873321533,0.0347120463848114,-0.022114992141723633,0.9574318191236726,-0.1339362839790628,-0.22047022477278486,0.129530753800529
1729788028989594000,2.430593994140625,-0.054919008165597916,-0.08374759554862976,-0.020613357424736023,-0.38843482732772827,0.31393563747406006,-0.8663502335548401,-0.009224355220794678,0.022169679403305054,0.002550184726715088,0.9572952769965422,-0.13408040703330432,-0.22101428302424508,0.1294635100263695
1729788028999625200,2.440625244140625,-0.10683786869049072,-0.06539441645145416,-0.02811814472079277,-0.38930895924568176,0.31438684463500977,-0.8657941222190857,-0.011997073888778687,-0.006357669830322266,0.027583003044128418,0.9571759329113061,-0.1343111962819849,-0.22150272200582102,0.1292714430875474
1729788029009655300,2.4506552734375,-0.1677655428647995,-0.07686028629541397,0.00017527909949421883,-0.3899712562561035,0.31552404165267944,-0.8650820255279541,-0.009518951177597046,-0.01657387614250183,0.06788653135299683,0.9570136401867346,-0.13490953094481667,-0.22194234370967664,0.12909553292126957
1729788029019686100,2.46068603515625,-0.1942773014307022,-0.06306617707014084,0.004814771935343742,-0.39050227403640747,0.31710824370384216,-0.8642628788948059,0.001983135938644409,-0.026138395071029663,0.05486035346984863,0.9568144506088674,-0.13573419084037414,-0.2223618430221768,0.12898652506932068
1729788029029717200,2.47071728515625,-0.19421452283859253,-0.04300714656710625,-0.0020758910104632378,-0.3906460404396057,0.3184828460216522,-0.8636922240257263,-0.0014741718769073486,-0.02250814437866211,0.01875203847885132,0.9566890831999764,-0.13648730482315263,-0.22254235624852384,0.12880923047902773
1729788029039747300,2.480747314453125,-0.14168846607208252,-0.0410475917160511,-0.023222189396619797,-0.3908325433731079,0.3194129168987274,-0.8632643222808838,-0.003332376480102539,-0.001068800687789917,-0.02577376365661621,0.9566111480382935,-0.13702246595126485,-0.22269411855624308,0.12855855451783174
1729788029049778200,2.490778076171875,-0.08563251048326492,-0.05409569665789604,-0.020563822239637375,-0.39128100872039795,0.32009240984916687,-0.8628093600273132,-0.0012664496898651123,0.02393224835395813,-0.05396926403045654,0.9565220862699237,-0.13740536943771953,-0.2229687883049043,0.12833605522355562
1729788029059809300,2.500809326171875,-0.02057441882789135,-0.061020709574222565,-0.029770635068416595,-0.3919271230697632,0.32061129808425903,-0.8623232841491699,-0.00002524256706237793,0.03650534152984619,-0.04996919631958008,0.9564130180352187,-0.13767288428658703,-0.22334846333358963,0.12820108044890535
1729788029069839400,2.51083935546875,-0.030012061819434166,-0.03336527571082115,-0.016247104853391647,-0.392435222864151,0.32079774141311646,-0.8620228171348572,-0.01292961835861206,0.024996906518936157,-0.025474190711975098,0.9563469460268134,-0.13776410871118933,-0.22362836597758778,0.12810804705362702
1729788029079870200,2.5208701171875,-0.10221142321825027,-0.009145691990852356,0.0033990349620580673,-0.39281511306762695,0.32130420207977295,-0.8616611361503601,-0.025977492332458496,0.003479093313217163,0.00036346912384033203,0.9562669671675716,-0.13803391864080872,-0.22386621637055698,0.1279997791507822
1729788029089900300,2.530900390625,-0.08498576283454895,-0.028070807456970215,-0.016713157296180725,-0.39332565665245056,0.32207000255584717,-0.8611421585083008,-0.021713286638259888,-0.016817957162857056,0.02055072784423828,0.9561514571503041,-0.138442534328854,-0.2241931726396666,0.12784946364843597
1729788029099931100,2.54093115234375,-0.10238686203956604,-0.029914777725934982,-0.04196524992585182,-0.39389607310295105,0.32259175181388855,-0.8606860041618347,-0.014093279838562012,-0.03574180603027344,0.004133880138397217,0.9560657710428323,-0.13874404143414087,-0.22451524463243652,0.12759686297214876
1729788029109962200,2.550962158203125,-0.10047763586044312,-0.019523924216628075,-0.03478057309985161,-0.3943053185939789,0.3231034576892853,-0.8603065609931946,-0.01255488395690918,-0.019407808780670166,0.01979142427444458,0.9560103800731935,-0.13906726164394248,-0.22473764304931562,0.12726833925918818
1729788029119992300,2.560992431640625,-0.06953370571136475,-0.00846919510513544,-0.008357755839824677,-0.39437970519065857,0.3235989511013031,-0.8600862622261047,-0.003004789352416992,0.004358202219009399,0.03888869285583496,0.9559781288211255,-0.1393679441084302,-0.22479646873833004,0.12707834971706541
1729788029130023200,2.571023193359375,-0.054946109652519226,-0.00411524623632431,0.010133902542293072,-0.39410269260406494,0.3241457939147949,-0.8600072860717773,0.005659818649291992,0.014217853546142578,0.038763999938964844,0.9559605418741194,-0.13967567318577584,-0.22469324502821564,0.12705526458515431
1729788029140053200,2.58105322265625,-0.06761983036994934,-0.025624001398682594,0.006465931423008442,-0.39383456110954285,0.32492828369140625,-0.8598347902297974,0.008550256490707397,0.016334503889083862,0.022371411323547363,0.9559103385462031,-0.1400923680332819,-0.22462574808337626,0.1270932033146483
1729788029150084400,2.59108447265625,-0.06423228234052658,-0.0375862792134285,-0.023861080408096313,-0.3940925896167755,0.32559818029403687,-0.859463095664978,0.0073281824588775635,0.010720759630203247,0.006069540977478027,0.9558239322609721,-0.14044910631662536,-0.22481657073600095,0.12701234562807837
1729788029160115200,2.601115234375,-0.04203829914331436,-0.047089237719774246,-0.02360355481505394,-0.39487284421920776,0.3258959650993347,-0.8589919805526733,-0.0067536234855651855,0.007661163806915283,-0.018525779247283936,0.9557268174533318,-0.1406094419016148,-0.22523986780275737,0.1268148544297631
1729788029170145300,2.611145263671875,-0.0297637227922678,-0.019113052636384964,0.00031083356589078903,-0.3956518769264221,0.32585325837135315,-0.8586496114730835,-0.015740185976028442,0.01006898283958435,-0.017281174659729004,0.955656025431339,-0.14057792275571732,-0.22563916918475796,0.12667342800686857
1729788029180176400,2.62117626953125,-0.027812425047159195,-0.00383156631141901,0.009012180380523205,-0.39608174562454224,0.3253019154071808,-0.8586605191230774,-0.020132094621658325,0.009857356548309326,-0.005353212356567383,0.9556730957003486,-0.14028996631761118,-0.2258062470577227,0.12656698350942056
1729788029190207200,2.631207275390625,-0.04542144760489464,-0.018549844622612,0.02314557507634163,-0.39650094509124756,0.3253355026245117,-0.8584542870521545,-0.01722574234008789,0.0021333694458007812,0.013147890567779541,0.9556230468193632,-0.14029186561073073,-0.2260332732043692,0.12653717447850943
1729788029200237300,2.6412373046875,-0.03964425250887871,-0.02457977645099163,0.008217225782573223,-0.39693498611450195,0.32607948780059814,-0.8579713106155396,-0.0003122091293334961,-0.009963154792785645,0.02806103229522705,0.9554912104578582,-0.14064937643751604,-0.22634507604817042,0.12657886561631113
1729788029210268200,2.65126806640625,-0.006464059464633465,-0.022116191685199738,-0.024472277611494064,-0.3972681164741516,0.3268898129463196,-0.8575085997581482,0.005422532558441162,-0.01117020845413208,0.018702447414398193,0.9553720790431345,-0.14106092206449886,-0.2265998778927214,0.12656332939262765
1729788029220298200,2.66129833984375,-0.000058891018852591515,-0.020077809691429138,-0.0172167606651783,-0.3973052203655243,0.32761409878730774,-0.8572149872779846,-0.0005370676517486572,0.0010907351970672607,-0.0030603408813476562,0.9552967759494889,-0.14144244639069248,-0.2266860085963148,0.1265518534640685
1729788029230329300,2.671329345703125,-0.016332536935806274,-0.029711952432990074,-0.0042242631316185,-0.3972095549106598,0.3280295133590698,-0.8571004271507263,-0.00005289912223815918,0.010852932929992676,0.006621301174163818,0.9552628333443464,-0.14165892708365968,-0.22667713632154837,0.12658198240062574
1729788029240360200,2.681360107421875,-0.03576003015041351,-0.005880655720829964,0.0015606554225087166,-0.3972248435020447,0.3282044529914856,-0.8570263981819153,-0.0048136115074157715,0.006527602672576904,0.024934053421020508,0.9552455728881883,-0.14175389533271696,-0.22669944181101884,0.12656598846347117
1729788029250390300,2.691390380859375,-0.04135719686746597,-0.015077724121510983,0.00039552245289087296,-0.3974614441394806,0.32853278517723083,-0.8567909002304077,-0.01292353868484497,-0.006572365760803223,0.0072730183601379395,0.955189856102374,-0.1419242250973475,-0.22685253847973755,0.1265219122966605
1729788029260421400,2.70142138671875,-0.036317430436611176,-0.017627965658903122,-0.007331639528274536,-0.39802420139312744,0.3288991153240204,-0.8563889861106873,-0.007951021194458008,-0.012996405363082886,-0.0062514543533325195,0.9550951597026406,-0.14210543624360597,-0.22718176917753732,0.1264421096363959
1729788029270451200,2.711451171875,-0.025711923837661743,-0.02744949236512184,-0.01433122530579567,-0.39884287118911743,0.3290952742099762,-0.8559325933456421,-0.00649145245552063,-0.005898892879486084,0.00238645076751709,0.9549933042943661,-0.1421961824207336,-0.22762677014384183,0.12630866650913491
1729788029280482300,2.721482421875,-0.009832825511693954,-0.02575012668967247,-0.005582741461694241,-0.39940541982650757,0.3290664851665497,-0.855681300163269,-0.0069054365158081055,0.00642848014831543,0.00002944469451904297,0.9549394797881878,-0.14217227450267322,-0.22791751680548417,0.12621813537124366
1729788029290513200,2.73151318359375,0.004401038400828838,-0.016795461997389793,0.00029165949672460556,-0.3996344804763794,0.328882098197937,-0.8556452989578247,-0.004036635160446167,0.011785626411437988,0.0037928223609924316,0.9549334000443797,-0.14206876812809252,-0.2280215474187214,0.126193486366267
1729788029300543200,2.741543212890625,0.02821209654211998,-0.01436772383749485,-0.0030245091766119003,-0.39966246485710144,0.3286873996257782,-0.8557069897651672,-0.002711683511734009,0.010515481233596802,0.010537922382354736,0.954944904452821,-0.14195641098739153,-0.22802383196800227,0.1262286862414964
1729788029310574300,2.75157421875,0.013762116432189941,-0.020692836493253708,-0.0059167020954191685,-0.3997678756713867,0.328806608915329,-0.8556119799613953,-0.0007447004318237305,0.0027058422565460205,0.008703351020812988,0.9549132052990229,-0.1420011613363867,-0.2281001678787174,0.12628012075530215
1729788029320605200,2.761605224609375,-0.02348964847624302,-0.024225521832704544,-0.012785260565578938,-0.40027034282684326,0.32916077971458435,-0.8552407622337341,-0.0000286102294921875,-0.0034466683864593506,0.01757901906967163,0.9548206240765988,-0.1421688252017151,-0.22840234982212965,0.12624501941602875
1729788029330635300,2.77163525390625,-0.043746985495090485,-0.024231594055891037,0.002996099181473255,-0.4008103907108307,0.32928138971328735,-0.8549413681030273,-0.003135383129119873,-0.0053372979164123535,0.039282798767089844,0.9547553216077865,-0.14222675654867395,-0.2286937945831821,0.1261465668096125
1729788029340666400,2.781666259765625,-0.05726145952939987,-0.02424757182598114,0.002735908143222332,-0.4011291265487671,0.3293156325817108,-0.8547787070274353,-0.0030607879161834717,-0.007690876722335815,0.029079794883728027,0.9547230817698107,-0.14224651794648924,-0.22885930757535528,0.12606775436001097
1729788029350696400,2.791696533203125,-0.05763690173625946,-0.008453642018139362,0.005170569755136967,-0.40139806270599365,0.3296129107475281,-0.854537844657898,-0.007110118865966797,-0.008400171995162964,0.009338200092315674,0.9546691412306042,-0.14240517310437026,-0.2290237081813101,0.12599846909884907
1729788029360727300,2.801727294921875,-0.04385610669851303,-0.015588783659040928,0.0021609319373965263,-0.4015417695045471,0.33023884892463684,-0.8542286157608032,-0.007149487733840942,-0.003822833299636841,0.0011859536170959473,0.9545910022966558,-0.142732039461886,-0.22915772802342005,0.12597743533273656
1729788029370758400,2.81175830078125,0.007690641563385725,-0.027049429714679718,-0.023494098335504532,-0.4018157422542572,0.3305920362472534,-0.8539630770683289,-0.00028374791145324707,0.006962895393371582,-0.011790096759796143,0.954525101157138,-0.1429100924526905,-0.22933633741124307,0.12594929102113556
1729788029380788200,2.821788330078125,0.039227526634931564,-0.010563398711383343,-0.008450699970126152,-0.402115136384964,0.3305644094944,-0.8538328409194946,-0.00706443190574646,0.012178510427474976,-0.01933610439300537,0.9544947925618015,-0.14288633506916237,-0.22949305489649835,0.12592078256243114
1729788029390819300,2.8318193359375,0.03065088391304016,-0.012487000785768032,0.017825644463300705,-0.402201771736145,0.3303624987602234,-0.8538702130317688,-0.00761866569519043,0.01755315065383911,-0.0043604373931884766,0.9544932570113729,-0.14275475079874111,-0.22953425964242216,0.1260064556683279
1729788029400849400,2.841849365234375,0.026700884103775024,-0.027097370475530624,0.006147683598101139,-0.40242812037467957,0.3301851749420166,-0.8538321852684021,0.001137375831604004,0.012573003768920898,0.005031466484069824,0.9544695830017236,-0.14262414779031377,-0.22965685340099598,0.1261106250346488
1729788029410880300,2.85188037109375,0.0038279923610389233,-0.04446501284837723,-0.013084333389997482,-0.40314117074012756,0.3301604390144348,-0.8535052537918091,0.0005839169025421143,-0.007040351629257202,0.011891484260559082,0.9543835936874715,-0.14257217460182464,-0.23004463597658079,0.12611325535951282
1729788029420911400,2.861911376953125,-0.022079238668084145,-0.04472919926047325,-0.015207406133413315,-0.40386220812797546,0.3301594853401184,-0.8531647324562073,-0.00028195977210998535,-0.016835510730743408,0.01129150390625,0.9543040760416314,-0.1425505815386977,-0.23042779870565622,0.12604007652265026
1729788029430941400,2.87194140625,-0.03180510178208351,-0.031923867762088776,-0.003096148371696472,-0.40440633893013,0.33020055294036865,-0.8528910279273987,-0.0026675164699554443,-0.01106300950050354,0.018982887268066406,0.9542442168685147,-0.14256485166645866,-0.23071576446397188,0.1259497721215833
1729788029440972300,2.88197216796875,-0.02096869982779026,-0.03213931620121002,0.009801807813346386,-0.4047624170780182,0.3303297162055969,-0.8526720404624939,-0.003959387540817261,-0.0016249120235443115,0.03481614589691162,0.9541875277262155,-0.14261516986677758,-0.2309218447844348,0.12594412157454332
1729788029451003400,2.89200341796875,-0.027617815881967545,-0.022874604910612106,0.00048420578241348267,-0.40481260418891907,0.3306407034397125,-0.8525276780128479,0.0008362829685211182,-0.0016306936740875244,0.030185699462890625,0.9541429768289557,-0.1427639031423173,-0.23098621660448182,0.12599527303811486
1729788029461033500,2.902033447265625,-0.04953509569168091,-0.016908857971429825,0.01018610130995512,-0.40483853220939636,0.33105549216270447,-0.8523543477058411,-0.0022047758102416992,-0.003769785165786743,0.017683327198028564,0.9540957966981349,-0.14297779366730762,-0.23104148634546437,0.12600870878930928
1729788029471064300,2.912064208984375,-0.03729674220085144,-0.02906528115272522,-0.012097366154193878,-0.40503013134002686,0.33178675174713135,-0.8519789576530457,0.0011606216430664062,-0.0037685930728912354,-0.002482771873474121,0.9539982147329554,-0.14335423661574548,-0.2312143993661958,0.1260029509856812
1729788029481094400,2.922094482421875,0.024482205510139465,-0.02219965308904648,-0.03774653747677803,-0.40526214241981506,0.33196187019348145,-0.8518003821372986,-0.002010047435760498,0.007256239652633667,-0.03470480442047119,0.9539626324199356,-0.14345471693973513,-0.23134511999329313,0.12591794070748707
1729788029491125200,2.932125244140625,0.05478431656956673,-0.009251419454813004,-0.015148017555475235,-0.40552204847335815,0.3314245939254761,-0.8518858551979065,-0.01165306568145752,0.017192929983139038,-0.033429086208343506,0.9539959285595483,-0.14317776820017025,-0.23142426381384823,0.12583505282956953
1729788029501156400,2.94215625,0.05499470606446266,0.002757573500275612,-0.005257836077362299,-0.40568697452545166,0.3305959403514862,-0.852129340171814,-0.008939981460571289,0.015702277421951294,0.0032675862312316895,0.9540617806872425,-0.14273591305451266,-0.23143422079488749,0.12582015019234666
1729788029511186400,2.9521865234375,0.008464556187391281,0.0071351174265146255,-0.007456009276211262,-0.4058479964733124,0.33018380403518677,-0.8522124290466309,-0.009251952171325684,-0.0023487210273742676,0.025704801082611084,0.9540865601736108,-0.14251571764974422,-0.23148013705627465,0.12579725176341108
1729788029521217300,2.96221728515625,-0.032494597136974335,-0.008700836449861526,-0.014796480536460876,-0.4061622619628906,0.3304074704647064,-0.8519760370254517,-0.004741549491882324,-0.02042517066001892,0.042985498905181885,0.9540357304030054,-0.14263711481449873,-0.2316606302593925,0.12571333126168807
1729788029531248400,2.972248291015625,-0.050723735243082047,-0.027463391423225403,-0.036870624870061874,-0.4065675735473633,0.33080288767814636,-0.8516291379928589,0.0023318827152252197,-0.028694123029708862,0.03606212139129639,0.9539672383020278,-0.14286530995223562,-0.23189420759437424,0.12554266160806357
1729788029541278500,2.982278564453125,-0.04886804148554802,-0.017196107655763626,-0.040775347501039505,-0.4070178270339966,0.3311159610748291,-0.8512923717498779,0.0005390942096710205,-0.0201265811920166,0.011082351207733154,0.9539107464608869,-0.14306512682198053,-0.23213399692344802,0.1253009603293329
1729788029551309300,2.992309326171875,-0.006142682861536741,-0.007357112132012844,-0.02088925987482071,-0.40715453028678894,0.3311785161495209,-0.851202666759491,-0.003886580467224121,-0.000551074743270874,0.011786103248596191,0.9539102468598059,-0.1431334843029634,-0.2321884666632229,0.12512577148785267
1729788029561339400,3.00233935546875,0.010301005095243454,-0.011445863172411919,-0.0016274149529635906,-0.4069899618625641,0.3310398459434509,-0.8513352870941162,-0.0002059340476989746,0.016418039798736572,0.006868124008178711,0.9539481649952802,-0.14307493760167836,-0.23208170023364255,0.12510181424306815
1729788029571370200,3.012370361328125,0.013904196210205555,-0.03038322925567627,-0.013682213611900806,-0.40707892179489136,0.3309765160083771,-0.8513173460960388,0.006276458501815796,0.023622453212738037,-0.01748758554458618,0.9539408921480472,-0.1430321830766188,-0.23212736096827044,0.12512098179819253
1729788029581401300,3.0224013671875,0.014457867480814457,-0.04844558611512184,-0.026701875030994415,-0.4075947701931,0.33097711205482483,-0.8510702848434448,0.0038473308086395264,0.013245910406112671,-0.014560878276824951,0.9538828222241333,-0.14301757584617547,-0.23240231678485332,0.1250699317868003
1729788029591431400,3.032431396484375,0.007869739085435867,-0.06653697788715363,-0.014357857406139374,-0.40842175483703613,0.33081185817718506,-0.850737988948822,-0.004969179630279541,-0.005860716104507446,0.008971631526947021,0.9538046027769675,-0.14290318782811126,-0.23282973695309925,0.12500209800149065
1729788029601462300,3.042462158203125,-0.06076551228761673,-0.023970071226358414,0.00705635454505682,-0.4091893136501312,0.3309175372123718,-0.8503279685974121,-0.010823965072631836,-0.019760340452194214,0.035066068172454834,0.9537060083916198,-0.14293474133963374,-0.23325024948648188,0.12493471832025238
1729788029611492400,3.052492431640625,-0.06060699000954628,-0.027641503140330315,0.024207912385463715,-0.40949931740760803,0.3312794268131256,-0.8500377535820007,-0.018387526273727417,-0.011241614818572998,0.04304611682891846,0.9536303256690898,-0.1431099290132483,-0.2334537874472526,0.12493158052820216
1729788029621523500,3.0625234375,-0.060153987258672714,-0.009034797549247742,0.012012231163680553,-0.4096473157405853,0.3317016065120697,-0.849801778793335,0.0014595985412597656,-0.007711738348007202,0.03455519676208496,0.953568892547181,-0.14332549108296153,-0.2335742055889646,0.12492846603917208
1729788029631554300,3.07255419921875,-0.025227626785635948,-0.04622850567102432,-0.004437049850821495,-0.409904420375824,0.33208268880844116,-0.849528968334198,0.015800535678863525,0.00802043080329895,0.028087258338928223,0.9535004090681994,-0.14351847525239472,-0.23374766717136572,0.1249057372256522
1729788029641584400,3.08258447265625,0.005700194742530584,-0.05759487301111221,-0.030658267438411713,-0.4103942811489105,0.33235979080200195,-0.8491840362548828,0.024316519498825073,0.010520458221435547,0.0009173750877380371,0.9534130173128815,-0.14364457611424394,-0.2340389476525069,0.12488215049547476
1729788029651615500,3.092615478515625,-0.024913441389799118,-0.026909030973911285,-0.03359014168381691,-0.41063353419303894,0.3324846625328064,-0.849019467830658,0.008976548910140991,0.0018506646156311035,-0.010203003883361816,0.9533829569645237,-0.1437223804009315,-0.23416692320468308,0.12478218654905986
1729788029661645000,3.10264501953125,-0.0015199680346995592,-0.034233253449201584,-0.014744548127055168,-0.41075602173805237,0.3326427638530731,-0.8488982319831848,-0.011820763349533081,0.00944402813911438,-0.014169394969940186,0.9533625202303982,-0.14382073875320464,-0.23423592537099228,0.12469511422890206
1729788029671676400,3.112676513671875,0.0032572108320891857,-0.03224445879459381,-0.014576236717402935,-0.41117429733276367,0.33247002959251404,-0.8487634062767029,-0.012028038501739502,0.0016516447067260742,-0.01789003610610962,0.9533331005138208,-0.14371872791538134,-0.2344423617648585,0.12464980628728163
1729788029681707300,3.122707275390625,0.0019136457704007626,-0.03381599113345146,-0.02630612999200821,-0.4119288921356201,0.332175612449646,-0.8485127687454224,-0.012402623891830444,-0.003791213035583496,-0.024930894374847412,0.9532832564647254,-0.14355352814196953,-0.23481055729674646,0.12452859882582422
1729788029691737000,3.132737060546875,-0.0019508673576638103,-0.027521558105945587,-0.028730403631925583,-0.4128800630569458,0.33202674984931946,-0.8481086492538452,-0.011161565780639648,-0.000651627779006958,-0.00836724042892456,0.9531998096846659,-0.14346766799505167,-0.23529280952472542,0.12435578000546105
1729788029701768400,3.1427685546875,-0.024417027831077576,-0.02445599064230919,-0.003166189417243004,-0.41330212354660034,0.3321259617805481,-0.8478641510009766,-0.0033389925956726074,0.004238784313201904,0.021066665649414062,0.9531470449435243,-0.1435195044159858,-0.235520843736277,0.1242683533904917
1729788029711799300,3.15279931640625,-0.030008068308234215,-0.037458449602127075,-0.0034436904825270176,-0.41343066096305847,0.33265867829322815,-0.8475926518440247,0.00640261173248291,-0.0006274282932281494,0.026028871536254883,0.9530727929220416,-0.14378809921161248,-0.2356452072731353,0.12429198145746556
1729788029721829000,3.1628291015625,-0.05668441951274872,-0.021938078105449677,-0.022244010120630264,-0.4133351743221283,0.3331454396247864,-0.8474479913711548,0.007604122161865234,-0.015396416187286377,0.002324700355529785,0.9530399204614913,-0.1440596492490547,-0.23563279313684882,0.12425316316347967
1729788029731860500,3.172860595703125,-0.06962884962558746,-0.031156130135059357,-0.02071375772356987,-0.41334205865859985,0.33361974358558655,-0.8472580313682556,0.003414839506149292,-0.012574821710586548,0.00488126277923584,0.9530095022092329,-0.14434658909955964,-0.2356587522721293,0.12410403121095998
1729788029741890300,3.182890380859375,-0.0039350553415715694,-0.039516858756542206,-0.016454564407467842,-0.4137256145477295,0.33389008045196533,-0.8469642996788025,0.006941676139831543,0.004015803337097168,-0.00035631656646728516,0.9529460343360084,-0.14449514576240052,-0.23587921827761144,0.12399972258294484
1729788029751920600,3.192920654296875,0.006820985581725836,-0.02091100439429283,-0.016709161922335625,-0.4140471816062927,0.33369746804237366,-0.8468830585479736,0.0003204941749572754,0.010815471410751343,-0.019511044025421143,0.9529331802622113,-0.14439282223297223,-0.23602793189161406,0.12393455471147322
1729788029761951700,3.20295166015625,0.016901317983865738,0.0036177746951580048,0.0000253431499004364,-0.41414937376976013,0.3332957625389099,-0.846991240978241,-0.014424115419387817,0.017808973789215088,-0.012749969959259033,0.952967474156347,-0.1441866936058235,-0.23603934014928624,0.12388887750012738
1729788029771981800,3.21298193359375,0.00460516894236207,0.013024326413869858,0.019111420959234238,-0.4141192138195038,0.33316028118133545,-0.8470593094825745,-0.018238455057144165,0.010437101125717163,0.0013256072998046875,0.9529803364642282,-0.14410728011273538,-0.23601577611467905,0.12392706296109685
1729788029782012700,3.2230126953125,0.013834886252880096,0.01760869100689888,0.002959347330033779,-0.414131224155426,0.33330512046813965,-0.8469964265823364,-0.010993778705596924,0.002037256956100464,-0.0020636320114135742,0.9529562107270696,-0.1441685923274077,-0.23604491102209121,0.12398577205646234
1729788029792042800,3.233042724609375,0.024818893522024155,0.024649184197187424,-0.01553417555987835,-0.41403669118881226,0.3332071602344513,-0.847081184387207,-0.010630548000335693,-0.002305060625076294,-0.02111339569091797,0.9529815581962324,-0.14412764701042924,-0.23598013110407234,0.12396208695702346
1729788029802073600,3.243073486328125,0.0042880536057055,0.032593660056591034,0.00500998180359602,-0.41372713446617126,0.33282947540283203,-0.8473808765411377,-0.005156993865966797,0.0019483566284179688,-0.00148087739944458,0.953066578988509,-0.14395656839673643,-0.23576697126134005,0.12391276062706529
1729788029812104700,3.253104736328125,-0.02235061302781105,0.015348413959145546,0.010552818886935711,-0.4134924113750458,0.3327959179878235,-0.8475086092948914,0.008814215660095215,0.001783519983291626,0.023945927619934082,0.9530993129288017,-0.14394961776329246,-0.23563574523473396,0.12391873251787357
1729788029822134800,3.263134765625,-0.007061140611767769,0.007690759841352701,-0.016353365033864975,-0.41329386830329895,0.33303290605545044,-0.847512423992157,0.008112132549285889,-0.0056250691413879395,0.010598301887512207,0.9531027681813565,-0.14408957241479523,-0.2355461625106351,0.1239004802086076
1729788029832165600,3.27316552734375,0.0007085655815899372,0.022537989541888237,-0.030001796782016754,-0.4131458103656769,0.3329918682575226,-0.8476006984710693,-0.005723059177398682,-0.006118088960647583,-0.01984626054763794,0.9531416798674537,-0.14410564757493205,-0.23544259663227696,0.12377894692665885
1729788029842196700,3.28319677734375,-0.0012840116396546364,0.0339144803583622,0.008347720839083195,-0.41302794218063354,0.3331489861011505,-0.8475964069366455,-0.012203842401504517,0.005214661359786987,-0.0015857815742492676,0.9531491271105271,-0.14421103772291136,-0.23538262381269212,0.12371290149092166
1729788029852226800,3.293226806640625,0.011110273189842701,0.03436194360256195,0.04879314824938774,-0.41290074586868286,0.33334264159202576,-0.8475822806358337,-0.003526747226715088,0.012360483407974243,0.025621771812438965,0.953130118317004,-0.14429073875537998,-0.23534879909004963,0.12383097534399927
1729788029862257700,3.303257568359375,-0.04125839099287987,0.04148430377244949,0.03652210161089897,-0.4126121401786804,0.33362895250320435,-0.8476101160049438,0.0003045201301574707,-0.0036881566047668457,0.025893807411193848,0.9531175147226514,-0.14441911671605168,-0.23524040975532548,0.12398416220037659
1729788029872287700,3.313287841796875,-0.04344910755753517,0.03802453726530075,0.004479479975998402,-0.41225171089172363,0.33393755555152893,-0.8476639986038208,-0.004831880331039429,-0.01293841004371643,0.013969480991363525,0.953134203558244,-0.14460570764119232,-0.23506849807428515,0.12396443187219058
1729788029882318800,3.32331884765625,-0.004695321433246136,0.03713877126574516,-0.005460236221551895,-0.4120519757270813,0.3341192603111267,-0.8476895093917847,-0.005672484636306763,-0.010465085506439209,-0.011182010173797607,0.9531511770507479,-0.1447316031857519,-0.2349638667075795,0.12388513618994636
1729788029892349700,3.333349609375,0.016653109341859818,0.05243085324764252,0.00383659265935421,-0.4117395877838135,0.3341955542564392,-0.8478111624717712,-0.00023230910301208496,-0.0029425323009490967,-0.01191478967666626,0.9531849907484384,-0.14479185413454698,-0.23479721113701624,0.12387009739689679
1729788029902379800,3.3433798828125,0.012179000303149223,0.05966213345527649,0.012019687332212925,-0.4112175703048706,0.334049254655838,-0.8481221199035645,0.0008631050586700439,0.0064658522605896,0.011696338653564453,0.9532638427383541,-0.14473655849217731,-0.23450001231247788,0.1238912756927229
1729788029912410600,3.35341064453125,-0.02964208275079727,0.04847286641597748,0.008399653248488903,-0.410714328289032,0.3339555561542511,-0.8484028577804565,0.001412719488143921,0.0035535991191864014,0.019286036491394043,0.9533386981134682,-0.1447155232831839,-0.23421354333402897,0.12388212389345742
1729788029922440700,3.363440673828125,-0.004806241951882839,0.018535736948251724,-0.018080156296491623,-0.41065308451652527,0.33415842056274414,-0.8483526110649109,-0.0012730658054351807,-0.0008149147033691406,-0.007863879203796387,0.9533384420351686,-0.14485033728614233,-0.23418382468832205,0.12378228173765454
1729788029932471800,3.373471923828125,0.04367833584547043,0.028414307162165642,-0.03197599947452545,-0.41080015897750854,0.33416375517845154,-0.8482792973518372,-0.009503066539764404,-0.0037041902542114258,-0.03776812553405762,0.9533357717768641,-0.14487690940413564,-0.23424565593961486,0.12365455266691554
1729788029942502700,3.383502685546875,0.05045022442936897,0.050574738532304764,0.012099049054086208,-0.4106859564781189,0.33376169204711914,-0.8484928607940674,-0.015552937984466553,0.00998830795288086,-0.019320249557495117,0.9533972545148971,-0.14468090539695264,-0.2341388419463476,0.12361238820989881
1729788029952532700,3.39353271484375,0.023226991295814514,0.03933523967862129,0.04229423776268959,-0.41040173172950745,0.33344337344169617,-0.8487555384635925,-0.0034012198448181152,0.017188340425491333,0.031357407569885254,0.9534488485896907,-0.14449481531545103,-0.23397325961841647,0.1237460772489684
1729788029962563800,3.403563720703125,-0.027078524231910706,0.023720860481262207,0.021487224847078323,-0.41009634733200073,0.3334190249443054,-0.8489126563072205,0.011842101812362671,-0.007323503494262695,0.05418914556503296,0.9534752813544828,-0.14447005952831915,-0.23382059508628306,0.12385944070843953
1729788029972594700,3.4135947265625,-0.07509751617908478,0.005528219044208527,-0.00994473323225975,-0.40992504358291626,0.33384037017822266,-0.8488298058509827,0.01276940107345581,-0.029641181230545044,0.05135965347290039,0.9534605943205696,-0.14471471398447514,-0.23375788290906568,0.12380506166668374
1729788029982624800,3.423624755859375,-0.07677770406007767,-0.009669641964137554,-0.01361909694969654,-0.41005340218544006,0.33456599712371826,-0.848482072353363,0.012638360261917114,-0.02333247661590576,0.03552424907684326,0.9533892949447327,-0.14512866025751042,-0.23387314472113027,0.12365202831979623
1729788029992656000,3.43365576171875,-0.039727672934532166,-0.01711738482117653,0.00020776968449354172,-0.41027748584747314,0.33509141206741333,-0.8481663465499878,0.010298967361450195,0.0009376406669616699,-0.009667575359344482,0.9533181248288867,-0.14541653808714886,-0.2340317692839595,0.12356219658683724
1729788030002685700,3.443685791015625,-0.038881052285432816,0.0069618527777493,0.016400586813688278,-0.4102603793144226,0.3354514539241791,-0.8480322360992432,-0.001848846673965454,0.017316460609436035,-0.032140493392944336,0.9532843284265,-0.1456102014366847,-0.2340545801800788,0.12355156017665854
1729788030012716800,3.453716796875,0.033253125846385956,0.0055903778411448,0.005878171883523464,-0.4101387858390808,0.33535826206207275,-0.8481279015541077,-0.013933330774307251,0.02299436926841736,-0.018754422664642334,0.9533052674664649,-0.14555936371520317,-0.23398399003867493,0.12358379460999502
1729788030022747600,3.46374755859375,0.04631459712982178,0.0076290275901556015,0.007908033207058907,-0.41010504961013794,0.335018128156662,-0.8482786417007446,-0.016103297472000122,0.009418517351150513,-0.02411210536956787,0.953336017052828,-0.14536484486565646,-0.23394385857920658,0.12365152333772507
1729788030032777700,3.47377783203125,0.028012890368700027,0.0007876334711909294,0.0061279768124222755,-0.41014760732650757,0.3349188268184662,-0.8482972979545593,-0.007134348154067993,0.00020995736122131348,-0.004241824150085449,0.953330700083945,-0.14529094367188747,-0.23396986702888387,0.12373001781953115
1729788030042808800,3.483808837890625,-0.0037271957844495773,0.0038782316260039806,0.008405511267483234,-0.41021305322647095,0.334927499294281,-0.8482622504234314,0.003123939037322998,-0.006802499294281006,0.02407395839691162,0.9533160648262673,-0.14528184229320326,-0.23401297754470893,0.12377189213303028
1729788030052839000,3.4938388671875,-0.031828004866838455,-0.001124090515077114,0.02995554730296135,-0.4102230370044708,0.33507028222084045,-0.8482009768486023,0.007955729961395264,-0.005709350109100342,0.032893359661102295,0.9532930307676242,-0.14534350331845367,-0.23404009494764458,0.12382578041448523
1729788030062869800,3.503869873046875,-0.04648125171661377,-0.0023174528032541275,0.025767192244529724,-0.4101683795452118,0.3354470133781433,-0.8480785489082336,0.01183784008026123,-0.0055825114250183105,0.026255369186401367,0.9532513201281065,-0.14552714722577553,-0.23405680518776353,0.12389964385207564
1729788030072900900,3.51390087890625,-0.04320190101861954,0.004266893491148949,0.001997946761548519,-0.41002246737480164,0.33587443828582764,-0.8479799032211304,0.0030096769332885742,-0.010267168283462524,0.008685410022735596,0.9532222457238604,-0.14575451501099201,-0.23402068298073642,0.12392399353098082
1729788030082930700,3.5239306640625,-0.03953446075320244,0.024888549000024796,0.011618348769843578,-0.40976405143737793,0.33629539608955383,-0.8479379415512085,-0.005534261465072632,-0.01123744249343872,0.005423903465270996,0.9532130194227637,-0.14599362852293046,-0.23391640278680234,0.1239103952374071
1729788030092961800,3.5339619140625,-0.03836187347769737,0.02601485326886177,0.03393484279513359,-0.4094756245613098,0.33684805035591125,-0.8478579521179199,-0.005166590213775635,-0.002054959535598755,0.009982526302337646,0.953184789642577,-0.1462868192566518,-0.2338187347092516,0.1239663443830063
1729788030102993000,3.543992919921875,0.009571298956871033,0.021588411182165146,-0.0023579197004437447,-0.4092620313167572,0.3370635211467743,-0.8478754162788391,-0.0004973411560058594,0.00883793830871582,-0.01949518918991089,0.9531826376934196,-0.14639906733784636,-0.2337297499334199,0.12401806282387821
1729788030113022700,3.554022705078125,0.05943586304783821,0.03505191579461098,-0.027420662343502045,-0.40912243723869324,0.3366444706916809,-0.848109245300293,-0.007259279489517212,0.011027038097381592,-0.04385852813720703,0.953253146774796,-0.14620226036840495,-0.23360281041061332,0.12394741558826936
1729788030123053800,3.5640537109375,0.0519382618367672,0.027571365237236023,-0.003132899757474661,-0.4089811146259308,0.3360833525657654,-0.8483999371528625,-0.010101407766342163,0.01229006052017212,-0.03200173377990723,0.9533332371317762,-0.1459204382156268,-0.2334679119884013,0.12391799065221956
1729788030133084000,3.574083984375,0.016747253015637398,0.018032772466540337,0.01054802443832159,-0.4088510572910309,0.3358737826347351,-0.8485456109046936,0.0033946633338928223,0.005068600177764893,0.007908344268798828,0.9533653064808696,-0.1458049456571691,-0.23338407058083,0.12396522069366302
1729788030143114800,3.58411474609375,-0.018637634813785553,0.01745619811117649,-0.0014231503009796143,-0.4087109863758087,0.335945188999176,-0.848584771156311,0.0035292208194732666,-0.013313353061676025,0.034528374671936035,0.9533749705331177,-0.14584881251052176,-0.2333146542925545,0.12396984991753938
1729788030153145900,3.594145751953125,-0.04676447808742523,0.008031271398067474,-0.009237663820385933,-0.40866926312446594,0.33613529801368713,-0.848529577255249,-0.0012732148170471191,-0.027190595865249634,0.04501700401306152,0.9533724980084409,-0.14597395676465638,-0.23329552616023239,0.1238776248558973
1729788030163176000,3.604176025390625,-0.05896521732211113,0.005381692200899124,-0.014497406780719757,-0.40875694155693054,0.3364356756210327,-0.8483682870864868,0.006169170141220093,-0.021692633628845215,0.031519532203674316,0.9533492925792553,-0.14616418640461862,-0.23334927490786206,0.12373002455237044
1729788030173206800,3.614206787109375,-0.056166570633649826,-0.0011835852637887,-0.023494631052017212,-0.40890175104141235,0.3368604779243469,-0.84812992811203,0.008679121732711792,-0.011527836322784424,0.018829941749572754,0.953309173795683,-0.14642327344587533,-0.2334422150149727,0.1235577119047942
1729788030183236900,3.62423681640625,-0.026564734056591988,-0.0004972890019416809,-0.01300843432545662,-0.40889623761177063,0.3371487259864807,-0.8480180501937866,0.006873041391372681,-0.00009733438491821289,0.019007980823516846,0.9532966565676898,-0.14660771958307733,-0.23344627901341794,0.12342758348275286
1729788030193267700,3.634267822265625,-0.022983048111200333,-0.0022311126813292503,-0.00017332891002297401,-0.40877917408943176,0.3372841775417328,-0.848020613193512,0.0010491907596588135,0.008861452341079712,0.0057201385498046875,0.9533034512294722,-0.14669681817294067,-0.23338752501310198,0.1233806623261906
1729788030203298800,3.644298828125,-0.018969397991895676,-0.019439928233623505,-0.003970197401940823,-0.40884050726890564,0.33743295073509216,-0.8479318618774414,0.0010647475719451904,0.01181018352508545,-0.005583822727203369,0.9532843356501532,-0.14678027365122645,-0.2334301503071345,0.12334801027222171
1729788030213329000,3.654328857421875,-0.018648488447070122,-0.0331558994948864,-0.0029712459072470665,-0.409080445766449,0.3376373052597046,-0.8477347493171692,-0.001075655221939087,0.00480043888092041,-0.007215261459350586,0.9532341243038677,-0.14687877124838578,-0.23357924482739884,0.12333628391614652
1729788030223359700,3.66435986328125,-0.004099638666957617,-0.041985075920820236,-0.008866152726113796,-0.4095726013183594,0.33768370747566223,-0.8474785685539246,-0.0018347203731536865,0.00013059377670288086,0.0020348429679870605,0.9531726320574946,-0.14688876024228087,-0.23384697859422313,0.12329218807980172
1729788030233390800,3.674390869140625,-0.0018521974561735988,-0.05049579590559006,-0.008609957061707973,-0.41028833389282227,0.33745792508125305,-0.8472222685813904,-0.002370208501815796,0.0025231242179870605,-0.0011969208717346191,0.9531126655486081,-0.14674636298192267,-0.23421010956279747,0.12323611515347399
1729788030243421000,3.6844208984375,0.001720166765153408,-0.0609700083732605,-0.014502733945846558,-0.4109017550945282,0.33728352189064026,-0.8469944000244141,0.001691669225692749,0.0016141533851623535,0.0004519820213317871,0.9530577440546077,-0.1466317767102147,-0.2345248854656932,0.12319893124129103
1729788030253451800,3.69445166015625,0.010956342332065105,-0.0593365840613842,-0.025907721370458603,-0.41145986318588257,0.33706653118133545,-0.8468098640441895,0.002295583486557007,-0.0008238554000854492,0.011757314205169678,0.9530142609574874,-0.14649765780700202,-0.23480526754799913,0.1231612357300981
1729788030263481900,3.70448193359375,-0.009546535089612007,-0.05708407983183861,-0.019490035250782967,-0.41200941801071167,0.337066113948822,-0.8465427756309509,0.0027688145637512207,-0.0040888190269470215,0.014877676963806152,0.9529494252889646,-0.14647911271207079,-0.2351009904488526,0.12312097619953843
1729788030273513000,3.714512939453125,-0.034381043165922165,-0.052983880043029785,-0.02209274284541607,-0.41247960925102234,0.3373483717441559,-0.8462013006210327,0.00624498724937439,-0.002662092447280884,0.02414923906326294,0.9528674901933134,-0.14661882330323217,-0.23537686580418868,0.12306169126337267
1729788030283543800,3.724543701171875,-0.047377005219459534,-0.04283776879310608,-0.02618628740310669,-0.41288015246391296,0.33769169449806213,-0.8458689451217651,0.004448294639587402,-0.009429395198822021,0.027311205863952637,0.9527932244900459,-0.14680472886556345,-0.2356138841548277,0.1229609038280289
1729788030293574000,3.734573974609375,-0.08024407923221588,-0.022092700004577637,-0.03691216930747032,-0.41319409012794495,0.3381269872188568,-0.8455417156219482,-0.002150028944015503,-0.02060684561729431,0.025259673595428467,0.9527326062412823,-0.14706715590870525,-0.23579736115135713,0.12276564314377865
1729788030303604700,3.744604736328125,-0.0650523379445076,0.006131479516625404,-0.04015509784221649,-0.41336971521377563,0.33860766887664795,-0.8452634811401367,-0.012899696826934814,-0.025375276803970337,0.017077386379241943,0.9526940005078192,-0.14737857955518557,-0.23589791016540498,0.12249855018664237
1729788030313634800,3.754634765625,-0.07321132719516754,0.02384229749441147,-0.02613062784075737,-0.4132845997810364,0.3390458822250366,-0.8451294302940369,-0.013152629137039185,-0.01940476894378662,-0.00647890567779541,0.9526900382520974,-0.14767496365449984,-0.23585460960769597,0.12225526910308454
1729788030323666000,3.764666015625,-0.00042021553963422775,0.01705363392829895,-0.06189128756523132,-0.4131799042224884,0.3392532765865326,-0.8450973629951477,-0.005673706531524658,0.0035048723220825195,-0.03823399543762207,0.9527138593781689,-0.14785228906730716,-0.2357774875992901,0.1220036687616788
1729788030333696800,3.77469677734375,0.06457742303609848,0.03016490861773491,-0.0840676948428154,-0.4132503271102905,0.3386369049549103,-0.8453101515769958,-0.007220745086669922,0.01985308527946472,-0.06325924396514893,0.9528132501874905,-0.1476068710225472,-0.23570564155394602,0.12166304085103863
1729788030343726800,3.784726806640625,0.08156412839889526,0.03558151423931122,-0.056789468973875046,-0.41325676441192627,0.3377096652984619,-0.8456777930259705,-0.00965571403503418,0.027601003646850586,-0.03876739740371704,0.9529457078027396,-0.14718594949812147,-0.23557883576117108,0.12138020830566854
1729788030353758000,3.794758056640625,0.06735284626483917,0.05037707835435867,-0.015742436051368713,-0.4130491018295288,0.3369844853878021,-0.8460685014724731,0.0006651878356933594,0.02744114398956299,0.00985628366470337,0.9530631699726106,-0.14684165742292138,-0.2353790185347129,0.12126344531366097
1729788030363788800,3.804788818359375,0.003619400318711996,0.03723544254899025,0.005725839175283909,-0.4127497673034668,0.33666449785232544,-0.8463419079780579,0.006759285926818848,0.00873345136642456,0.033170461654663086,0.9531347790674896,-0.14668725632832033,-0.23518479173942963,0.1212642876858291
1729788030373819000,3.81481884765625,-0.0627044290304184,0.02314945124089718,-0.006518842652440071,-0.4126313328742981,0.3368343412876129,-0.8463320732116699,0.012042492628097534,-0.014492452144622803,0.045596539974212646,0.9531426314608037,-0.1468032757574988,-0.2351228560316221,0.12118223157444287
1729788030383850000,3.82485009765625,-0.06961186975240707,0.008945480920374393,-0.012148765847086906,-0.4126996099948883,0.33723586797714233,-0.8461388349533081,0.0071668922901153564,-0.024674832820892334,0.036476969718933105,0.953113864674369,-0.1470548324530957,-0.23517110271140487,0.12100948946231634
1729788030393879800,3.8348798828125,-0.03750932589173317,0.01944158598780632,-0.01345744263380766,-0.4127306044101715,0.33749717473983765,-0.8460195660591125,0.0032916367053985596,-0.015078991651535034,0.014659643173217773,0.9531023306224873,-0.14722991383942602,-0.2351883867879619,0.12085383675501651
1729788030403911000,3.844910888671875,0.006384627427905798,0.03683255985379219,-0.006348134018480778,-0.4124554395675659,0.3375436067581177,-0.8461351990699768,-0.0041246116161346436,0.0073965489864349365,0.0038958191871643066,0.9531438784102173,-0.14729019649193345,-0.23502766345381665,0.12076474931896025
1729788030413941800,3.854941650390625,0.026570189744234085,0.021583938971161842,-0.004739584866911173,-0.41204094886779785,0.33735978603363037,-0.8464103937149048,-0.00502738356590271,0.02097761631011963,0.007878899574279785,0.9532162624086509,-0.1472139998387221,-0.2347825307505931,0.12076329248279674
1729788030423971800,3.864971923828125,0.025841282680630684,-0.015002834610641003,-0.029963713139295578,-0.41199854016304016,0.33716070652008057,-0.8465103507041931,0.0077475905418396,0.012189239263534546,0.0006240606307983398,0.953246761763395,-0.14711920640942197,-0.23473551055285394,0.12072928198690708
1729788030434003000,3.8750029296875,0.008524809032678604,-0.03947760537266731,-0.051299095153808594,-0.4123716652393341,0.3370893895626068,-0.8463571071624756,0.006060749292373657,-0.0036696195602416992,0.0035836100578308105,0.9532246470703738,-0.14709794962319744,-0.23491201445139964,0.12058689500216353
1729788030444033000,3.885032958984375,0.011142430827021599,-0.03682509809732437,-0.04212716966867447,-0.4129113256931305,0.3369885981082916,-0.8461340665817261,-0.0013341307640075684,-0.010435312986373901,-0.0010339021682739258,0.9531883298599689,-0.14706116468936317,-0.235172237919628,0.12041096843828886
1729788030454063900,3.89506396484375,0.0010974532924592495,-0.0351363867521286,-0.014428963884711266,-0.41339436173439026,0.3368241488933563,-0.8459636569023132,-0.0012173056602478027,-0.008790701627731323,0.014207065105438232,0.9531556461134656,-0.14697350945926982,-0.23540803862614826,0.1203163767875563
1729788030464095000,3.905094970703125,-0.018218720331788063,-0.0420030802488327,-0.004893248900771141,-0.4138306677341461,0.3367723226547241,-0.8457709550857544,0.004712164402008057,-0.003322005271911621,0.035224080085754395,0.9531107863956111,-0.14693553892207878,-0.23563628772875006,0.12027143702505368
1729788030474124800,3.915124755859375,-0.019522536545991898,-0.06683167070150375,-0.0074807764030992985,-0.41433677077293396,0.33683690428733826,-0.8454974293708801,0.009963750839233398,0.0015572607517242432,0.03459954261779785,0.953041204849238,-0.14694896914198,-0.23591797932654787,0.12025378182259377
1729788030484156000,3.925156005859375,-0.04800930619239807,-0.08209371566772461,-0.006584622897207737,-0.4150254428386688,0.3371576964855194,-0.8450316786766052,0.014482378959655762,-0.002822399139404297,0.029083192348480225,0.952919495448771,-0.14708545127333172,-0.23632612219030202,0.12025015389361975
1729788030494186800,3.935186767578125,-0.0862763300538063,-0.07715584337711334,0.003850707784295082,-0.4157235622406006,0.3379937708377838,-0.8443542122840881,0.010846972465515137,-0.0052453577518463135,0.026345789432525635,0.9527423321468504,-0.14749454848845311,-0.2367873291576794,0.12024537567462118
1729788030504216600,3.945216552734375,-0.04232459142804146,-0.10239994525909424,0.009016706608235836,-0.41633933782577515,0.338672399520874,-0.8437787294387817,0.006595194339752197,-0.0061070919036865234,0.017744123935699463,0.952583774387588,-0.14780849270693475,-0.2371988559950776,0.12030506765741933
1729788030514248000,3.955248046875,-0.09376221150159836,-0.05751935392618179,-0.009131403639912605,-0.4169843792915344,0.33919858932495117,-0.8432486057281494,-0.0001449882984161377,-0.019999980926513672,0.001924753189086914,0.9524467069657689,-0.14805935086667518,-0.23760073908486784,0.12028857163700592
1729788030524277800,3.96527783203125,-0.09279761463403702,-0.07566746324300766,-0.002854599617421627,-0.41751357913017273,0.33983737230300903,-0.8427294492721558,-0.009213566780090332,-0.004174560308456421,0.010865986347198486,0.9523241499604068,-0.14839864081791718,-0.23793512674703637,0.12018015382525249
1729788030534308600,3.97530859375,-0.05261937156319618,-0.08945959806442261,-0.014409788884222507,-0.41826456785202026,0.3404183089733124,-0.8421223759651184,0.008138954639434814,0.010777980089187622,-0.007578611373901367,0.9521756593356576,-0.14869110149670442,-0.23838998041262607,0.12009359338439841
1729788030544340000,3.985340087890625,0.0234045572578907,-0.11046608537435532,-0.025929559022188187,-0.41929900646209717,0.3404833674430847,-0.8415814638137817,0.012454032897949219,0.018952667713165283,-0.029237687587738037,0.9520395366427696,-0.14868653166337806,-0.23895939296916427,0.12004642854044953
1729788030554369800,3.995369873046875,0.00681965472176671,-0.07875028252601624,-0.014475569128990173,-0.42016029357910156,0.34041547775268555,-0.8411793112754822,0.000955730676651001,0.011070728302001953,-0.020957589149475098,0.9519316696477654,-0.14860338995967892,-0.23943137152545052,0.1200655801878813
1729788030564400600,4.005400634765625,-0.054421864449977875,-0.037460632622241974,0.03131615370512009,-0.42048320174217224,0.3407393991947174,-0.8408867716789246,-0.010104447603225708,0.007756084203720093,0.016622185707092285,0.9518455744652393,-0.14874072614169995,-0.2396514429216296,0.12013903720286961
1729788030574430700,4.0154306640625,-0.08223099261522293,-0.06826318055391312,0.05511229485273361,-0.4206642210483551,0.34157794713974,-0.8404558897018433,-0.0016073882579803467,-0.0006050467491149902,0.038118183612823486,0.951708067286834,-0.14912789802857854,-0.23986021075957492,0.12033151884743551
1729788030584461600,4.025461669921875,-0.09751008450984955,-0.06894202530384064,0.02435145527124405,-0.4210893511772156,0.3424586057662964,-0.8398844003677368,0.015938133001327515,-0.023076891899108887,0.02901703119277954,0.9515398768613658,-0.14953814398853027,-0.2402002147410964,0.1204736434987431
