time,seconds_elapsed,rotationRateX,rotationRateY,rotationRateZ,gravityX,gravityY,gravityZ,accelerationX,accelerationY,accelerationZ,quaternionW,quaternionX,quaternionY,quaternionZ
1728063131688123100,0.082123046875,0.10666011273860931,-0.002212685067206621,-0.024499746039509773,0.01635131984949112,-0.562481164932251,-0.826648473739624,-0.0019317585974931717,0.012264370918273926,-0.015178918838500977,0.9556800954412951,0.2942831765040875,0.008554807820888483,1.7819693442288452e-19
1728063131698153200,0.0921533203125,0.06799627095460892,-0.016295429319143295,-0.007866707630455494,0.016454005613923073,-0.5625723600387573,-0.8265843391418457,0.006739357486367226,0.0037801265716552734,-0.008223950862884521,0.9556633242618803,0.2943371751917328,0.008570170092984098,-0.00012504654779115613
1728063131708184300,0.102184326171875,0.035430870950222015,-0.020939446985721588,-0.009343164041638374,0.016461892053484917,-0.5621195435523987,-0.8268921375274658,0.008943995460867882,-0.0021657943725585938,0.0000489354133605957,0.9557437713765767,0.29407625402506815,0.008548338502038766,-0.00020717334368571634
1728063131718214400,0.11221435546875,0.03294767811894417,-0.01293286681175232,-0.01436695083975792,0.01618061400949955,-0.5615447163581848,-0.8272882103919983,0.006280329078435898,-0.004983723163604736,0.011492371559143066,0.9558473757888454,0.29374416368973627,0.008381737823384337,-0.0002677312083114135
1728063131728245200,0.122245361328125,0.048036348074674606,-0.00013824272900819778,-0.017823733389377594,0.015518242493271828,-0.5612108707427979,-0.8275273442268372,-0.0026550795882940292,-0.008720219135284424,0.007764220237731934,0.9559098708502097,0.2935500878696044,0.008041529228560986,-0.0002457639256787604
1728063131738275300,0.132275390625,0.058875080198049545,0.03461366519331932,-0.022273609414696693,0.015176021493971348,-0.5609947443008423,-0.8276802897453308,-0.01477928925305605,-0.010019779205322266,-0.003359079360961914,0.9559499291323836,0.29342456443203835,0.007866407574955141,-0.00023215168740163428
1728063131748306200,0.14230615234375,0.0889618769288063,0.03859349340200424,-0.015888681635260582,0.015652820467948914,-0.5608004331588745,-0.8278030753135681,-0.015988508239388466,-0.00025004148483276367,-0.014878809452056885,0.9559819729739207,0.29331360428678926,0.00809953168109556,-0.000284349486278684
1728063131758336300,0.152336181640625,0.11874692887067795,0.008041709661483765,-0.0018849815241992474,0.015949970111250877,-0.5609967112541199,-0.8276643753051758,-0.009754899889230728,0.008567512035369873,-0.016116082668304443,0.9559456416622821,0.29342764125968385,0.008248702064527044,-0.00030560845192076065
1728063131768366300,0.162366455078125,0.12862646579742432,-0.003251158632338047,0.010141056030988693,0.015872424468398094,-0.5615178346633911,-0.8273123502731323,0.005764540284872055,0.0017491579055786133,-0.006793975830078125,0.955853606631599,0.2937282367268476,0.008218092495554608,-0.0002754887120733842
1728063131778397400,0.1723974609375,0.11933775991201401,-0.005090071354061365,-0.003919370472431183,0.016068270429968834,-0.5623456239700317,-0.8267461657524109,0.024199677631258965,-0.0020618438720703125,-0.0006616115570068359,0.9557055278783771,0.29420703692994166,0.008314230486582143,-0.00029971955915355743
1728063131788427300,0.18242724609375,0.10080721974372864,0.0009526414796710014,-0.02015559747815132,0.016426945105195045,-0.5633087158203125,-0.826083242893219,0.026694396510720253,0.004211366176605225,0.0061980485916137695,0.9555321210566883,0.2947654385634628,0.008468640002881275,-0.0004119041918169774
1728063131798458400,0.192458251953125,0.05935990810394287,0.00801854021847248,-0.023967646062374115,0.016796307638287544,-0.564204216003418,-0.8254644274711609,0.011493491008877754,-0.0034990906715393066,0.011469125747680664,0.9553701683437994,0.29528530459365526,0.008623261692340381,-0.0005409923945585686
1728063131808488400,0.202488525390625,0.00757207814604044,0.002696213312447071,-0.024669921025633812,0.016836389899253845,-0.5647081136703491,-0.8251189589500427,-0.0025694184005260468,-0.009373366832733154,0.0111236572265625,0.9552796728027337,0.29557777434509247,0.008619110399978475,-0.0006243172787135675
1728063131818519300,0.212519287109375,-0.04912355914711952,-0.0042721605859696865,-0.03392627090215683,0.016456440091133118,-0.5645714998245239,-0.8252201676368713,-0.003196548670530319,-0.007648468017578125,0.012857496738433838,0.9553061332888435,0.29549843695048056,0.008402445790378485,-0.0006812631532340219
1728063131828549400,0.22254931640625,-0.06331128627061844,-0.008829096332192421,-0.036794230341911316,0.016034431755542755,-0.5637354850769043,-0.8257997035980225,0.004488643258810043,-0.0077214837074279785,0.014428913593292236,0.9554576367646312,0.2950147651031979,0.00815025777419268,-0.0007795878355868151
1728063131838580500,0.23258056640625,-0.04045097529888153,-0.011133475229144096,-0.043351732194423676,0.015825526788830757,-0.5627519488334656,-0.8264743089675903,0.008466469123959541,-0.0132368803024292,0.011395573616027832,0.9556339807330343,0.29444686868985026,0.007992871793090836,-0.0009322680362055283
1728063131848610300,0.2426103515625,0.03392579033970833,-0.01290341280400753,-0.03942197188735008,0.01616135984659195,-0.5625277757644653,-0.8266204595565796,0.005002584308385849,-0.013644158840179443,-0.00228273868560791,0.9556719797210722,0.29431999758384775,0.008094689694258665,-0.0011715554199149562
1728063131858641400,0.252641357421875,0.0948009267449379,-0.008754047565162182,-0.028118981048464775,0.01702224463224411,-0.563112199306488,-0.8262051343917847,-0.00016128085553646088,-0.006178021430969238,-0.021847784519195557,0.9555629080535821,0.29466240408029704,0.008455844442628204,-0.0014627956768839534
1728063131868671500,0.26267138671875,0.0901007130742073,-0.007687984965741634,-0.047428764402866364,0.018006348982453346,-0.563890278339386,-0.8256533741950989,-0.0029916949570178986,0.003068685531616211,-0.03559839725494385,0.9554180202834868,0.2951179234214062,0.008872032474594975,-0.0017846233163244726
1728063131878702300,0.272702392578125,0.06584124267101288,-0.01653415337204933,-0.050034936517477036,0.01851269043982029,-0.5647918581962585,-0.825025737285614,-0.001743275672197342,0.005679190158843994,-0.03274703025817871,0.955253151635313,0.2956439489746814,0.009043482565354475,-0.002088761491689085
1728063131888732200,0.282732177734375,0.03454670310020447,-0.03782851994037628,-0.034134797751903534,0.01840229146182537,-0.5655532479286194,-0.8245064616203308,-0.006042668595910072,-0.004393100738525391,-0.011339426040649414,0.9551167683137209,0.29608662991900137,0.00891463997042961,-0.0023189964551542193
1728063131898763500,0.292763427734375,0.00355123751796782,-0.04616208374500275,-0.029023392125964165,0.018044153228402138,-0.5660098791122437,-0.8242009878158569,-0.0003744717687368393,-0.013625800609588623,0.008557677268981934,0.9550362805691172,0.2963517152803911,0.008670356344997902,-0.002502337672851212
1728063131908793000,0.30279296875,-0.03288746252655983,-0.038032520562410355,-0.031315576285123825,0.017942020669579506,-0.5661841034889221,-0.8240835666656494,0.009798461571335793,-0.013650000095367432,0.013551950454711914,0.9550049570582834,0.296454325254114,0.00854724670432711,-0.002726718785224321
1728063131918824200,0.31282421875,-0.06229735165834427,-0.03375212848186493,-0.04728841781616211,0.018063034862279892,-0.5661216974258423,-0.824123740196228,0.0024447813630104065,-0.010477423667907715,0.013515889644622803,0.9550146422999733,0.29642099801982397,0.008527442727100794,-0.002994674424028283
1728063131928854300,0.322854248046875,-0.09791845828294754,-0.04176265001296997,-0.0612308643758297,0.01814277656376362,-0.5655991435050964,-0.8244807124137878,-0.00427253358066082,-0.00825345516204834,0.012972593307495117,0.9551070512639599,0.2961214548038585,0.00846887335048896,-0.003318596200484932
1728063131938885000,0.332885009765625,-0.12038914859294891,-0.042644426226615906,-0.07539914548397064,0.018114013597369194,-0.5644287467002869,-0.8252829909324646,-0.004121700301766396,-0.00899660587310791,0.013286590576171875,0.9553155822595296,0.29544701674372237,0.008339848234827106,-0.0036887144622258375
1728063131948915200,0.342915283203125,-0.13069504499435425,-0.03134516626596451,-0.10487820953130722,0.018223891034722328,-0.5628179311752319,-0.8263800144195557,-0.00520814023911953,-0.010698974132537842,0.007333993911743164,0.9556008046669463,0.2945195947113797,0.008259090495723124,-0.004140818968247885
1728063131958946300,0.3529462890625,-0.12932085990905762,-0.022527704015374184,-0.1293848752975464,0.018630148842930794,-0.5612115263938904,-0.8274627327919006,-0.004424212500452995,-0.0072547197341918945,0.0011383295059204102,0.9558813934336077,0.29359810829602406,0.008293075668638445,-0.004727134217391143
1728063131968976400,0.362976318359375,-0.0975101962685585,-0.04180765897035599,-0.09676515311002731,0.018855104222893715,-0.5602781176567078,-0.8280899524688721,0.0021715108305215836,-0.0031985044479370117,0.0025131702423095703,0.9560423819501552,0.2930652103494572,0.008234642685428548,-0.005305593867758762
1728063131979007200,0.37300732421875,-0.05940915271639824,-0.058171190321445465,-0.05921218916773796,0.01881568692624569,-0.5601878762245178,-0.8281518816947937,0.01777489483356476,0.000007152557373046875,-0.0015599727630615234,0.9560561354542252,0.29301649633990456,0.00808651351928953,-0.005722142855204104
1728063131989037300,0.383037353515625,-0.05280238389968872,-0.0618777722120285,-0.054356180131435394,0.018895642831921577,-0.5603334903717041,-0.8280515074729919,0.03124474361538887,0.00032061338424682617,-0.0019044876098632812,0.95602738504803,0.293104331194334,0.008005187790434352,-0.006122878509431047
1728063131999068200,0.393068115234375,-0.03106619417667389,-0.04523035138845444,-0.03361654654145241,0.018743090331554413,-0.5605383515357971,-0.8279163837432861,0.013498734682798386,0.0032262206077575684,0.008565187454223633,0.9559900812052635,0.29322428802274275,0.007830929580444238,-0.006429393110496685
1728063132009098200,0.40309814453125,-0.040912698954343796,-0.028247641399502754,-0.02532772347331047,0.018441859632730484,-0.5607554316520691,-0.8277760744094849,-0.008325276896357536,0.005625367164611816,0.007509410381317139,0.9559522478564243,0.2933493614550561,0.00762273656869618,-0.006592675915520812
1728063132019129300,0.41312939453125,-0.08982910960912704,-0.0031854314729571342,-0.032998159527778625,0.01833578199148178,-0.5606946349143982,-0.8278197050094604,-0.014078576117753983,0.006739437580108643,0.005569338798522949,0.9559627624676001,0.2933147131755311,0.007525593196804542,-0.006728963622958046
1728063132029159400,0.423159423828125,-0.17325329780578613,-0.003972448408603668,-0.056164998561143875,0.018397657200694084,-0.5599905252456665,-0.8282947540283203,-0.019175851717591286,0.0026479363441467285,0.014558792114257812,0.9560856461156195,0.2929100839634185,0.007503767520103136,-0.006911965702575749
1728063132039190300,0.433190185546875,-0.2430265247821808,-0.014694335870444775,-0.07799786329269409,0.018600501120090485,-0.5584369897842407,-0.8293383717536926,-0.012939484789967537,-0.007755696773529053,0.021278738975524902,0.9563561246798443,0.29201761910985335,0.007517509444773141,-0.007228447170690594
1728063132049220400,0.443220458984375,-0.2769690155982971,-0.03345710411667824,-0.08830855786800385,0.01894284226000309,-0.5563770532608032,-0.8307139873504639,0.006218906491994858,-0.009449422359466553,0.026026546955108643,0.9567124263692245,0.29083603374324585,0.007576118842172613,-0.0076443546726073204
1728063132059250400,0.45325048828125,-0.321245938539505,-0.018782073631882668,-0.15414269268512726,0.019799869507551193,-0.5539655089378357,-0.8323041796684265,0.022405946627259254,-0.001713871955871582,0.024458110332489014,0.9571223172744803,0.28945914955887075,0.0078309861324913,-0.00830764156127651
1728063132069281300,0.46328125,-0.35218682885169983,0.017827069386839867,-0.30486351251602173,0.021871261298656464,-0.5511783361434937,-0.8341007828712463,0.015467001125216484,0.009124994277954102,0.018243908882141113,0.9575806006149881,0.2878821717993256,0.008571109064336587,-0.009476455837385276
1728063132079311400,0.473311279296875,-0.5122058987617493,0.001154615543782711,-0.3445669710636139,0.024119313806295395,-0.5478106141090393,-0.8362546563148499,-0.008540084585547447,0.011189460754394531,0.016995012760162354,0.9581254495933169,0.285983688692972,0.009273824787600447,-0.011099127680403737
1728063132089342500,0.483342529296875,-0.5913950204849243,-0.03443906456232071,-0.2799845337867737,0.025271059945225716,-0.5433580279350281,-0.839120626449585,-0.009111998602747917,-0.014716923236846924,0.012079060077667236,0.9588550077402345,0.28346081404360385,0.009468782405989841,-0.012546144336192475
1728063132099372300,0.493372314453125,-0.5800721049308777,-0.005322245415300131,-0.2834325134754181,0.02597089670598507,-0.5388200283050537,-0.8420205116271973,0.02070574462413788,-0.036512672901153564,0.03035980463027954,0.9595937143313904,0.2808907467899602,0.009493514772124881,-0.013797289708357979
1728063132109403400,0.5034033203125,-0.49860870838165283,0.06611784547567368,-0.4727158844470978,0.028375303372740746,-0.5340064764022827,-0.8450040817260742,-0.002267509698867798,-0.06940239667892456,0.011858999729156494,0.9603443202522106,0.278194771223862,0.01027723210206626,-0.015521392125741933
1728063132119433500,0.51343359375,-0.41954803466796875,-0.10422857850790024,-0.2442890852689743,0.030872473493218422,-0.5301986336708069,-0.8473111987113953,-0.035038117319345474,-0.07325601577758789,0.013967752456665039,0.9609135812974562,0.27608257155417604,0.011081948237288117,-0.017340617721077194
1728063132129464300,0.52346435546875,-0.44322484731674194,-0.18552318215370178,0.03303678333759308,0.029713774099946022,-0.5264387130737305,-0.8496937155723572,0.010111672803759575,-0.04579645395278931,0.024666309356689453,0.9615220992483695,0.27394578115474716,0.010336905630849465,-0.017951448188625443
1728063132139494400,0.533494384765625,-0.34418317675590515,-0.12587763369083405,-0.08861428499221802,0.02834348753094673,-0.5230149626731873,-0.8518521785736084,0.19016237556934357,0.006062328815460205,0.0887296199798584,0.9620782796976896,0.27199655292760205,0.009581076649836715,-0.018213457325826066
1728063132149525500,0.543525390625,-0.17531532049179077,0.043144408613443375,-0.2138715386390686,0.02885250188410282,-0.5207345485687256,-0.8532309532165527,0.043672531843185425,0.023374199867248535,0.06860882043838501,0.962420165390284,0.27072452512790796,0.009630401231000053,-0.019051684713009037
1728063132159555000,0.55355517578125,-0.0062655736692249775,0.13526564836502075,-0.1838499903678894,0.03075225278735161,-0.5199229717254639,-0.853659451007843,-0.10428435355424881,0.009531676769256592,0.024893581867218018,0.962513815720463,0.2703008390598972,0.010379810202189402,-0.01992378483382798
1728063132169586400,0.56358642578125,0.07287665456533432,0.318188339471817,0.07993105053901672,0.03294829651713371,-0.5202592015266418,-0.8533725738525391,-0.07996062934398651,0.01722264289855957,0.007104992866516113,0.9624346764720201,0.27052261947083717,0.011454730856809677,-0.020145150437136945
1728063132179616300,0.5736162109375,0.08813576400279999,0.09659533202648163,0.3266875743865967,0.03372396156191826,-0.5209356546401978,-0.8529295325279236,-0.012880448251962662,0.04278618097305298,-0.01318979263305664,0.9623495934664088,0.2708961246290879,0.012268838021053323,-0.01866054418083007
1728063132189647000,0.583647216796875,0.06930694729089737,0.3282450735569,0.33433857560157776,0.033865272998809814,-0.5218273401260376,-0.8523786664009094,0.12467355281114578,0.06131702661514282,-0.0106736421585083,0.9622379804590951,0.2713787970965647,0.012814729551722017,-0.016957171339617737
1728063132199677200,0.59367724609375,-0.042090680450201035,0.07387872040271759,0.29925140738487244,0.03384964168071747,-0.5220347046852112,-0.8522523045539856,0.05748947709798813,-0.025893211364746094,0.011691451072692871,0.9622364497963762,0.2714700874071602,0.01333521862827864,-0.015077858849618458
1728063132209708300,0.603708251953125,-0.13955624401569366,0.09564180672168732,0.05818448215723038,0.033425722271203995,-0.5213488936424255,-0.852688729763031,0.0796419084072113,-0.05532658100128174,0.0007143020629882812,0.9623660235382413,0.2710636102090734,0.013422137727906305,-0.014003544686176017
1728063132219738400,0.61373828125,-0.2774229347705841,0.07533105462789536,-0.04109044373035431,0.03429014980792999,-0.5195418000221252,-0.8537567257881165,0.049419574439525604,-0.15549182891845703,0.041088879108428955,0.9626443410171902,0.2700526154791682,0.013900844576377927,-0.013936193538539495
1728063132229769200,0.623769287109375,-0.2828086316585541,-0.007026135455816984,0.13206882774829865,0.03433559462428093,-0.5170534253120422,-0.8552641868591309,-0.03343532234430313,-0.14877909421920776,0.0016570687294006348,0.9630395346197497,0.26864771578719415,0.014011056927082958,-0.013678116940833245
1728063132239799300,0.63379931640625,-0.16760127246379852,0.013303796760737896,0.25888028740882874,0.03325103223323822,-0.5151890516281128,-0.8564313650131226,0.03977753967046738,-0.05210226774215698,0.01716744899749756,0.9633561706115937,0.2675736313047161,0.01373562483177998,-0.01268143466023089
1728063132249830100,0.643830078125,-0.05889156833291054,0.06480986624956131,0.28392067551612854,0.032167837023735046,-0.5143074989318848,-0.8570023775100708,0.09808119386434555,-0.00670391321182251,-0.0435866117477417,0.9635215790591061,0.2670484136588074,0.01356338781547437,-0.011291217613312057
1728063132259860200,0.653860107421875,0.017350206151604652,0.06985607743263245,0.2896832227706909,0.03130625933408737,-0.5142666101455688,-0.8570588231086731,0.06267262995243073,0.028945446014404297,-0.06121504306793213,0.9635524003158233,0.2669974572427414,0.01352570240440981,-0.009814352715003985
1728063132269891300,0.663891357421875,-0.011430840939283371,0.03594258427619934,0.32486197352409363,0.03020862676203251,-0.5144551396369934,-0.8569850921630859,0.04121777042746544,0.015462100505828857,-0.07613563537597656,0.963547823754796,0.26707361802348034,0.013384334185948794,-0.008266886750329504
1728063132279921400,0.67392138671875,-0.10542797297239304,-0.024194682016968727,0.39743152260780334,0.028420371934771538,-0.5140708088874817,-0.8572767972946167,0.04543217271566391,-0.022596120834350586,-0.08222204446792603,0.9636369018379947,0.2668222684223542,0.01294103665498124,-0.00652016765541402
1728063132289952300,0.6839521484375,-0.20248369872570038,-0.09104003012180328,0.45984935760498047,0.02571796253323555,-0.5128486752510071,-0.8580937385559082,0.05962444841861725,-0.05691450834274292,-0.07266181707382202,0.9638602513402853,0.26609548907756975,0.012096597734121646,-0.004507975621862711
1728063132299982300,0.693982421875,-0.27349117398262024,-0.15700285136699677,0.5034892559051514,0.02217477560043335,-0.5108984112739563,-0.8593550324440002,0.07812125235795975,-0.08739876747131348,-0.08087623119354248,0.9641950495231082,0.2649614696044984,0.010857941999838616,-0.0023332215440089923
1728063132310013200,0.70401318359375,-0.34198421239852905,-0.19911088049411774,0.5369345545768738,0.017971530556678772,-0.5083596110343933,-0.8609573841094971,0.08403347432613373,-0.09845197200775146,-0.09084004163742065,0.9646132850525744,0.26350473146894177,0.009304444207090133,-0.000040132169103190416
1728063132320043500,0.71404345703125,-0.4045928716659546,-0.24251322448253632,0.5850509405136108,0.013213371858000755,-0.5052267909049988,-0.8628854751586914,0.09475782513618469,-0.096976637840271,-0.1085958480834961,0.9651099199891237,0.2617271501589599,0.007494576341623957,0.002393347458738351
1728063132330074600,0.72407470703125,-0.4859098196029663,-0.2930850386619568,0.640629231929779,0.00778483971953392,-0.5014536380767822,-0.8651494979858398,0.10686970502138138,-0.09170132875442505,-0.09545224905014038,0.9656861157695493,0.2596079742161671,0.0053797721773037365,0.005018149130307716
1728063132340104700,0.734104736328125,-0.6247158646583557,-0.34448620676994324,0.6823418140411377,0.0017002667300403118,-0.4966881573200226,-0.8679274320602417,0.1169825941324234,-0.10075452923774719,-0.0791550874710083,0.9663863918578687,0.2569582284640125,0.0029593126691707917,0.007821139324825352
1728063132350134300,0.74413427734375,-0.7978626489639282,-0.40870457887649536,0.7322105765342712,-0.00510157598182559,-0.4904915392398834,-0.8714310526847839,0.12422694265842438,-0.11337512731552124,-0.06307816505432129,0.9672639606168018,0.25354376197407513,0.00018779870848218075,0.010776991206811698
1728063132360165400,0.754165283203125,-0.9994107484817505,-0.4782539904117584,0.7705856561660767,-0.01265549473464489,-0.48255324363708496,-0.8757752180099487,0.12856125831604004,-0.12276297807693481,-0.043353140354156494,0.9683467035588923,0.2492059364308266,-0.002963947147862934,0.013874543950524884
1728063132370196500,0.764196533203125,-1.197232961654663,-0.5413384437561035,0.7751883864402771,-0.02086530439555645,-0.4727362394332886,-0.8809569478034973,0.1403111070394516,-0.1273309886455536,-0.029763877391815186,0.9696340331958592,0.24388407184920843,-0.006488207232976407,0.016981288462984523
1728063132380226300,0.774226318359375,-1.3800325393676758,-0.5991458296775818,0.7681347727775574,-0.029559411108493805,-0.46111351251602173,-0.8868486881256104,0.1458313912153244,-0.12195539474487305,-0.024894416332244873,0.9710946795600734,0.23763204008304328,-0.01032791301241258,0.019990252965405977
1728063132390256400,0.78425634765625,-1.529815912246704,-0.6492002010345459,0.7597457766532898,-0.03863351792097092,-0.44785362482070923,-0.8932718634605408,0.14857308566570282,-0.10340070724487305,-0.02105003595352173,0.9726826298139354,0.23055547107083887,-0.01443105620767798,0.022900868225104544
1728063132400287500,0.79428759765625,-1.6418172121047974,-0.6901742219924927,0.7499991655349731,-0.04798954725265503,-0.43324950337409973,-0.8999955058097839,0.15690678358078003,-0.07886603474617004,-0.02068924903869629,0.9743396767331427,0.22282424187481595,-0.01875111665496698,0.025692074943341178
1728063132410317300,0.8043173828125,-1.7289140224456787,-0.708084225654602,0.7269489765167236,-0.057484254240989685,-0.41760432720184326,-0.9068087935447693,0.15778027474880219,-0.0587904155254364,-0.027441024780273438,0.9760124353041405,0.21460837996920948,-0.02321293050248907,0.02835871749716236
1728063132420348400,0.814348388671875,-1.8030425310134888,-0.7004390954971313,0.6861597299575806,-0.06681977212429047,-0.4010317325592041,-0.9136239290237427,0.15048369765281677,-0.044265568256378174,-0.034526705741882324,0.9776810940600261,0.20596650132285363,-0.02767381618179951,0.030848312162061145
1728063132430378500,0.82437841796875,-1.8052724599838257,-0.7135711312294006,0.6459470391273499,-0.07591865211725235,-0.38393333554267883,-0.9202345013618469,0.13567206263542175,-0.03194504976272583,-0.0315476655960083,0.9792954648651752,0.1971110651706107,-0.03209311154783917,0.033132019690048586
1728063132440409300,0.834409423828125,-1.7467697858810425,-0.7260937094688416,0.6022483110427856,-0.08494102209806442,-0.366971492767334,-0.9263460040092468,0.11857138574123383,-0.02284485101699829,-0.0227200984954834,0.9807823936712252,0.18839245252362666,-0.03654136174607238,0.03519985149793271
1728063132450439400,0.844439453125,-1.6651692390441895,-0.7013078927993774,0.5444430708885193,-0.09367116540670395,-0.3505672812461853,-0.9318413734436035,0.10775501281023026,-0.014514565467834473,-0.032590389251708984,0.9821147077026777,0.18001807856055757,-0.040900017718700325,0.03703557076938274
1728063132460470500,0.854470458984375,-1.5287567377090454,-0.6466386318206787,0.4887310564517975,-0.10176463425159454,-0.33507925271987915,-0.9366781115531921,0.09206003695726395,0.000179290771484375,-0.04871922731399536,0.9832834204598497,0.17215542802830444,-0.04498291427043221,0.0386358026567931
1728063132470500400,0.864500244140625,-1.3452672958374023,-0.5575013160705566,0.4810608923435211,-0.10903105139732361,-0.3210350275039673,-0.9407703280448914,0.07643827050924301,0.02699810266494751,-0.04671746492385864,0.9842622942755356,0.16506930834051525,-0.048651557476011596,0.040162729174149085
1728063132480531500,0.874531494140625,-1.137969732284546,-0.4571976661682129,0.48741039633750916,-0.11535800993442535,-0.30876752734184265,-0.9441160559654236,0.07736361771821976,0.052663952112197876,-0.04416513442993164,0.9850425367184267,0.15892781416523344,-0.05180648277869932,0.04182664583967874
1728063132490561500,0.8845615234375,-0.9192555546760559,-0.36851975321769714,0.5062650442123413,-0.12078510969877243,-0.29842662811279297,-0.9467589855194092,0.08953509479761124,0.0693005919456482,-0.03192448616027832,0.9856328292518083,0.15380149875782848,-0.05445750306745094,0.04367610695372482
1728063132500592400,0.89459228515625,-0.7075974941253662,-0.3137893080711365,0.5143216252326965,-0.1254991888999939,-0.2900889217853546,-0.9487351775169373,0.1006426215171814,0.08093664050102234,-0.005229055881500244,0.9860411717640145,0.14972670604840563,-0.05669511712042003,0.04572249274933173
1728063132510622500,0.90462255859375,-0.5496166348457336,-0.29096922278404236,0.507183313369751,-0.12984268367290497,-0.2835293710231781,-0.9501326084136963,0.11426346004009247,0.07733729481697083,0.005689859390258789,0.9862944370396999,0.14658316925538836,-0.058711710928698695,0.0478520902631242
1728063132520653600,0.914653564453125,-0.5262606739997864,-0.2737158238887787,0.4857826828956604,-0.13393311202526093,-0.277813583612442,-0.9512526392936707,0.12483885884284973,0.06409892439842224,0.004063308238983154,0.9864749263188568,0.14387905529218262,-0.06060119618843719,0.04993775002912365
1728063132530683400,0.924683349609375,-0.565589964389801,-0.23970486223697662,0.5015999674797058,-0.13772855699062347,-0.27196553349494934,-0.9523999094963074,0.12646755576133728,0.058464497327804565,0.011634588241577148,0.9866584409903912,0.14110870581884546,-0.062356805028810365,0.052012436265814595
1728063132540714500,0.934714599609375,-0.6191349029541016,-0.08222682774066925,0.5676090717315674,-0.14086098968982697,-0.2656005024909973,-0.9537371397018433,0.12486976385116577,0.05798935890197754,0.04895204305648804,0.9868718571937861,0.13807782252298006,-0.06376467982152784,0.05433841042694818
1728063132550744600,0.94474462890625,-0.807094156742096,0.3165666460990906,0.6789100766181946,-0.14135931432247162,-0.2579658627510071,-0.9557568430900574,0.13427922129631042,0.044205427169799805,0.09279602766036987,0.987218565685333,0.1343531787619754,-0.06380277590790757,0.05725486737896988
1728063132560775400,0.954775390625,-0.8928160667419434,0.0008745575323700905,0.6929161548614502,-0.14093883335590363,-0.2486850917339325,-0.958275556564331,0.17762094736099243,0.02522006630897522,0.15696024894714355,0.9876591683501555,0.12978312782411794,-0.06339222917255175,0.06055870442417395
1728063132570805500,0.964805419921875,-0.963667631149292,-0.6654552817344666,0.7616797685623169,-0.14603672921657562,-0.23882797360420227,-0.96001797914505,0.32348117232322693,0.008038744330406189,0.23780423402786255,0.9879080293476038,0.12511623675504016,-0.06585551845587674,0.0636142088773706
1728063132580836600,0.974836669921875,-1.1216915845870972,-0.9114097356796265,0.7220157384872437,-0.15573124587535858,-0.22759516537189484,-0.961222231388092,0.3834686577320099,0.010416761040687561,0.15851843357086182,0.9880227641564415,0.11993807464290437,-0.07073705013264625,0.06649936146197423
1728063132590866700,0.98486669921875,-1.0391745567321777,-0.6128171682357788,0.5384288430213928,-0.1646948754787445,-0.21602118015289307,-0.9623982906341553,0.2679510712623596,0.053896501660346985,0.12322592735290527,0.9881657646952815,0.11454801632487885,-0.07536318842777512,0.06875822858813563
1728063132600897500,0.9948974609375,-0.8821665644645691,-0.17782951891422272,0.4493735432624817,-0.1694856733083725,-0.20600174367427826,-0.9637623429298401,0.07839067280292511,0.06345409154891968,0.09755146503448486,0.9883844740296899,0.10977207283314375,-0.07790320591927673,0.07055085897952558
1728063132610927600,1.004927734375,-0.7994961738586426,0.05947171896696091,0.53810715675354,-0.17085953056812286,-0.1970723569393158,-0.9653856754302979,-0.01660996675491333,0.048848435282707214,0.01633477210998535,0.9886467192641979,0.10544447861808631,-0.07866779825560215,0.07259847303132763
1728063132620958500,1.01495849609375,-0.7128645777702332,0.017795804888010025,0.708473801612854,-0.1715383231639862,-0.1886625438928604,-0.96694415807724,0.015852883458137512,0.06340309977531433,0.038889408111572266,0.9888306114594926,0.10142155108033314,-0.07900364936020918,0.07540741435724797
1728063132630988300,1.02498828125,-0.6427443027496338,-0.13808220624923706,0.8588867783546448,-0.17356450855731964,-0.1808081865310669,-0.9680825471878052,0.09717898070812225,0.08029848337173462,0.08931362628936768,0.9888352461388521,0.09781446472148218,-0.0799441458857288,0.07903393752236465
1728063132641019600,1.03501953125,-0.6756774187088013,-0.27300310134887695,0.8899400234222412,-0.17714087665081024,-0.1728876233100891,-0.9688813090324402,0.16551366448402405,0.07730652391910553,0.09729927778244019,0.9887089179030326,0.0942896969043869,-0.08166270242282739,0.08303977821092985
1728063132651049500,1.045049560546875,-0.6957456469535828,-0.3495069444179535,0.857299268245697,-0.1816505640745163,-0.16463305056095123,-0.9694839119911194,0.1839698851108551,0.06596967577934265,0.10699611902236938,0.9885254249626378,0.09065195393187324,-0.08390633837024543,0.08694499379730335
1728063132661080300,1.055080322265625,-0.7219932675361633,-0.4157826602458954,0.8042368292808533,-0.18670213222503662,-0.1562231183052063,-0.9699158072471619,0.16532455384731293,0.04223991930484772,0.11903995275497437,0.9883074856389833,0.08696283628402597,-0.08648449601433973,0.09058804345317781
1728063132671110400,1.0651103515625,-0.7880042195320129,-0.4703518748283386,0.7501125931739807,-0.19220681488513947,-0.14745542407035828,-0.9702131152153015,0.14424842596054077,0.010202586650848389,0.11094492673873901,0.9880723144310686,0.08311155054151022,-0.08936399883972962,0.09391372910497696
1728063132681141500,1.0751416015625,-0.8420073986053467,-0.5219830870628357,0.7601809501647949,-0.19805969297885895,-0.1380024552345276,-0.9704265594482422,0.11244261264801025,0.0005359798669815063,0.11816215515136719,0.9878233860170504,0.07893893321044995,-0.09249524689241653,0.0970482044478761
1728063132691171300,1.08517138671875,-0.7981347441673279,-0.58846515417099,0.830631673336029,-0.20454621315002441,-0.1283860206604004,-0.970400869846344,0.08767913281917572,0.015364140272140503,0.131808340549469,0.9874843166097153,0.07476173837726148,-0.09596999591431254,0.10037545208158054
1728063132701202400,1.095202392578125,-0.7599150538444519,-0.6111796498298645,0.898257315158844,-0.21147006750106812,-0.11902899295091629,-0.9701095223426819,0.08454746007919312,0.027415193617343903,0.10551607608795166,0.9870285383762238,0.07080404366000319,-0.09965950848041405,0.10406546838758293
1728063132711232500,1.105232421875,-0.7060017585754395,-0.6176955699920654,0.9456698298454285,-0.21848556399345398,-0.10985690355300903,-0.9696367979049683,0.08190412819385529,0.03685881942510605,0.06079286336898804,0.9864805951001955,0.0670066906862472,-0.10340068743913063,0.1080490856791895
1728063132721262300,1.115262451171875,-0.6039860844612122,-0.6477952599525452,0.9932325482368469,-0.22563853859901428,-0.1013653576374054,-0.9689232707023621,0.0626441240310669,0.05395627021789551,0.05876702070236206,0.9858253569751392,0.06362187200374474,-0.10719429858004335,0.11229491176930144
1728063132731293400,1.12529345703125,-0.605196475982666,-0.681214451789856,1.005004644393921,-0.2330663651227951,-0.09327495098114014,-0.9679772257804871,0.05627800524234772,0.05668433755636215,0.02768486738204956,0.98507251228524,0.060510521303352535,-0.11113000123082852,0.11670815470780055
1728063132741323500,1.135323486328125,-0.7153723239898682,-0.6931310296058655,1.0162169933319092,-0.24063906073570251,-0.08452190458774567,-0.9669275283813477,0.04998047649860382,0.04326210916042328,0.02288156747817993,0.9842752166042349,0.05711192824503808,-0.115214810392953,0.1211033928775982
1728063132751354400,1.145354248046875,-0.8632248640060425,-0.7280112504959106,1.0813816785812378,-0.24832585453987122,-0.07433523237705231,-0.9658201336860657,0.03563357889652252,0.03475390374660492,0.05616748332977295,0.9834274093308952,0.05305583082933684,-0.11947806965756132,0.12562089697812967
1728063132761384400,1.155384521484375,-1.0557925701141357,-0.775380551815033,1.122925877571106,-0.2563844323158264,-0.06228087097406387,-0.9645662903785706,0.04248669743537903,0.012033645063638687,0.08515650033950806,0.9825003447570603,0.048151186696148915,-0.12408996262288463,0.1302935476787674
1728063132771415600,1.16541552734375,-1.1937499046325684,-0.8464651107788086,1.1280328035354614,-0.2647785544395447,-0.04842023551464081,-0.9630928039550781,0.05297130346298218,-0.01673482358455658,0.1271095871925354,0.9814987356019246,0.04240833609692913,-0.12905471597603058,0.1349319987947721
1728063132781445400,1.1754453125,-1.2704106569290161,-0.9973132014274597,1.1196990013122559,-0.27413004636764526,-0.0334671288728714,-0.9611101150512695,0.056081920862197876,-0.02477569505572319,0.1470842957496643,0.9803562611360952,0.036228220718633936,-0.13465677792575173,0.13948795814467083
1728063132791476500,1.1854765625,-1.3676472902297974,-1.0773369073867798,1.0110465288162231,-0.2844626009464264,-0.017786432057619095,-0.9585221409797668,0.076637864112854,-0.029988864436745644,0.10551005601882935,0.9790914655664109,0.02975879123872559,-0.1409019176994818,0.14366988379401438
1728063132801506600,1.195506591796875,-1.4232455492019653,-1.0597223043441772,0.9321891665458679,-0.29483717679977417,-0.0015357142547145486,-0.9555462598800659,0.07744520902633667,-0.01930781826376915,0.0726575255393982,0.9778005796778084,0.022967069848019918,-0.14730706686503833,0.1472390803795863
1728063132811537400,1.205537353515625,-1.351848840713501,-1.0492949485778809,0.9698622822761536,-0.3048546612262726,0.014670283533632755,-0.952285885810852,0.041320085525512695,0.01813608780503273,0.08786022663116455,0.9764376924307796,0.016195855566121423,-0.1536058258950697,0.1507064285477708
1728063132821567500,1.2155673828125,-1.2015798091888428,-1.0551557540893555,1.0604361295700073,-0.3146519660949707,0.03000742569565773,-0.9487326741218567,0.0323491096496582,0.04335680603981018,0.09948956966400146,0.9749169756619673,0.0099514684861652,-0.15979557586010718,0.1546073361966776
1728063132831598600,1.2255986328125,-1.0500041246414185,-1.0519012212753296,1.1057780981063843,-0.3242601454257965,0.044170692563056946,-0.9449361562728882,0.026042312383651733,0.04590191692113876,0.11377465724945068,0.9732419308466185,0.004398920001306805,-0.16586915600960905,0.1589599972991345
1728063132841628700,1.235628662109375,-0.9364069104194641,-1.0048118829727173,1.112386703491211,-0.3334443271160126,0.05716665834188461,-0.9410350322723389,-0.0026000142097473145,0.041221991181373596,0.13299059867858887,0.9714833125793998,-0.0005216569874122035,-0.17170389184826945,0.16351725208119733
1728063132851659500,1.245659423828125,-0.865069568157196,-0.9613152742385864,1.1398388147354126,-0.3419775664806366,0.06947889178991318,-0.9371361136436462,-0.03061160445213318,0.03627975285053253,0.12350696325302124,0.9696758275066478,-0.005082512638501774,-0.17721772414819456,0.16821713472398092
1728063132861689600,1.255689697265625,-0.7616684436798096,-0.959406316280365,1.1676057577133179,-0.35008788108825684,0.08112572878599167,-0.9331972599029541,-0.03394535183906555,0.03458165377378464,0.1077730655670166,0.9677923329829402,-0.009259017625397447,-0.18252575346785438,0.1731375269298925
1728063132871720400,1.265720458984375,-0.6802124381065369,-0.9477472305297852,1.1168887615203857,-0.35800307989120483,0.09187924116849899,-0.9291889071464539,-0.016157716512680054,0.029092416167259216,0.08377575874328613,0.9658550948564287,-0.012949976373003106,-0.1877174779600853,0.17809647124124015
1728063132881750500,1.27575048828125,-0.653555691242218,-0.8892624378204346,1.035254955291748,-0.3655261993408203,0.1019173264503479,-0.9252045750617981,-0.024702131748199463,0.016765527427196503,0.0695222020149231,0.9639553513101015,-0.016335406131212458,-0.19269373979462967,0.18273587753704254
1728063132891781600,1.28578173828125,-0.6709325313568115,-0.8045371770858765,1.0206727981567383,-0.3722667992115021,0.11182499676942825,-0.9213645458221436,-0.07258796691894531,0.005301445722579956,0.10140305757522583,0.9621196024482753,-0.01974430013815793,-0.1973015147747924,0.1871051035712944
1728063132901811500,1.2958115234375,-0.738733172416687,-0.7156521081924438,1.067406177520752,-0.3780636191368103,0.12219846248626709,-0.9176793694496155,-0.10710486769676208,-0.006155386567115784,0.13368284702301025,0.9602978611475859,-0.023440823909383842,-0.20152129583498718,0.1914887371643908
1728063132911842600,1.305842529296875,-0.8947688341140747,-0.6283361315727234,1.130537509918213,-0.38278618454933167,0.13386879861354828,-0.9140864014625549,-0.11654245853424072,-0.01906166970729828,0.16779428720474243,0.9584446004676779,-0.027829801134681136,-0.20538332868406198,0.19602892816752363
1728063132921872400,1.315872314453125,-1.0163394212722778,-0.5804106593132019,1.1589618921279907,-0.3866536021232605,0.14710059762001038,-0.9104177355766296,-0.11887013912200928,-0.019125133752822876,0.19264429807662964,0.9565284013264835,-0.033040899935292675,-0.2090441035253414,0.20065495995100668
1728063132931903500,1.325903564453125,-1.0334396362304688,-0.60386061668396,1.0538650751113892,-0.39029785990715027,0.16080959141254425,-0.9065362215042114,-0.114783376455307,-0.026837438344955444,0.18680965900421143,0.9545888270664841,-0.03854783305342981,-0.21271099765085294,0.20500805300957572
1728063132941933300,1.335933349609375,-1.0382505655288696,-0.6212397813796997,0.8688789010047913,-0.39425721764564514,0.174003466963768,-0.9023768901824951,-0.12382447719573975,-0.03394307196140289,0.1689937710762024,0.9527164000475192,-0.043907314146911056,-0.2165264471903309,0.20861431636502473
1728063132951964400,1.34596435546875,-0.9435400366783142,-0.6374253630638123,0.7358266115188599,-0.3985014259815216,0.1861911118030548,-0.8980698585510254,-0.13673114776611328,0.012020543217658997,0.12827926874160767,0.9509551866052354,-0.04888574376266546,-0.22039792293621913,0.21146934166610315
1728063132961994500,1.355994384765625,-0.753887414932251,-0.6335472464561462,0.6987506151199341,-0.40287062525749207,0.1966891884803772,-0.893872857093811,-0.14194446802139282,0.11298792064189911,0.11414873600006104,0.9492683908717888,-0.05304899342863356,-0.22416373360674843,0.21407059118524588
1728063132972025300,1.366025390625,-0.5120593905448914,-0.5750980973243713,0.6988499164581299,-0.4068993031978607,0.20522961020469666,-0.8901200890541077,-0.14406508207321167,0.21531786024570465,0.09272634983062744,0.9476485288825722,-0.056213818505769626,-0.22755210089762506,0.216846431273439
1728063132982055400,1.376055419921875,-0.26723265647888184,-0.46504777669906616,0.6545751690864563,-0.4101332724094391,0.2114294469356537,-0.887179970741272,-0.1590806245803833,0.2696343660354614,0.06335800886154175,0.946192708472083,-0.058239320246085316,-0.23025679007363475,0.21979417677172863
1728063132992086500,1.38608642578125,-0.2030414193868637,-0.3353435695171356,0.5882099866867065,-0.4123430550098419,0.2159837931394577,-0.8850560784339905,-0.21222975850105286,0.2476850301027298,0.06945854425430298,0.9449760338326821,-0.05958134597422173,-0.23221118970700302,0.22259459336431486
1728063133002116400,1.396116455078125,-0.24582642316818237,-0.28290149569511414,0.5494178533554077,-0.4138008654117584,0.2202710062265396,-0.8833173513412476,-0.27160871028900146,0.1850939840078354,0.11059701442718506,0.9439150086867515,-0.06093420542942025,-0.23372708898950376,0.22512918531564446
1728063133012147500,1.4061474609375,-0.42941224575042725,-0.24922554194927216,0.47194328904151917,-0.4149724841117859,0.22531618177890778,-0.881493330001831,-0.2921808660030365,0.09830746054649353,0.17267686128616333,0.942919276116411,-0.06279354836259414,-0.23518142802787942,0.2272664347481725
1728063133022177500,1.416177490234375,-0.6983994245529175,-0.25011059641838074,0.3808767795562744,-0.41618552803993225,0.23208503425121307,-0.8791621923446655,-0.28283488750457764,0.021973803639411926,0.1686977744102478,0.9419508204180999,-0.06568108843486174,-0.23686472234782258,0.22871349420119144
1728063133032208400,1.42620849609375,-0.8634471893310547,-0.19792860746383667,0.27505046129226685,-0.4174191951751709,0.240397647023201,-0.8763390779495239,-0.280380517244339,-0.012141421437263489,0.15459835529327393,0.9410398304504027,-0.06953840605883851,-0.2387359915473407,0.22937644581307284
1728063133042238500,1.436238525390625,-0.8916832208633423,-0.151679128408432,0.2052232027053833,-0.4183841049671173,0.24916701018810272,-0.8734245896339417,-0.28284886479377747,-0.015738055109977722,0.13056576251983643,0.9402391306424513,-0.07380293533328201,-0.24050118438384607,0.2294836902768922
1728063133052269600,1.44626953125,-0.8506247401237488,-0.06514158844947815,0.1987019181251526,-0.41883593797683716,0.257613867521286,-0.8707534670829773,-0.29947158694267273,-0.00894138216972351,0.1184188723564148,0.9395468234448355,-0.07801950284500615,-0.2419425984823095,0.22940962955302938
1728063133062299400,1.45629931640625,-0.8458496332168579,0.009034749120473862,0.23574994504451752,-0.41851216554641724,0.26588910818099976,-0.8684184551239014,-0.29909348487854004,0.013087332248687744,0.12281298637390137,0.9389250189786251,-0.08222934673946286,-0.24295907469987643,0.22941049936364527
1728063133072329500,1.46632958984375,-0.7884193658828735,0.02267785742878914,0.2521020174026489,-0.41765671968460083,0.27412328124046326,-0.8662675023078918,-0.28321003913879395,0.04441919922828674,0.11303263902664185,0.9383151120688148,-0.08644841782106583,-0.24370665042476397,0.22956199562777396
1728063133082360600,1.476360595703125,-0.6693702936172485,0.06909318268299103,0.14046737551689148,-0.41673868894577026,0.28127673268318176,-0.8644144535064697,-0.2551058530807495,0.04693982005119324,0.07973122596740723,0.9378080677038906,-0.09015898893991514,-0.24426244129570612,0.22961592409674794
1728063133092390700,1.486390625,-0.5884280204772949,0.1673121601343155,-0.00396357849240303,-0.415547251701355,0.28701144456863403,-0.8631018996238708,-0.2419692873954773,-0.0012906193733215332,-0.042125701904296875,0.9375872574988793,-0.09333977320704916,-0.2444109765363053,0.22908768912755112
1728063133102421500,1.49642138671875,-0.46374329924583435,0.23327866196632385,-0.020307663828134537,-0.4138675034046173,0.29147547483444214,-0.8624127507209778,-0.26220372319221497,-0.03228968381881714,-0.07862728834152222,0.9376112048458916,-0.0960212332305494,-0.24407692132003606,0.22823605981005024
1728063133112451600,1.50645166015625,-0.25601568818092346,0.2616642415523529,0.04567933827638626,-0.4116913378238678,0.29470786452293396,-0.8623558282852173,-0.23982849717140198,-0.01985129714012146,-0.08558118343353271,0.9377242395173438,-0.09805269065216941,-0.24332645839104713,0.2277086913090513
1728063133122482400,1.516482421875,0.051344726234674454,0.22274400293827057,0.13771019876003265,-0.40928635001182556,0.29601091146469116,-0.8630540370941162,-0.1882021129131317,0.006113111972808838,-0.1266157627105713,0.9378683090155476,-0.09895064969628063,-0.24224319213864154,0.22788166198089854
1728063133132512500,1.526512451171875,0.39186981320381165,0.05279890075325966,0.270324170589447,-0.40741783380508423,0.2948310971260071,-0.8643410205841064,-0.15132856369018555,0.01653975248336792,-0.14067912101745605,0.937931048923361,-0.09827565702678191,-0.2411874760025399,0.22903243358906716
1728063133142543600,1.536543701171875,0.36388498544692993,-0.16041143238544464,0.42652466893196106,-0.4069020748138428,0.29269176721572876,-0.8653104901313782,-0.11098125576972961,-0.01780468225479126,-0.20137035846710205,0.9376580887806578,-0.09669681809419976,-0.24082041581433503,0.23119856913907955
1728063133152573700,1.54657373046875,-0.10920640081167221,-0.28896060585975647,0.48047101497650146,-0.40752989053726196,0.29330018162727356,-0.8648089170455933,-0.03912544250488281,-0.10392335057258606,-0.34077274799346924,0.936914958394388,-0.09629705864883616,-0.24150035655436586,0.2336557152910579
1728063133162604500,1.5566044921875,-0.727163553237915,-0.39564651250839233,0.3591877222061157,-0.40921327471733093,0.29865482449531555,-0.8621773719787598,0.04608455300331116,-0.20545411109924316,-0.37621068954467773,0.9357881908912032,-0.09836312153288922,-0.24338447939979996,0.23534926146701163
1728063133172634400,1.56663427734375,-1.3262139558792114,-0.5293949842453003,0.0987715870141983,-0.4125230014324188,0.3085095286369324,-0.8571153283119202,0.08773961663246155,-0.2896191477775574,-0.17279189825057983,0.9344251604299059,-0.10294252066762077,-0.24666814193199696,0.2353878525153004
1728063133182665500,1.57666552734375,-1.5819950103759766,-0.6176245808601379,-0.06727144122123718,-0.4174124300479889,0.3212677538394928,-0.8500316739082336,0.081215500831604,-0.2747284471988678,0.004710078239440918,0.932911621070172,-0.10923984911259779,-0.25109919133754843,0.2338627539023233
1728063133192695300,1.5866953125,-1.2948633432388306,-0.636317789554596,-0.12603142857551575,-0.42320194840431213,0.33328893780708313,-0.8425073623657227,0.08499082922935486,-0.13593173027038574,-0.06595516204833984,0.9313877230655226,-0.11521627992146996,-0.25587403471807285,0.23188532878565735
1728063133202726400,1.596726318359375,-0.7615201473236084,-0.3811831772327423,-0.12560878694057465,-0.4280504286289215,0.34140464663505554,-0.8367889523506165,0.08994612097740173,0.010295212268829346,-0.15343016386032104,0.9302613549244353,-0.11925325961713955,-0.2595846382567597,0.2302355938011274
1728063133212756500,1.606756591796875,-0.15487654507160187,-0.07848961651325226,-0.026415623724460602,-0.4302397072315216,0.34488996863365173,-0.8342330455780029,0.03886696696281433,0.13492265343666077,-0.15392613410949707,0.9297822525138537,-0.1210195559400932,-0.2612235642428555,0.22939414427547375
1728063133222787300,1.616787353515625,0.350021094083786,0.12991195917129517,0.08537188917398453,-0.42984530329704285,0.34409457445144653,-0.8347646594047546,-0.010752290487289429,0.24120205640792847,-0.10333043336868286,0.9298590542100923,-0.12058233982274258,-0.26091679621964253,0.22966213200038774
1728063133232817400,1.6268173828125,0.5816873908042908,0.24550725519657135,0.12006808072328568,-0.4278779923915863,0.34045255184173584,-0.837264895439148,-0.006783902645111084,0.2515426576137543,-0.051101744174957275,0.930276167013907,-0.11865835236356963,-0.25939881616396776,0.2306920364728842
1728063133242848500,1.6368486328125,0.511259138584137,0.25152117013931274,0.015083350241184235,-0.42544737458229065,0.33605289459228516,-0.8402755260467529,0.015230029821395874,0.17308712005615234,0.016056835651397705,0.9308518478469971,-0.11643302328360321,-0.2574986899671577,0.2316305329818252
1728063133252878300,1.64687841796875,0.12880176305770874,0.22551432251930237,-0.15620876848697662,-0.4237807095050812,0.33293861150741577,-0.842354953289032,0.0391370952129364,0.04956871271133423,0.04885214567184448,0.9314358658550592,-0.11506688507195104,-0.2560900849811329,0.23152744884258888
1728063133262909400,1.656909423828125,-0.13372565805912018,0.11163531988859177,-0.06427565217018127,-0.4227122366428375,0.3324861526489258,-0.8430702090263367,0.03680214285850525,-0.04382038116455078,0.09407734870910645,0.9318004713680824,-0.11515315198417032,-0.25535199155783644,0.23083164269953702
1728063133272939500,1.666939453125,-0.19734777510166168,0.014604111202061176,0.049136124551296234,-0.42226696014404297,0.33402910828590393,-0.8426833748817444,0.07891365885734558,-0.05679216980934143,0.042924463748931885,0.9317614941003965,-0.11606630390728413,-0.2553173318201943,0.23056969656003898
1728063133282970400,1.676970458984375,0.014809483662247658,0.03878103569149971,0.006058961618691683,-0.4219897985458374,0.33503997325897217,-0.8424208760261536,0.13369017839431763,-0.05382049083709717,-0.025895774364471436,0.9316853422629039,-0.11660956589257142,-0.2553268082786182,0.230592957186262
1728063133293000400,1.68700048828125,0.30775347352027893,0.14845000207424164,-0.020494353026151657,-0.421257346868515,0.33362361788749695,-0.8433489799499512,0.08182555437088013,-0.03526851534843445,-0.05658382177352905,0.9319138265199712,-0.11594909635342465,-0.25471808619287767,0.2306756007097115
1728063133303031600,1.697031494140625,0.7830962538719177,0.2232503741979599,0.00021492084488272667,-0.4197094738483429,0.3291063606739044,-0.8458918333053589,0.00286981463432312,0.01754280924797058,-0.08815968036651611,0.9324663630911719,-0.1136819320569531,-0.25324000101713606,0.23119807726983235
1728063133313061400,1.707061279296875,1.2826650142669678,0.3174373209476471,0.023318642750382423,-0.4173629879951477,0.3202518820762634,-0.8504392504692078,-0.02332615852355957,0.06837421655654907,-0.06545430421829224,0.933385101043413,-0.10912067249964368,-0.25074500417286194,0.2324047476332506
1728063133323092700,1.7170927734375,1.5632994174957275,0.38665738701820374,0.09808209538459778,-0.4141556918621063,0.3082216680049896,-0.856431245803833,-0.05886682868003845,0.10298743844032288,-0.06700015068054199,0.9345154656961533,-0.10288621517738071,-0.24738391722226566,0.2343001169786076
1728063133333122800,1.727122802734375,1.7155627012252808,0.4307420253753662,0.09607113897800446,-0.41031506657600403,0.2944476008415222,-0.8631003499031067,-0.08080437779426575,0.15814334154129028,0.0022299885749816895,0.9357170251603655,-0.09577327892879782,-0.24346931486908785,0.23660936440283273
1728063133343153700,1.737153564453125,1.7570977210998535,0.44083717465400696,0.07246940582990646,-0.4062993824481964,0.27959373593330383,-0.8699127435684204,-0.07313179969787598,0.20754313468933105,0.01386415958404541,0.936954668688375,-0.08818715316754015,-0.23930451083277998,0.23889853919551313
1728063133353183700,1.747183837890625,1.7950201034545898,0.5655423402786255,0.1879584640264511,-0.4017297625541687,0.2646240293979645,-0.8766911029815674,-0.08331668376922607,0.20321044325828552,0.04401904344558716,0.9381386070001217,-0.0806224405900549,-0.23484986050988693,0.24133287006882226
1728063133363214800,1.75721484375,1.69992995262146,0.6083430051803589,0.17442160844802856,-0.3958045244216919,0.24981580674648285,-0.8837029337882996,-0.07453244924545288,0.16284288465976715,0.11774224042892456,0.9392959904027357,-0.0732830093492219,-0.22973493681983717,0.24407897568916614
1728063133373244700,1.76724462890625,1.4870868921279907,0.4197070300579071,0.2483520358800888,-0.3907542824745178,0.23649351298809052,-0.8895965218544006,-0.054924458265304565,0.16803224384784698,0.11954647302627563,0.9401999935123314,-0.06667169870725803,-0.2252923290349514,0.2466219031783868
1728063133383275800,1.77727587890625,1.359385371208191,0.374860554933548,0.4992731809616089,-0.3864668905735016,0.22510206699371338,-0.8944117426872253,-0.1316910982131958,0.10970628261566162,0.19092059135437012,0.9406201029130198,-0.06079213033366649,-0.22158165721570647,0.24987957745983946
1728063133393305900,1.787305908203125,1.0170400142669678,0.4324892461299896,0.5198511481285095,-0.3816032111644745,0.21639986336231232,-0.8986379504203796,-0.0955238938331604,-0.04829378426074982,-0.010740101337432861,0.9407468267564428,-0.05625173268171376,-0.21798343994518476,0.25360318552674366
1728063133403336700,1.797336669921875,0.5709640383720398,0.2349259853363037,0.09605596214532852,-0.37778303027153015,0.21045048534870148,-0.9016599059104919,-0.050790637731552124,-0.19323857128620148,-0.12112140655517578,0.9409288455992844,-0.0532931854551224,-0.21524375463909698,0.2558966165729933
1728063133413366800,1.80736669921875,0.19762296974658966,-0.009348732419312,-0.03969680890440941,-0.37675395607948303,0.20703735947608948,-0.9028798341751099,-0.055634379386901855,-0.21135562658309937,-0.10096532106399536,0.9411629863516403,-0.0516697498074673,-0.21422024337455106,0.25622707688439655
1728063133423396600,1.817396728515625,0.16407719254493713,-0.2675035893917084,0.1672007143497467,-0.3779952824115753,0.20591749250888824,-0.9026170969009399,-0.03625035285949707,-0.10354627668857574,-0.013749480247497559,0.940954480166594,-0.0508320545982666,-0.21472672002386156,0.25673608176307844
1728063133433427500,1.827427490234375,0.27488601207733154,-0.26368674635887146,0.25099119544029236,-0.38008394837379456,0.20464205741882324,-0.9020298719406128,0.12019619345664978,-0.005163922905921936,0.001547694206237793,0.9404271155359273,-0.04960695359095104,-0.21569473531941002,0.258093029379344
1728063133443457500,1.83745751953125,0.36782360076904297,-0.21624432504177094,0.23565034568309784,-0.38169634342193604,0.20276427268981934,-0.9017730355262756,0.14570385217666626,0.049844980239868164,-0.09744876623153687,0.9399215698450283,-0.04809364208529767,-0.21633419881430987,0.2596810069024074
1728063133453488600,1.847488525390625,0.43859630823135376,-0.22772175073623657,0.10812807083129883,-0.3833845555782318,0.1996714472770691,-0.9017469882965088,0.060981571674346924,0.08249408006668091,0.02190995216369629,0.9395495803603516,-0.0460305841583294,-0.21681259817661752,0.2609982408930649
1728063133463518700,1.857518798828125,0.30171889066696167,-0.19795183837413788,0.07173171639442444,-0.3851291239261627,0.1965441256761551,-0.9016906023025513,0.044705480337142944,0.09637884795665741,0.052111804485321045,0.9393079887789254,-0.04405752427688711,-0.21728695691202057,0.2618126755029305
1728063133473549600,1.867549560546875,0.25012093782424927,-0.3378910720348358,0.18439248204231262,-0.3872798681259155,0.19458194077014923,-0.9011948704719543,0.07088884711265564,0.14294247329235077,0.06396037340164185,0.9389108676082076,-0.042569290292741695,-0.21815227805526893,0.2627623403602658
1728063133483579600,1.87757958984375,0.029477044939994812,-0.42345061898231506,0.1900373250246048,-0.3904215097427368,0.19392380118370056,-0.8999803066253662,0.14966827630996704,0.10005201399326324,0.050294697284698486,0.938254808420521,-0.041526389192042205,-0.2197393716813896,0.2639470958109079
1728063133493610500,1.887610595703125,-0.4452258348464966,-0.3927645981311798,0.11624112725257874,-0.39382484555244446,0.19627349078655243,-0.8979859352111816,0.17412874102592468,-0.05232207477092743,0.02440500259399414,0.937557996221654,-0.04206452496652185,-0.22189550661486215,0.264533575740673
1728063133503640600,1.897640625,-1.0389411449432373,-0.39263826608657837,0.1133318841457367,-0.397092342376709,0.20340308547019958,-0.8949552178382874,0.07378906011581421,-0.16734656691551208,0.15392738580703735,0.9368150191876286,-0.04517203528961032,-0.22468171550149374,0.2643014274465044
1728063133513671700,1.907671630859375,-1.5576742887496948,-0.39775100350379944,0.05536419153213501,-0.400526762008667,0.21538770198822021,-0.8906101584434509,-0.0003216862678527832,-0.22870862483978271,0.2710270881652832,0.9359245187212065,-0.05083541469127159,-0.22827762252560851,0.2633448572177823
1728063133523701800,1.91770166015625,-2.0240182876586914,-0.285931795835495,0.041607100516557693,-0.40356317162513733,0.23145847022533417,-0.8851913809776306,-0.03181588649749756,-0.26183873414993286,0.2951645255088806,0.9349823669506507,-0.05880628436227212,-0.23226306267629301,0.26154135355761193
1728063133533732600,1.927732666015625,-2.4003188610076904,-0.293999046087265,0.14381229877471924,-0.4057893455028534,0.2516016364097595,-0.878653347492218,-0.09134206175804138,-0.22341865301132202,0.276999294757843,0.9338129450984709,-0.0690186684651614,-0.23645245218559213,0.2594614499270221
1728063133543762700,1.9377626953125,-2.469679832458496,-0.43897220492362976,0.1395517736673355,-0.408496618270874,0.27373045682907104,-0.8707480430603027,-0.09235790371894836,-0.18286439776420593,0.21445232629776,0.9322810380050246,-0.08021890719691695,-0.24122790433857053,0.25734447111509823
1728063133553793800,1.947793701171875,-2.298362970352173,-0.7273432612419128,0.02276497147977352,-0.4134295582771301,0.29476869106292725,-0.8615030646324158,-0.08422064781188965,-0.21829161047935486,0.05887550115585327,0.930414700251058,-0.09067286564430414,-0.24703625439079183,0.25510818798467266
1728063133563823600,1.95782373046875,-2.3985073566436768,-0.739441454410553,-0.1115020215511322,-0.4200122654438019,0.314580500125885,-0.8512513041496277,-0.1175244152545929,-0.23573830723762512,-0.20067429542541504,0.9284272680064902,-0.1005274818579771,-0.2535124439842677,0.25228659083472754
1728063133573854700,1.967854736328125,-2.499148368835449,-0.7972927689552307,-0.07087896764278412,-0.4267440736293793,0.3350652754306793,-0.8400123715400696,-0.1307816207408905,-0.10011044144630432,-0.4684593081474304,0.9262688739987245,-0.11090931376362145,-0.26017867744557643,0.2490626710040188
1728063133583884800,1.977884765625,-2.4797518253326416,-0.9398172497749329,-0.09670177102088928,-0.4342897832393646,0.3556806147098541,-0.8275770545005798,-0.10555097460746765,0.01996028423309326,-0.38331466913223267,0.9237534798319615,-0.12134541672653236,-0.26737010650117754,0.2459027739884472
1728063133593915600,1.98791552734375,-2.2506842613220215,-1.056235432624817,-0.3134439289569855,-0.44327178597450256,0.3742257356643677,-0.8145337700843811,-0.04894629120826721,-0.0022164583206176758,-0.19285142421722412,0.9211197009143475,-0.1307299066939936,-0.2750323527476066,0.24249867948449963
1728063133603945700,1.99794580078125,-1.8891938924789429,-0.6683457493782043,-0.33936023712158203,-0.4516575038433075,0.3898995518684387,-0.8024861216545105,-0.07396206259727478,0.015328139066696167,0.022563636302947998,0.9189243684444872,-0.13904436291549918,-0.28182195949667366,0.23837218572032956
1728063133613976800,2.007976806640625,-0.8393288850784302,-0.47076818346977234,-0.07450459152460098,-0.45708611607551575,0.3998643457889557,-0.794468879699707,-0.15238049626350403,0.1806562840938568,0.21703052520751953,0.9173544755658464,-0.14430212085154473,-0.2862559155668415,0.23599853989942815
1728063133624006700,2.018006591796875,-0.07815048098564148,0.02570192888379097,0.013932330533862114,-0.45903605222702026,0.4032195806503296,-0.7916437983512878,-0.07508265972137451,0.2073303759098053,0.13482928276062012,0.9167478086663388,-0.14601723339536682,-0.28784903309604765,0.23536227798363757
1728063133634037800,2.028037841796875,0.21500122547149658,0.2452595829963684,0.14054620265960693,-0.45739105343818665,0.4027216136455536,-0.792848527431488,-0.07721590995788574,0.10502985119819641,-0.010831832885742188,0.916971073882214,-0.14582610181281436,-0.2868980514473415,0.23577186410784923
1728063133644067800,2.03806787109375,-0.2507147490978241,0.23003114759922028,0.09321330487728119,-0.45491889119148254,0.4030255973339081,-0.7941153645515442,-0.06459715962409973,-0.0882977843284607,-0.04823082685470581,0.9172038807352996,-0.14614475437433286,-0.285629176278216,0.23620926548240034
1728063133654098700,2.0480986328125,-1.2102066278457642,-0.0684404969215393,-0.011893140152096748,-0.45401477813720703,0.4090152978897095,-0.7915662527084351,0.08701032400131226,-0.2907138764858246,-0.11538565158843994,0.9167503337727534,-0.1496728356947719,-0.28603308769376773,0.23527006432617728
1728063133664128800,2.058128662109375,-1.6159143447875977,-0.35057875514030457,-0.057494182139635086,-0.4559456408023834,0.4205104410648346,-0.7844007611274719,0.22685012221336365,-0.3039027750492096,-0.0837022066116333,0.9153432971688512,-0.15614162810376234,-0.28882418070815813,0.23312464592431592
1728063133674159900,2.068159912109375,-1.3113312721252441,-0.4733012318611145,0.04517893120646477,-0.45938777923583984,0.43199747800827026,-0.7761063575744629,0.34757134318351746,-0.12172529101371765,-0.11828750371932983,0.9135616429701428,-0.16240063976642777,-0.2925283664984624,0.23121090676959868
1728063133684189400,2.078189453125,-0.6121551990509033,-0.39850831031799316,0.20587646961212158,-0.46223780512809753,0.4403443932533264,-0.7696967720985413,0.30105915665626526,0.15419906377792358,-0.26901471614837646,0.9119270903168039,-0.16664350075394985,-0.29560371065881275,0.23073282628916286
1728063133694220800,2.088220703125,0.5367602109909058,-0.22549179196357727,0.1514129638671875,-0.46382951736450195,0.44169777631759644,-0.7679618000984192,0.15041393041610718,0.40601953864097595,-0.2320839762687683,0.9111784392973581,-0.1668283756178001,-0.2969636473448817,0.23180773605301871
1728063133704250600,2.098250732421875,1.7331433296203613,0.11249333620071411,-0.02478816546499729,-0.4640768766403198,0.43315640091896057,-0.7726630568504333,-0.03578585386276245,0.5036875009536743,-0.26795583963394165,0.9119479756355395,-0.16161843402948942,-0.2958850321453319,0.23384285569284854
1728063133714280700,2.10828076171875,2.600578546524048,0.4742640554904938,-0.06193101033568382,-0.4619923233985901,0.41581064462661743,-0.7833674550056458,-0.2254161834716797,0.45189565420150757,-0.17853128910064697,0.9141713356937968,-0.15185858918995207,-0.291984979582363,0.23658941170742798
1728063133724311600,2.1183115234375,3.32836651802063,0.7374271154403687,0.05429919436573982,-0.4571641981601715,0.39225077629089355,-0.7982106804847717,-0.31227555871009827,0.40004661679267883,0.03694969415664673,0.9172341944549472,-0.1389650950481339,-0.2856280185070128,0.24038906733019286
1728063133734341600,2.128341552734375,3.6230318546295166,0.9140900373458862,0.28868770599365234,-0.44981327652931213,0.3645249605178833,-0.8153463006019592,-0.28122010827064514,0.3269270658493042,0.1841665506362915,0.9205238543503081,-0.12399241620347606,-0.2774035402985442,0.24557908170360518
1728063133744372500,2.13837255859375,3.319422483444214,0.8405777812004089,0.3962956666946411,-0.4411155581474304,0.33724701404571533,-0.8316739797592163,-0.22177207469940186,0.19670382142066956,0.07218301296234131,0.9233586335304428,-0.10944354796724619,-0.2686729097291412,0.2514874193145017
1728063133754402600,2.148402587890625,2.881222724914551,0.3569977581501007,0.2803424298763275,-0.43479833006858826,0.3128105103969574,-0.8444525003433228,-0.12500089406967163,0.029688268899917603,-0.10151612758636475,0.9253265323974957,-0.0963715039865656,-0.26169886722782576,0.2568988991936216
1728063133764433700,2.15843359375,2.5661585330963135,-0.07548002898693085,-0.055568717420101166,-0.43342986702919006,0.2900446653366089,-0.8532366156578064,0.024402707815170288,-0.1903437376022339,-0.3215070366859436,0.9265626098158344,-0.08398099085190051,-0.25754397127409895,0.2609600542033706
1728063133774463700,2.168463623046875,2.266979217529297,-0.20314423739910126,-0.2623938024044037,-0.43532541394233704,0.2685651183128357,-0.8592814207077026,0.20311713218688965,-0.2862347960472107,-0.25164997577667236,0.9275380614084435,-0.07233645601167862,-0.25519937170985757,0.2632754944374911
1728063133784494600,2.17849462890625,2.185727596282959,-0.12496497482061386,-0.12472621351480484,-0.43730252981185913,0.24854381382465363,-0.8642873167991638,0.24098289012908936,-0.052605703473091125,-0.06773477792739868,0.928351086337699,-0.06156891463737689,-0.25311187991850936,0.26515681794393636
1728063133794524700,2.188524658203125,2.386697292327881,-0.1287144273519516,0.11408556252717972,-0.4383980929851532,0.2287812978029251,-0.8691756725311279,0.23487630486488342,0.1911253184080124,0.12508082389831543,0.928826675907743,-0.05080880101798727,-0.25066041002828376,0.2680841353181488
1728063133804555800,2.1985556640625,2.372178077697754,-0.10176671296358109,0.16657035052776337,-0.4390466809272766,0.20837348699569702,-0.8739671111106873,0.21124818921089172,0.21095328032970428,0.21390247344970703,0.9290340457857394,-0.03962171918711116,-0.2478841688120614,0.27180765782719124
1728063133814585600,2.208585693359375,1.9797534942626953,-0.0998321920633316,0.09995882213115692,-0.43965446949005127,0.18975624442100525,-0.8778932690620422,0.1108885407447815,0.10775962471961975,0.13587361574172974,0.9291012868749743,-0.02946059242929557,-0.2453272325270256,0.27516817485886275
1728063133824616700,2.21861669921875,1.5485155582427979,-0.12836971879005432,0.12660828232765198,-0.4404332935810089,0.17467544972896576,-0.880628764629364,0.011676520109176636,0.013251781463623047,0.07020401954650879,0.9290462444750703,-0.02122558006500098,-0.24338258476447158,0.277826695899052
1728063133834646800,2.228646728515625,1.148184895515442,-0.20730847120285034,0.15571263432502747,-0.44161638617515564,0.16345630586147308,-0.8821887373924255,-0.005389899015426636,-0.08032643795013428,0.03834724426269531,0.9287576521620331,-0.014917212646139967,-0.2422459412287925,0.28018500867583324
1728063133844677600,2.238677734375,0.8528086543083191,-0.3206741213798523,-0.003025879617780447,-0.4438604414463043,0.1550910621881485,-0.8825727701187134,0.035779327154159546,-0.1701972782611847,0.0001569986343383789,0.9283874444494675,-0.010053714713481387,-0.2421002751615384,0.2817501478275462
1728063133854707700,2.248707763671875,0.6195551753044128,-0.34051015973091125,-0.11945901811122894,-0.44698861241340637,0.14816559851169586,-0.8821837306022644,0.014020413160324097,-0.19380465149879456,-0.02077031135559082,0.9280961319898126,-0.006002788705709083,-0.24263572136698466,0.2823641642270411
1728063133864738800,2.25873876953125,0.28814125061035156,-0.2517707943916321,-0.11504722386598587,-0.44979652762413025,0.14364056289196014,-0.8815046548843384,-0.04983729124069214,-0.13627059757709503,0.051090896129608154,0.9279267392105124,-0.003349242994557696,-0.2433853988976595,0.2823194490982197
1728063133874768600,2.2687685546875,-0.014300396665930748,-0.19952943921089172,-0.059523776173591614,-0.45192092657089233,0.1419498175382614,-0.880691647529602,-0.09718191623687744,-0.057721301913261414,0.19616711139678955,0.9277693192968104,-0.0022342880821710413,-0.24423182565310567,0.28211721699465375
1728063133884799700,2.2787998046875,-0.5823582410812378,-0.0874847024679184,-0.08258835226297379,-0.4533451795578003,0.14410878717899323,-0.8796083331108093,-0.13503378629684448,-0.08624747395515442,0.2745515704154968,0.9276773147980205,-0.0032392234279575937,-0.2453270014407732,0.28145879768877985
1728063133894829800,2.288829833984375,-1.3264702558517456,0.05381676182150841,-0.13144803047180176,-0.4536636173725128,0.15195146203041077,-0.8781230449676514,-0.17138221859931946,-0.19244828820228577,0.35451769828796387,0.9277838662729766,-0.007481214062697869,-0.2467438137465046,0.27978322845202463
1728063133904860700,2.298860595703125,-2.079530954360962,0.17283406853675842,-0.19956529140472412,-0.45291614532470703,0.16631239652633667,-0.8759036660194397,-0.20762163400650024,-0.30441969633102417,0.4517398476600647,0.9280542187884042,-0.015426946457741583,-0.24861653528535513,0.2768888711198609
1728063133914890800,2.308890869140625,-2.515928268432617,0.2692412734031677,-0.2973637878894806,-0.45141661167144775,0.1854364275932312,-0.8728324174880981,-0.19958442449569702,-0.3973962664604187,0.48580849170684814,0.9284250943438287,-0.026162570905421168,-0.25079737155207804,0.2728426702403041
1728063133924921900,2.318921875,-2.665226936340332,0.22464574873447418,-0.4029426574707031,-0.4498264193534851,0.20673924684524536,-0.8688585162162781,-0.18335235118865967,-0.40650731325149536,0.4241716265678406,0.9288092884661082,-0.03827802245363496,-0.25319072780244,0.2678480273540787
1728063133934951700,2.32895166015625,-2.1575589179992676,0.043808337301015854,-0.3460247814655304,-0.449523001909256,0.22624839842319489,-0.8641416430473328,-0.1926737129688263,-0.3060060739517212,0.22617167234420776,0.9289652336708689,-0.04936103735535629,-0.25591535505058505,0.26285843599415987
1728063133944982800,2.338982666015625,-1.4752790927886963,-0.05849369242787361,-0.19739028811454773,-0.45032745599746704,0.24062879383563995,-0.8598273396492004,-0.15964269638061523,-0.12307508289813995,-0.28937309980392456,0.9288022153826407,-0.05738341336348775,-0.25844434651392484,0.25930750380497547
1728063133955012600,2.3490126953125,-1.0037075281143188,-0.04193069785833359,-0.16693757474422455,-0.4511699378490448,0.25040754675865173,-0.856587290763855,-0.0005970597267150879,0.14091932773590088,-0.8110609650611877,0.9285991515149207,-0.06281581128944567,-0.26030854869303427,0.2568992164948718
1728063133965043700,2.359043701171875,-0.5926159620285034,-0.1272265762090683,-0.21575172245502472,-0.4523077607154846,0.25635579228401184,-0.854224443435669,0.14504152536392212,0.39006754755973816,-0.7464682459831238,0.9284783911069474,-0.06615639202510053,-0.2617462555314622,0.25502985985551363
1728063133975073500,2.369073486328125,-0.3547455966472626,-0.2636137306690216,-0.3756369948387146,-0.45479220151901245,0.25893741846084595,-0.8521240949630737,0.21208587288856506,0.37312737107276917,-0.365542471408844,0.9284295927620259,-0.06764038686361584,-0.2633680462186573,0.25314147222048106
1728063133985104600,2.379104736328125,-0.3571837842464447,-0.26569119095802307,-0.48884159326553345,-0.4583054482936859,0.25979143381118774,-0.8499791026115417,0.20659640431404114,0.18600934743881226,-0.05044198036193848,0.9285136520383835,-0.06828259611613656,-0.2652318286573075,0.2507029390238452
1728063133995134700,2.389134765625,-0.4761064350605011,-0.12534978985786438,-0.2705383002758026,-0.46104538440704346,0.2614341676235199,-0.847991406917572,0.11744791269302368,0.05521625280380249,0.15760749578475952,0.9286075601434755,-0.06940689389170487,-0.26680889636944094,0.2483624521109744
1728063134005165600,2.39916552734375,-0.6263203620910645,0.05151291564106941,-0.059414323419332504,-0.4618600904941559,0.26539701223373413,-0.8463153839111328,0.06590971350669861,0.03234773874282837,0.2274951934814453,0.9285292684799825,-0.07169198846939932,-0.2677733482771427,0.24696406144381566
1728063134015195600,2.409195556640625,-0.6724556088447571,0.09961998462677002,-0.1356036216020584,-0.4612581729888916,0.27066054940223694,-0.8449755907058716,0.10183736681938171,0.049026310443878174,0.25397223234176636,0.9285226002993054,-0.07480644675945693,-0.26817195234710356,0.24562896801764045
1728063134025225700,2.419225830078125,-0.5581408143043518,-0.0013080625794827938,-0.26405560970306396,-0.4614604413509369,0.27483853697776794,-0.8435152769088745,0.062153160572052,0.027438044548034668,0.2589969038963318,0.928603672788604,-0.0774055523381055,-0.26879496614966025,0.24382967290951138
1728063134035256600,2.429256591796875,-0.4886477291584015,0.09854769706726074,-0.1935601383447647,-0.4617970287799835,0.27813446521759033,-0.8422498106956482,0.002690523862838745,0.00041472911834716797,0.19449901580810547,0.9287498502118807,-0.07956411941337238,-0.2693411251336694,0.24196849230568937
1728063134045286700,2.43928662109375,-0.40279653668403625,0.0782131776213646,-0.13292448222637177,-0.4614790380001068,0.2812661826610565,-0.8413836359977722,0.005622655153274536,0.02484038472175598,0.04022097587585449,0.9288664923544927,-0.08157817614743143,-0.26954252960685193,0.2406219999261687
1728063134055317800,2.44931787109375,-0.22808784246444702,0.12607204914093018,-0.22917139530181885,-0.4611029624938965,0.2830491065979004,-0.8409918546676636,0.008145779371261597,0.04260396957397461,-0.12430959939956665,0.9290932744330909,-0.08290121109259539,-0.2695022540695726,0.23933599784316964
1728063134065347600,2.45934765625,-0.16770200431346893,0.17599880695343018,-0.22328181564807892,-0.4605509042739868,0.2835943102836609,-0.8411107063293457,-0.05644744634628296,0.02907353639602661,-0.1938776969909668,0.9294970344565255,-0.08366714204146512,-0.26915510483885124,0.2378880910151376
1728063134075378700,2.469378662109375,-0.09394575655460358,0.2275397628545761,-0.06896840780973434,-0.45925024151802063,0.28397709131240845,-0.8416925072669983,-0.09732940793037415,0.03720515966415405,-0.08083862066268921,0.9298953369121551,-0.08429947675571323,-0.26841636653463885,0.2369410536404771
1728063134085408800,2.47940869140625,-0.17550227046012878,0.21923032402992249,0.021895715966820717,-0.45736992359161377,0.28495585918426514,-0.8423852920532227,-0.040570199489593506,0.04318439960479736,0.019494056701660156,0.9301641802552626,-0.08512579038625696,-0.26750881961243206,0.23661637254418455
1728063134095439600,2.489439697265625,-0.24502594769001007,0.18911422789096832,-0.06012219190597534,-0.4556635618209839,0.28670796751976013,-0.8427154421806335,0.02002507448196411,0.007298380136489868,0.06347960233688354,0.9303615619927418,-0.08635044920676267,-0.2668068203045496,0.23618904057723492
1728063134105469700,2.4994697265625,-0.32496705651283264,0.1452566683292389,-0.1278168112039566,-0.4545375406742096,0.28864964842796326,-0.842660665512085,0.04132950305938721,-0.044875264167785645,0.09377461671829224,0.9305835616241831,-0.08774308377896063,-0.2664034780278007,0.23525425708871708
1728063134115500800,2.509500732421875,-0.39851662516593933,0.04558173567056656,-0.08443791419267654,-0.45404765009880066,0.2911740839481354,-0.8420560359954834,0.04967445135116577,-0.059118449687957764,0.11035138368606567,0.930684171845908,-0.0893826551608254,-0.26642580830454266,0.23421164034358957
1728063134125530600,2.519530517578125,-0.47289159893989563,0.0019441358745098114,-0.03477049246430397,-0.45408695936203003,0.2945944368839264,-0.8408443331718445,0.08345091342926025,-0.02565827965736389,0.10631674528121948,0.9305765765454133,-0.09136251687818425,-0.26689085474093266,0.2333440769502904
1728063134135561700,2.529561767578125,-0.49316278100013733,-0.009554327465593815,-0.026490725576877594,-0.4542089104652405,0.2985861599445343,-0.8393691778182983,0.0833592414855957,0.014951437711715698,0.05639493465423584,0.930375274719442,-0.09359945716139983,-0.2674968220299023,0.23256522294224094
1728063134145591800,2.539591796875,-0.4505172371864319,0.01671067252755165,-0.0495731420814991,-0.45430734753608704,0.3023624122142792,-0.8379629254341125,0.04265567660331726,0.029104262590408325,-0.008197963237762451,0.9302007658544648,-0.09574295207664224,-0.2680519194145482,0.2317500305835217
1728063134155622700,2.54962255859375,-0.35485729575157166,-0.006790392566472292,-0.04225530847907066,-0.45437145233154297,0.3056035339832306,-0.8367515206336975,0.007548272609710693,0.01441904902458191,-0.03287738561630249,0.9300653886901773,-0.09760607844967979,-0.2685093927077453,0.23098533572506547
1728063134165652700,2.55965283203125,-0.2709464132785797,-0.030325014144182205,-0.05365310609340668,-0.4546906054019928,0.30794575810432434,-0.8357188105583191,0.00026854872703552246,0.003852337598800659,-0.022282898426055908,0.9299413930469712,-0.09894003396929275,-0.26898227304738537,0.23036630306437184
1728063134175683800,2.569683837890625,-0.3012111186981201,0.004791428335011005,-0.049961965531110764,-0.454990953207016,0.3100760281085968,-0.8347671031951904,0.0075727105140686035,-0.004076272249221802,-0.011759936809539795,0.929840920659202,-0.10017223377180083,-0.2694104184359045,0.22973783033079354
1728063134185713700,2.579713623046875,-0.3426378667354584,0.01631902903318405,-0.011473692953586578,-0.454975426197052,0.31264176964759827,-0.8338180184364319,0.00033974647521972656,0.009669631719589233,0.03311312198638916,0.9297297729173577,-0.10165281898758878,-0.2697363195062711,0.22915430067971795
1728063134195744800,2.589744873046875,-0.3757934272289276,0.008347653783857822,-0.004061849322170019,-0.45490026473999023,0.3156174421310425,-0.8327373266220093,0.007039487361907959,0.01572716236114502,0.04965627193450928,0.929566738261964,-0.10333221243544416,-0.2700996060349642,0.22863613818645034
1728063134205774800,2.59977490234375,-0.39548468589782715,-0.0070608630776405334,0.0016309232451021671,-0.45490196347236633,0.3188546597957611,-0.8315021991729736,0.014899492263793945,0.005074173212051392,0.024968445301055908,0.9293673182332406,-0.10514432213837639,-0.2705431007099629,0.22809536979848188
1728063134215805700,2.6098056640625,-0.27063730359077454,-0.032285526394844055,0.014799989759922028,-0.4550473392009735,0.32173407077789307,-0.8303126692771912,0.009078651666641235,-0.0001245737075805664,0.03357505798339844,0.9291505967109631,-0.10672315617815796,-0.2710236640127139,0.22767442601220048
1728063134225835500,2.61983544921875,-0.20196405053138733,-0.06487366557121277,0.036024317145347595,-0.4553598463535309,0.3237683176994324,-0.8293500542640686,0.008597701787948608,-0.004417091608047485,0.05266249179840088,0.9289299878889449,-0.10777365625215901,-0.2714954977190419,0.2275174872580088
1728063134235867000,2.629866943359375,-0.12755905091762543,-0.031232353299856186,0.004181166645139456,-0.4557463824748993,0.32527533173561096,-0.8285476565361023,0.005871444940567017,-0.004398256540298462,0.00951695442199707,0.9287399246451391,-0.10853098333516688,-0.27193232948672336,0.22741177065426596
1728063134245896700,2.639896728515625,-0.07632781565189362,-0.02377890981733799,-0.01021614857017994,-0.45595812797546387,0.32608509063720703,-0.8281127214431763,0.0015971362590789795,0.01609322428703308,-0.049603283405303955,0.9286575984410077,-0.10896261859132739,-0.2721594718770347,0.22726964628927476
1728063134255927600,2.649927490234375,-0.07680079340934753,-0.035250209271907806,-0.00226128613576293,-0.45623940229415894,0.32664260268211365,-0.8277380466461182,-0.00826871395111084,0.018282324075698853,-0.041051626205444336,0.9285836625102865,-0.10924740518818514,-0.27238937797153884,0.22715992203077154
1728063134265957600,2.65995751953125,-0.15454578399658203,-0.02158116176724434,0.018380077555775642,-0.45648378133773804,0.32761064171791077,-0.827220618724823,-0.0009595155715942383,0.01667344570159912,-0.0693705677986145,0.9284702522754686,-0.10974602870854344,-0.2726637349417812,0.22705401405831988
1728063134275987700,2.66998779296875,-0.2261296957731247,-0.02364138513803482,0.042518965899944305,-0.4565414786338806,0.3293570578098297,-0.8264948725700378,0.00559842586517334,0.017932981252670288,-0.09093976020812988,0.9283040902017153,-0.11067031096435538,-0.2729553697848604,0.22693392661135864
1728063134286018600,2.6800185546875,-0.16400952637195587,-0.0372876338660717,0.02365846373140812,-0.45672717690467834,0.33128276467323303,-0.8256222605705261,0.00979718565940857,0.009812206029891968,-0.07083159685134888,0.9280948928051734,-0.111667737511109,-0.27334812758473,0.2268284293356164
1728063134296048600,2.690048583984375,-0.05937366560101509,-0.017214324325323105,-0.02605130337178707,-0.4569580554962158,0.3321398198604584,-0.8251500129699707,0.018008440732955933,-0.011018604040145874,-0.0397028923034668,0.9280023732508992,-0.11212243832444509,-0.2735937828354832,0.22668651636713402
1728063134306079700,2.700079833984375,0.012014697305858135,0.03912048041820526,-0.01305427961051464,-0.4572547376155853,0.33231309056282043,-0.8249158263206482,0.006693124771118164,-0.009818583726882935,0.013529777526855469,0.9279855702243367,-0.11223258749585079,-0.2737625310223927,0.2264967538579043
1728063134316109600,2.710109619140625,0.13002629578113556,0.09257065504789352,0.03328339010477066,-0.4566379189491272,0.33162981271743774,-0.8255322575569153,-0.01603361964225769,0.026539772748947144,0.05508553981781006,0.9281260447264653,-0.11192310264400362,-0.2733259616896231,0.22660180456412055
1728063134326141400,2.720141357421875,0.10780913382768631,0.13481344282627106,0.036860816180706024,-0.45510509610176086,0.3306483328342438,-0.8267714381217957,-0.012622624635696411,0.037759870290756226,0.01053309440612793,0.9283780520902906,-0.11150107881090264,-0.27236333125716494,0.22693589976908354
1728063134336171300,2.730171142578125,-0.012642978690564632,0.09255227446556091,0.04176289588212967,-0.4537782073020935,0.3304242193698883,-0.8275900483131409,-0.0044280290603637695,0.016896337270736694,-0.03094571828842163,0.9285488788150019,-0.11148243079742587,-0.2716185775935005,0.2271391853984484
1728063134346202400,2.740202392578125,-0.050053004175424576,0.02957288734614849,0.031867921352386475,-0.45272040367126465,0.330791711807251,-0.8280224204063416,0.002540290355682373,0.004779607057571411,-0.029780864715576172,0.928628791812,-0.1117516750639867,-0.27110946489334853,0.22728836305299585
1728063134356232400,2.750232421875,-0.07557939738035202,0.05250750109553337,-0.0052797128446400166,-0.4516684412956238,0.3311353325843811,-0.8284594416618347,0.019936203956604004,-0.013508379459381104,-0.04751712083816528,0.9287397243847091,-0.11204364533891868,-0.2705854847702516,0.22731555223577374
1728063134366263300,2.76026318359375,-0.14748920500278473,0.04607527330517769,0.005087440367788076,-0.45061805844306946,0.3319350481033325,-0.8287113904953003,0.010508745908737183,-0.019709676504135132,-0.03759109973907471,0.928841140963954,-0.11261714489518676,-0.27011422102909055,0.227178266565748
1728063134376293000,2.770293212890625,-0.08212591707706451,0.012508790008723736,-0.004589954391121864,-0.44987204670906067,0.3325469493865967,-0.8288713693618774,0.0024995505809783936,0.0004456043243408203,-0.012788176536560059,0.9289191552993177,-0.11306003350200762,-0.2697809126569022,0.2270354903742376
1728063134386324500,2.780324462890625,-0.04301965981721878,0.029220284894108772,-0.0477568656206131,-0.4500837028026581,0.3328101336956024,-0.8286507725715637,0.009135186672210693,0.001555711030960083,-0.015312790870666504,0.9289209015356433,-0.11324312226241166,-0.269908535262232,0.22678482808806105
1728063134396354300,2.790354248046875,-0.02484065480530262,0.07594864815473557,-0.03539314121007919,-0.45085811614990234,0.3339049220085144,-0.8277889490127563,-0.0017328858375549316,-0.007824599742889404,-0.006012320518493652,0.9287690039454712,-0.11380984997932571,-0.27046781674513837,0.22645726906869804
1728063134406385200,2.80038525390625,-0.010270368307828903,0.07184614986181259,-0.0061279297806322575,-0.45058372616767883,0.33466556668281555,-0.8276311755180359,-0.010613232851028442,0.007467001676559448,0.05097407102584839,0.9287605784832486,-0.1142731483669041,-0.2704183128420778,0.2263174901370417
1728063134416415200,2.810415283203125,0.009653804823756218,0.07592558115720749,-0.014533931389451027,-0.4498598575592041,0.33463308215141296,-0.8280379772186279,0.003082454204559326,0.010291874408721924,0.05595850944519043,0.9288830483833831,-0.1143563959759828,-0.27000672403217507,0.22626406609901492
1728063134426446000,2.820446044921875,-0.05679972097277641,0.0702487900853157,-0.002484458964318037,-0.4490410387516022,0.33455753326416016,-0.8285128474235535,0.0050865113735198975,-0.0037469565868377686,0.023352324962615967,0.9290375782578548,-0.1144448025070289,-0.269529173536776,0.22615452156204363
1728063134436476200,2.83047607421875,-0.12103516608476639,-0.0034257015213370323,0.03666507080197334,-0.4480263292789459,0.3348892629146576,-0.8289279937744141,0.0014472901821136475,-0.013310253620147705,0.04473304748535156,0.9291540082883629,-0.11473895314600452,-0.2690185241323478,0.22613488370613677
1728063134446507300,2.84050732421875,-0.10678771883249283,-0.005918739829212427,-0.0016389056108891964,-0.4475792348384857,0.3351549208164215,-0.8290621638298035,0.016350537538528442,-0.008754163980484009,0.03174465894699097,0.9292059537081048,-0.11494621295415784,-0.26880530468572883,0.22606978501494562
1728063134456537300,2.850537353515625,-0.09848984330892563,0.0302488524466753,-0.025598034262657166,-0.4474466145038605,0.3357697129249573,-0.8288849592208862,0.012738913297653198,-0.015487700700759888,-0.03448784351348877,0.9292141717644555,-0.11534389899052526,-0.268799757941201,0.22583972802807165
1728063134466568200,2.860568115234375,-0.14371764659881592,0.0292305126786232,0.04670492187142372,-0.4468761384487152,0.3367273211479187,-0.8288041949272156,-0.009285420179367065,-0.003215968608856201,-0.04894232749938965,0.929221761648362,-0.11593693614291206,-0.2686196563183456,0.22571892470377733
1728063134476598300,2.870598388671875,-0.08277173340320587,-0.004030505195260048,0.023828106001019478,-0.446759432554245,0.3376040756702423,-0.8285104036331177,0.008252322673797607,0.024929463863372803,-0.011653721332550049,0.9291458786218296,-0.11640472286400949,-0.26869078190269524,0.22570581239067472
1728063134486629000,2.880629150390625,-0.0578639879822731,-0.0004347055219113827,-0.040818799287080765,-0.4476896822452545,0.3385094702243805,-0.8276384472846985,0.02965983748435974,0.027381032705307007,-0.021619975566864014,0.928960383276734,-0.11682073850524188,-0.2693208206793719,0.22550392675759032
1728063134496659200,2.8906591796875,-0.08208011090755463,0.006106018088757992,-0.00436784652993083,-0.4482414722442627,0.33960166573524475,-0.8268920183181763,0.00631636381149292,0.008817523717880249,-0.03391730785369873,0.928818691795127,-0.11738923134143202,-0.2697661443725975,0.22526000594313725
1728063134506690300,2.900690185546875,-0.02384396642446518,0.007339061703532934,0.014203440397977829,-0.44833269715309143,0.34004348516464233,-0.8266608715057373,-0.005448490381240845,-0.001450955867767334,0.04678422212600708,0.9287682283196694,-0.11762010671157465,-0.26987971789527726,0.22521116058194396
1728063134516720400,2.910720458984375,-0.040129732340574265,0.07165653258562088,-0.0021430416963994503,-0.4483526349067688,0.34020310640335083,-0.8265843987464905,-0.0026667118072509766,-0.02434617280960083,0.062134385108947754,0.9287659149358761,-0.11772175105928151,-0.2699062430132314,0.2251359740687552
1728063134526751200,2.920751220703125,-0.04757939279079437,0.08286790549755096,-0.003279146272689104,-0.4476568102836609,0.34056898951530457,-0.8268108367919922,-0.022390246391296387,-0.027107656002044678,0.03794676065444946,0.928860179198335,-0.1180301500353355,-0.26956159295383775,0.2249986142754613
1728063134536781300,2.93078125,-0.012913289479911327,0.009159864857792854,-0.003016558475792408,-0.4467993974685669,0.34021493792533875,-0.827420175075531,-0.01508420705795288,0.002924710512161255,0.03342914581298828,0.9290415544444521,-0.11796769251827649,-0.2690232803579198,0.22492694001775018
1728063134546812400,2.9408125,0.0018560690805315971,-0.02119218185544014,-0.028065985068678856,-0.4467277228832245,0.33973297476768494,-0.8276568651199341,0.0210074782371521,0.015094876289367676,-0.019999325275421143,0.9291255254539521,-0.11775235666299226,-0.26889764109888237,0.22484306331142453
1728063134556842200,2.95084228515625,-0.07636203616857529,-0.016286905854940414,0.003292203415185213,-0.4466083347797394,0.34031566977500916,-0.8274818658828735,0.029753446578979492,0.011109471321105957,-0.02366858720779419,0.9290883830316579,-0.11807780051167863,-0.2689176360588188,0.224801633977246
1728063134566873300,2.960873291015625,-0.11869192123413086,-0.04705626890063286,0.04109737277030945,-0.44602108001708984,0.341704398393631,-0.8272263407707214,0.01573842763900757,0.008377999067306519,0.030839622020721436,0.9289869145262126,-0.11882064073972014,-0.26882800534503115,0.22493705678164402
1728063134576903400,2.9709033203125,-0.11373111605644226,-0.05043347552418709,-0.008760997094213963,-0.44599705934524536,0.3427647352218628,-0.8268004059791565,0.014493703842163086,-0.006674617528915405,0.03180229663848877,0.9288720533650269,-0.11936886254668212,-0.2689811506193265,0.22493755294090853
1728063134586934300,2.980934326171875,-0.050137490034103394,-0.02031019516289234,-0.05974908173084259,-0.4469500780105591,0.3434429168701172,-0.8260039687156677,-0.0021008849143981934,-0.030408859252929688,-0.034942626953125,0.9287333869433987,-0.11969899843740472,-0.26957402999037616,0.22462477081307905
1728063134596964400,2.99096435546875,-0.018302595242857933,0.011835010722279549,-0.033282320946455,-0.44780614972114563,0.3433294892311096,-0.8255873918533325,-0.027917176485061646,-0.02265074849128723,-0.051579296588897705,0.9287118600578071,-0.11965105474433681,-0.2699813234153298,0.22425027250510415
1728063134606994400,3.000994384765625,0.029810339212417603,0.023858223110437393,0.013404225930571556,-0.4484284520149231,0.3428492844104767,-0.8254491686820984,-0.022579878568649292,0.015442341566085815,0.01647394895553589,0.9287122629537956,-0.11937775472856892,-0.2702302131427888,0.22409434708083317
1728063134617025300,3.011025390625,0.03922674432396889,0.04668257758021355,0.0030906018801033497,-0.4485527276992798,0.3426961600780487,-0.8254452347755432,-0.0007270872592926025,0.033127814531326294,0.04746061563491821,0.9287005174785212,-0.11927177048841389,-0.2702806502283604,0.2241386152015449
1728063134627055400,3.021055419921875,0.020514441654086113,0.019105812534689903,-0.042390063405036926,-0.4476942718029022,0.3425467610359192,-0.8259731531143188,0.008317381143569946,0.009351462125778198,0.03179895877838135,0.9288400087352339,-0.11929019067441377,-0.26978376803525095,0.2241494112181758
1728063134637086500,3.03108642578125,-0.07505442202091217,0.0012370669282972813,-0.054964445531368256,-0.44710221886634827,0.3425968885421753,-0.8262729644775391,0.009037584066390991,-0.019934535026550293,0.03338050842285156,0.9289635256625463,-0.11943541837701085,-0.26944145691336635,0.2239718488552825
1728063134647116300,3.0411162109375,-0.09996103495359421,0.0013495059683918953,-0.021819008514285088,-0.44713664054870605,0.34367114305496216,-0.8258081078529358,0.006172835826873779,-0.02874496579170227,0.036303162574768066,0.9289009338120444,-0.12005988023075172,-0.2695951839819947,0.22371256232464584
1728063134657147400,3.0511474609375,-0.09685979038476944,0.031350016593933105,-0.01043239701539278,-0.44705599546432495,0.34451824426651,-0.8254987597465515,0.008213162422180176,-0.008748561143875122,0.032743632793426514,0.9288670270656875,-0.12056495241822442,-0.2696566578710348,0.2235075897612061
1728063134667177200,3.06117724609375,-0.057611122727394104,0.01145513728260994,-0.027147194370627403,-0.44676822423934937,0.34413135051727295,-0.8258158564567566,0.00725400447845459,-0.0012205541133880615,0.015940368175506592,0.9290173921981052,-0.12047703966053333,-0.26940187169129715,0.223236781253942
1728063134677208000,3.0712080078125,-0.00554418982937932,0.02576749585568905,-0.05994349345564842,-0.44698411226272583,0.34318530559539795,-0.8260926604270935,-0.004966020584106445,0.006759762763977051,-0.02810955047607422,0.929182075332622,-0.12007390373698165,-0.26932493228433957,0.2228614245919388
1728063134687238100,3.081238037109375,0.03261091932654381,0.04818779602646828,-0.07742501050233841,-0.4473457336425781,0.3430143892765045,-0.8259679079055786,-0.01227957010269165,0.0012849271297454834,-0.07127940654754639,0.9292359692332629,-0.12005051862132608,-0.269451139413793,0.2224964901926775
1728063134697269200,3.091269287109375,0.06399200856685638,0.02992996573448181,-0.057843588292598724,-0.4474823474884033,0.3430868089199066,-0.825863778591156,-0.013378918170928955,0.0046915411949157715,-0.04999065399169922,0.9292656325486938,-0.12014235729385253,-0.26950680092075185,0.22225500271319054
1728063134707299300,3.10129931640625,0.08685851097106934,0.027149410918354988,-0.039617981761693954,-0.4474716782569885,0.34253838658332825,-0.8260971903800964,-0.00324249267578125,0.017340153455734253,-0.0007918477058410645,0.9293574460183777,-0.11989612838321485,-0.2693999294315237,0.2221338305360858
1728063134717330200,3.111330078125,0.06488849967718124,0.01740783452987671,-0.04121667519211769,-0.4475726783275604,0.34160175919532776,-0.8264303207397461,0.00905027985572815,0.014370530843734741,0.030119895935058594,0.9294778405753041,-0.11943937895825,-0.2692936822018314,0.22200531036722435
1728063134727360300,3.1213603515625,0.06250297278165817,0.011855196207761765,-0.04639279469847679,-0.44782933592796326,0.34061023592948914,-0.8267003893852234,0.0062094032764434814,0.003124535083770752,0.033991098403930664,0.9295901662278624,-0.11894781023783522,-0.2692604868868751,0.2218387140217177
1728063134737391400,3.131391357421875,0.04321076720952988,0.05474061146378517,-0.028067316859960556,-0.44782307744026184,0.3401432931423187,-0.8268960118293762,-0.004218608140945435,-0.006052106618881226,0.010321974754333496,0.92967743059675,-0.11875016780739948,-0.2691660938944391,0.22169320423205086
1728063134747421200,3.141421142578125,0.04859614372253418,0.03281256929039955,0.022497856989502907,-0.44740474224090576,0.33987677097320557,-0.8272320628166199,-0.004240214824676514,0.0009740889072418213,0.013419806957244873,0.929760390189606,-0.1186511432312157,-0.2688975230284579,0.2217248083499037
1728063134757452300,3.151452392578125,0.03318336606025696,-0.003690846264362335,0.03106710873544216,-0.44702479243278503,0.3397454619407654,-0.8274913430213928,0.012729078531265259,0.018195241689682007,0.021690011024475098,0.9297767555207096,-0.11856190985853893,-0.2686957204039737,0.22194852909473836
1728063134767482400,3.161482421875,0.09823007881641388,-0.035268958657979965,-0.05127117410302162,-0.4468635320663452,0.3388189673423767,-0.8279581665992737,0.03309088945388794,0.01787048578262329,-0.011855065822601318,0.9298843940790767,-0.1180817239094535,-0.2684727593028061,0.22202301631382526
1728063134777513200,3.17151318359375,0.024286875501275063,-0.028702670708298683,-0.07040838152170181,-0.44726842641830444,0.33774206042289734,-0.8281794786453247,0.018908411264419556,0.0077626705169677734,-0.05210000276565552,0.9299957376816395,-0.11754435055749538,-0.26850249744911203,0.2218053492142484
1728063134787543300,3.181543212890625,-0.018374700099229813,-0.037236183881759644,0.019162246957421303,-0.44756031036376953,0.33813631534576416,-0.8278608918190002,-0.0064649879932403564,0.00649869441986084,0.0006514787673950195,0.9299279142583985,-0.11773559785659306,-0.2687152399674253,0.22173113006331996
1728063134797574400,3.191574462890625,0.07915931195020676,-0.044524457305669785,0.019552933052182198,-0.44788801670074463,0.3384901285171509,-0.8275390267372131,-0.007861554622650146,0.01945057511329651,0.051614344120025635,0.9297874496905808,-0.11781525285579084,-0.26897967801966527,0.22195697740159234
1728063134807604200,3.201604248046875,0.0853392481803894,-0.020650280639529228,-0.038947928696870804,-0.4483305513858795,0.33801859617233276,-0.8274920582771301,-0.009234815835952759,-0.0031492114067077637,-0.017936348915100098,0.9297523731034458,-0.117495103592435,-0.2691632564313295,0.22205091986157538
1728063134817635300,3.21163525390625,0.04094834625720978,0.007032478228211403,-0.05954881012439728,-0.44870230555534363,0.33724477887153625,-0.8276063203811646,-0.03129348158836365,-0.019114285707473755,-0.005660831928253174,0.9298255228065572,-0.11710594877313349,-0.2692267148617775,0.22187356756875512
1728063134827665400,3.22166552734375,0.07245533168315887,-0.04380231350660324,-0.02688300795853138,-0.44911837577819824,0.3367535471916199,-0.8275806903839111,-0.023217499256134033,0.012672722339630127,0.05057263374328613,0.9298503898812982,-0.11684449939973722,-0.2693641022890549,0.22174028841571516
1728063134837696300,3.2316962890625,0.12483544647693634,-0.04062196612358093,0.018327878788113594,-0.44941943883895874,0.3363373279571533,-0.8275865316390991,0.003084540367126465,0.03861692547798157,0.05825364589691162,0.9298057230147795,-0.11653991827994133,-0.26949061319547785,0.22193417907429425
1728063134847726300,3.241726318359375,0.12110456079244614,-0.019105330109596252,-0.004833367187529802,-0.448803573846817,0.33580902218818665,-0.828135073184967,0.01971110701560974,0.029608458280563354,0.004557192325592041,0.929863668456457,-0.1162297264414013,-0.2691154342651805,0.22230872286165174
1728063134857757400,3.25175732421875,0.09711374342441559,-0.05134022980928421,-0.0840459018945694,-0.4483928382396698,0.33462920784950256,-0.8288348317146301,0.026349931955337524,0.0026358067989349365,-0.03839844465255737,0.9300406231969759,-0.1156562625171173,-0.26871214155799966,0.2223553466468808
1728063134867787300,3.261787353515625,0.02656594291329384,-0.1308109313249588,-0.0723482295870781,-0.4494907557964325,0.33389392495155334,-0.8285366296768188,0.02369418740272522,-0.024247288703918457,-0.027161002159118652,0.9300201311962231,-0.11522515214843969,-0.2691743647073954,0.22210602341351868
1728063134877818400,3.271818359375,0.016683217138051987,-0.17922267317771912,-0.041426267474889755,-0.45145559310913086,0.3343106806278229,-0.8272994160652161,0.021859586238861084,-0.03322422504425049,0.024320900440216064,0.9297181033495326,-0.11525291718850203,-0.2703092119854428,0.22197767317359016
1728063134887848400,3.281848388671875,0.028150524944067,-0.09253799915313721,-0.014380799606442451,-0.45269548892974854,0.33381837606430054,-0.8268204927444458,0.00741344690322876,-0.021776139736175537,0.0315781831741333,0.9295982131450344,-0.1148693560091054,-0.2709147426772629,0.2219400907517875
1728063134897879300,3.29187939453125,0.026487912982702255,0.01881835237145424,0.06679394841194153,-0.45339757204055786,0.3333357274532318,-0.8266305327415466,-0.043276071548461914,-0.0054243505001068115,0.01634305715560913,0.9295296630826372,-0.11451960489345392,-0.271237913812909,0.22201355527560776
1728063134907909400,3.301909423828125,0.04347648099064827,0.08581054210662842,0.12195200473070145,-0.4532639980316162,0.33403682708740234,-0.8264207243919373,-0.06773215532302856,0.016121864318847656,0.00041669607162475586,0.9293647169309658,-0.11476302532137364,-0.2713283823385896,0.22246735123555886
1728063134917939200,3.311939208984375,0.018649695441126823,0.07520956546068192,0.05339878052473068,-0.4524341821670532,0.3352205157279968,-0.826396107673645,-0.025669485330581665,0.02514633536338806,-0.040180981159210205,0.929237111911859,-0.11531946760284578,-0.27111501954789197,0.2229722333861101
1728063134927970300,3.32197021484375,-0.00105949304997921,0.021392028778791428,-0.025971941649913788,-0.4515818655490875,0.3357733190059662,-0.8266378045082092,0.02209267020225525,0.016964107751846313,-0.026236891746520996,0.9292693340855216,-0.11566172526580368,-0.2707461004429654,0.22310854879208963
1728063134938000100,3.332000244140625,0.0057608624920248985,-0.009945119731128216,-0.048290032893419266,-0.45087340474128723,0.33547547459602356,-0.8271453380584717,0.036063164472579956,0.01070067286491394,-0.00839543342590332,0.9294276009104532,-0.11561604623798186,-0.27029663873057735,0.22301791445784036
1728063134948031200,3.34203125,0.02102690003812313,-0.0015279860235750675,-0.04475069046020508,-0.4505595564842224,0.3345940411090851,-0.8276732563972473,0.030973315238952637,0.006394118070602417,-0.025766074657440186,0.9296143955195026,-0.1152528573942717,-0.2699632634485793,0.2228314480627264
1728063134958061300,3.352061279296875,0.014515205286443233,0.08003558218479156,-0.03153128921985626,-0.4503403306007385,0.333720326423645,-0.8281451463699341,-0.009025543928146362,-0.005808919668197632,-0.027232050895690918,0.9297925417019951,-0.1148907943050798,-0.26968043796537444,0.22261737871320955
1728063134968092200,3.362092041015625,-0.0960056483745575,0.12381374090909958,-0.008548210375010967,-0.4497129023075104,0.33377066254615784,-0.8284657597541809,-0.0510653555393219,-0.01870715618133545,0.008824646472930908,0.9299367701884295,-0.11505860296519628,-0.269311427202046,0.22237490211886485
1728063134978122200,3.372122314453125,-0.16621935367584229,0.025097552686929703,-0.04278634488582611,-0.44983306527137756,0.3346823751926422,-0.8280326128005981,-0.04871740937232971,-0.029918581247329712,0.08145058155059814,0.9299190377152836,-0.11563343480794804,-0.2694672747416727,0.221961869789238
1728063134988153300,3.3821533203125,-0.30819201469421387,-0.023084731772542,-0.11061572283506393,-0.4509505331516266,0.336172878742218,-0.8268200755119324,-0.0145646333694458,-0.04401284456253052,0.06410956382751465,0.9297765926502994,-0.11649721004515722,-0.2702191105106976,0.2211910661300237
1728063134998183200,3.39218310546875,-0.3781798779964447,-0.13499608635902405,-0.0932718887925148,-0.4518513083457947,0.33893442153930664,-0.8251993060112,-0.0024944543838500977,-0.03635263442993164,0.02078646421432495,0.9295625169093816,-0.11808966960471759,-0.271026157463407,0.22025727559198324
1728063135008214300,3.40221435546875,-0.16256976127624512,-0.2011040598154068,-0.19644619524478912,-0.4534017741680145,0.34060049057006836,-0.8236613869667053,-0.014249652624130249,0.03183603286743164,0.013969063758850098,0.9293487328169718,-0.11902146907551238,-0.2720352606276652,0.21941198499956271
1728063135018244400,3.412244384765625,-0.03513377532362938,-0.11580193787813187,-0.23232537508010864,-0.45494890213012695,0.34053146839141846,-0.8228364586830139,-0.05442005395889282,0.06458938121795654,-0.06861251592636108,0.9293634748728514,-0.11910742543912065,-0.2727548397191673,0.21840728157596162
1728063135028275200,3.422275146484375,0.11930759996175766,-0.04816856607794762,-0.23477548360824585,-0.4560255706310272,0.33902278542518616,-0.8228634595870972,-0.15083178877830505,0.09589850902557373,-0.024914860725402832,0.929586485329303,-0.11847901319540831,-0.2730036397810006,0.21748758233748833
1728063135038305300,3.43230517578125,0.07879079878330231,-0.058145832270383835,-0.26467373967170715,-0.45721063017845154,0.33690953254699707,-0.8230737447738647,-0.17529675364494324,0.09361723065376282,0.009917676448822021,0.9298780434785113,-0.11755287089724156,-0.2732113394336182,0.21648050075796307
1728063135048336400,3.44233642578125,-0.004825269337743521,-0.19501729309558868,-0.3222033381462097,-0.4593994617462158,0.33509916067123413,-0.8225938677787781,-0.16192319989204407,0.06108003854751587,0.0045244693756103516,0.9300432991314147,-0.11675024441719309,-0.27399351491403584,0.21521236557017415
1728063135058366200,3.4523662109375,-0.17490725219249725,-0.3067134618759155,-0.4043589234352112,-0.46301501989364624,0.3341062068939209,-0.8209690451622009,-0.13503801822662354,0.013641595840454102,0.0623631477355957,0.930002135995992,-0.116348692322948,-0.27564188293215675,0.21349647684371834
1728063135068397300,3.462397216796875,-0.2088569551706314,-0.3401452302932739,-0.41479426622390747,-0.4671713411808014,0.3337467312812805,-0.8187576532363892,-0.13216343522071838,-0.007803738117218018,0.019975364208221436,0.9298743390470146,-0.11631964289673158,-0.27765248362399647,0.21145396808765818
1728063135078427400,3.472427490234375,-0.24098427593708038,-0.3585074841976166,-0.472136914730072,-0.4715521037578583,0.33343276381492615,-0.8163707852363586,-0.150380939245224,0.0031608641147613525,0.029688656330108643,0.9297191521584572,-0.11633168991859345,-0.2797883943604857,0.2093031037192576
1728063135088458200,3.482458251953125,-0.19973969459533691,-0.3308054208755493,-0.526671290397644,-0.476026713848114,0.332896888256073,-0.8139891028404236,-0.15605342388153076,0.016285240650177002,0.01448965072631836,0.9296306484175435,-0.11632437335249146,-0.28191146994786975,0.2068370682523333
1728063135098488300,3.49248828125,-0.08895646035671234,-0.3603622317314148,-0.5738688707351685,-0.4807211458683014,0.33142197132110596,-0.8118292689323425,-0.17206516861915588,0.06606948375701904,0.01756352186203003,0.9296149943456593,-0.11584565579288822,-0.28401612584103997,0.2042811200176065
1728063135108519400,3.50251953125,-0.017775822430849075,-0.3150296211242676,-0.6391879320144653,-0.48551690578460693,0.3288906514644623,-0.8100026845932007,-0.16743725538253784,0.08768957853317261,0.030339598655700684,0.9297134266871091,-0.11486372919041603,-0.28601571433477085,0.20157972760800452
1728063135118549200,3.51254931640625,0.034225329756736755,-0.26449212431907654,-0.6702726483345032,-0.4900038242340088,0.3256426453590393,-0.8086118698120117,-0.173326313495636,0.1026105284690857,0.01636028289794922,0.9299624411635801,-0.11361139965077245,-0.28772647659178613,0.19868519309703864
1728063135128580400,3.522580322265625,0.07210306823253632,-0.2928701937198639,-0.6880173087120056,-0.49445968866348267,0.3217889666557312,-0.8074413537979126,-0.1785292625427246,0.0954931378364563,0.0516277551651001,0.930266931829722,-0.11206528188038144,-0.28934531145842807,0.19576561417562408
1728063135138610400,3.5326103515625,-0.024242643266916275,-0.33180320262908936,-0.7241055369377136,-0.4992651343345642,0.3180144131183624,-0.8059784173965454,-0.16749823093414307,0.05422374606132507,0.02816164493560791,0.9305160985863417,-0.1105852343292363,-0.29117297649630175,0.19268913556255482
1728063135148641300,3.542641357421875,-0.07768196612596512,-0.4252203404903412,-0.7604566216468811,-0.5046314001083374,0.31474900245666504,-0.8039155602455139,-0.16509217023849487,0.03351759910583496,-0.03879678249359131,0.9306469485783672,-0.10941046818246826,-0.2933795553940656,0.1893519342150463
1728063135158671400,3.55267138671875,-0.13931816816329956,-0.4419151544570923,-0.8313190340995789,-0.5107399821281433,0.31143254041671753,-0.8013454079627991,-0.16943585872650146,0.02232295274734497,-0.021133780479431152,0.9306859770209577,-0.10824413364688247,-0.2959907091342235,0.18573209500335083
1728063135168702500,3.562702392578125,-0.3245011270046234,-0.35346171259880066,-0.8240547180175781,-0.5165188908576965,0.3090658485889435,-0.7985528111457825,-0.17911410331726074,0.01736542582511902,-0.03347843885421753,0.9307307929098786,-0.10775494926757026,-0.2985171178161453,0.18170508700105473
1728063135178732300,3.572732177734375,-0.24243822693824768,-0.3520379960536957,-0.8275088667869568,-0.521835446357727,0.3071659505367279,-0.7958246469497681,-0.19607532024383545,0.06047928333282471,0.020800292491912842,0.9307844460539203,-0.10758914094546246,-0.3008525405174028,0.1776307888585017
1728063135188763400,3.582763427734375,-0.2543315589427948,-0.3599477708339691,-0.9495695233345032,-0.527428388595581,0.30435633659362793,-0.7932128310203552,-0.16367274522781372,0.06977394223213196,0.037521302700042725,0.9308939907525395,-0.10701729982211983,-0.3032175561082467,0.17332901401451115
1728063135198793500,3.59279345703125,-0.16707655787467957,-0.39932018518447876,-1.0191030502319336,-0.5334715843200684,0.3008972406387329,-0.7904865145683289,-0.15399795770645142,0.07141721248626709,-0.020624876022338867,0.9310391098418184,-0.10624468954710833,-0.30572667585801994,0.1685514085438932
1728063135208824300,3.60282421875,0.01585530862212181,-0.3557455837726593,-1.015197992324829,-0.5395835041999817,0.2959562838077545,-0.7882001996040344,-0.17139983177185059,0.09666761755943298,0.023155033588409424,0.9312563264134492,-0.1046726840542648,-0.30812909276462375,0.1638957537255011
1728063135218854100,3.612854248046875,0.0882171243429184,-0.2620545029640198,-1.0670124292373657,-0.5450988411903381,0.28984954953193665,-0.7866730690002441,-0.17525333166122437,0.06072109937667847,-0.013543546199798584,0.9316449280027186,-0.10254049340413121,-0.3100788887111285,0.15929315204249742
1728063135228885500,3.622885498046875,0.047132138162851334,-0.18684469163417816,-1.1174660921096802,-0.5499864816665649,0.28321102261543274,-0.7856885194778442,-0.19815200567245483,0.02817508578300476,-0.07139766216278076,0.9322028924784574,-0.10029023948803135,-0.3116048832706235,0.15440921027499965
1728063135238915300,3.632915283203125,-0.17363911867141724,-0.3268457353115082,-1.1409080028533936,-0.5551071763038635,0.27739953994750977,-0.7841591238975525,-0.19542688131332397,0.020635098218917847,-0.017461299896240234,0.9326502594511615,-0.09860519069325717,-0.31336473872221243,0.1491412693662543
1728063135248946200,3.6429462890625,-0.26627543568611145,-0.5105981230735779,-1.112534999847412,-0.5616061687469482,0.27284038066864014,-0.7811252474784851,-0.15628939867019653,0.03926289081573486,-0.0013607144355773926,0.9326931968208185,-0.09756801057751918,-0.3160978691461723,0.14368703807112002
1728063135258976300,3.652976318359375,-0.2670714557170868,-0.5020251274108887,-1.0508971214294434,-0.5686389207839966,0.2687948942184448,-0.777431070804596,-0.1441296935081482,0.06976711750030518,-0.03212392330169678,0.9324952737213251,-0.09672517800494589,-0.31926274417241485,0.1384492259053856
1728063135269007000,3.663007080078125,-0.2906995415687561,-0.41182029247283936,-1.065708875656128,-0.5750586986541748,0.2649170160293579,-0.7740326523780823,-0.14352351427078247,0.05843198299407959,-0.006423890590667725,0.9323360127301344,-0.09601997841565336,-0.322123960586941,0.13328913396489545
1728063135279037200,3.673037109375,-0.2318785935640335,-0.42036741971969604,-1.1534485816955566,-0.5811648964881897,0.260551393032074,-0.7709476947784424,-0.13476228713989258,0.032417356967926025,0.014584779739379883,0.932267577328074,-0.09519722185533956,-0.3247516671451487,0.1278712656787925
1728063135289067300,3.6830673828125,-0.19992418587207794,-0.5050197839736938,-1.240195393562317,-0.5878851413726807,0.25506076216697693,-0.7676815986633301,-0.12228947877883911,0.014623075723648071,0.038174211978912354,0.9321609353192922,-0.09388377040562067,-0.3276355053886123,0.12213450169470777
1728063135299098400,3.693098388671875,-0.20281212031841278,-0.5738782286643982,-1.2271974086761475,-0.5952466726303101,0.24933567643165588,-0.7638803124427795,-0.13055294752120972,0.015923112630844116,0.029947876930236816,0.9318950165551094,-0.0925019954913304,-0.33091269504041454,0.1162411927767767
1728063135309128200,3.703128173828125,-0.10540394484996796,-0.382967472076416,-1.1598942279815674,-0.6021016836166382,0.24324455857276917,-0.7604641914367676,-0.1614481806755066,0.061565011739730835,-0.024905681610107422,0.9316626639319083,-0.09089456351254965,-0.3339252633775492,0.11062117742993378
1728063135319159300,3.7131591796875,-0.19888277351856232,-0.23933842778205872,-1.0848891735076904,-0.6070407032966614,0.23764093220233917,-0.7583062648773193,-0.1417996883392334,0.06115667521953583,0.04900151491165161,0.9317058562716776,-0.08958647035973231,-0.33588855189361316,0.105249872861277
1728063135329188600,3.723188720703125,-0.17151731252670288,-0.41179338097572327,-1.100898027420044,-0.6120487451553345,0.23237991333007812,-0.755907416343689,-0.1021847128868103,0.030986785888671875,0.042894721031188965,0.9316412929465966,-0.08844130181276916,-0.33797106516628717,0.09999196348280574
1728063135339219500,3.733219482421875,-0.16841553151607513,-0.6610043048858643,-1.1906609535217285,-0.6188341379165649,0.22652332484722137,-0.7521513104438782,-0.09652853012084961,0.02167612314224243,-0.14971941709518433,0.9311976489938257,-0.08698119252917041,-0.34111379124153,0.09458715522169657
1728063135349249300,3.743249267578125,-0.21788939833641052,-0.7064478993415833,-1.2340121269226074,-0.6269623041152954,0.22031572461128235,-0.7472478151321411,-0.10021060705184937,0.025350764393806458,-0.1870020031929016,0.9304442157303064,-0.08543386502525364,-0.34507555061025635,0.0888687119893662
1728063135359280600,3.75328076171875,-0.2312030792236328,-0.5509384274482727,-1.2147520780563354,-0.6344947814941406,0.21422746777534485,-0.7426459789276123,-0.11013418436050415,0.05827924609184265,-0.060637712478637695,0.9297507039202179,-0.0840811467363079,-0.34872250112273984,0.08298641478368055
1728063135369310500,3.763310546875,-0.1857699602842331,-0.3829162120819092,-1.1529122591018677,-0.6405972838401794,0.20804622769355774,-0.7391563057899475,-0.10923492908477783,0.07035036385059357,0.02280193567276001,0.9293053201638773,-0.08270812702855075,-0.35154121415503253,0.0772655207005548
1728063135379341300,3.77334130859375,-0.14929796755313873,-0.37633392214775085,-1.0665022134780884,-0.6458625793457031,0.2020539939403534,-0.7362308502197266,-0.07658010721206665,0.04916669428348541,0.05465126037597656,0.9289483291197517,-0.08135751171861928,-0.3539287164609887,0.07190734480228729
1728063135389371400,3.783371337890625,-0.05571621283888817,-0.37190473079681396,-1.0090283155441284,-0.6509552001953125,0.19591888785362244,-0.7333983182907104,-0.0382232666015625,0.04239286482334137,0.051330506801605225,0.9285507446430694,-0.07977878317968162,-0.35628103738572076,0.06702796659368884
1728063135399402500,3.793402587890625,-0.0036247828975319862,-0.4093703329563141,-1.0597302913665771,-0.6559097170829773,0.18927405774593353,-0.7307241559028625,-0.04904639720916748,0.03164267539978027,-0.043689846992492676,0.9281591653373159,-0.07788972794536753,-0.3585681256133503,0.06231163317568486
1728063135409432300,3.803432373046875,0.1093807965517044,-0.43753719329833984,-1.1343238353729248,-0.6613809466362,0.18147625029087067,-0.7277648448944092,-0.10853183269500732,0.030590400099754333,-0.2512848377227783,0.9276780462217398,-0.0754625955078577,-0.36114122144422167,0.05741003256980203
1728063135419463400,3.81346337890625,0.07228749245405197,-0.28669601678848267,-1.0808582305908203,-0.6661534905433655,0.17315912246704102,-0.7254346609115601,-0.1289362907409668,0.04423283040523529,-0.24835067987442017,0.9273398807164785,-0.07278881378249717,-0.3632966329932118,0.05251794953309707
1728063135429493500,3.823493408203125,-0.09821607172489166,-0.3029405474662781,-0.99710613489151,-0.670092761516571,0.16624586284160614,-0.7234210968017578,-0.09333503246307373,0.03980882465839386,-0.11144828796386719,0.9270532362639354,-0.07084849990181559,-0.365061577880166,0.04777988205229135
1728063135439524400,3.8335244140625,-0.3436063826084137,-0.2532084286212921,-0.9538966417312622,-0.6737850308418274,0.1612282544374466,-0.7211235761642456,-0.07729840278625488,0.045619890093803406,-0.1236182451248169,0.9266701340454977,-0.06999503488139759,-0.36679546829568405,0.0429444179087873
1728063135449554400,3.843554443359375,-0.4988015592098236,-0.27139872312545776,-0.9599958062171936,-0.6771743297576904,0.15790534019470215,-0.7186800241470337,-0.08765727281570435,0.04883597791194916,-0.02069985866546631,0.9262351471171665,-0.07020637895672821,-0.3684169717652397,0.03779699797073049
1728063135459585500,3.85358544921875,-0.23088623583316803,-0.14602135121822357,-0.9298581480979919,-0.6803673505783081,0.15422238409519196,-0.7164605855941772,-0.11005324125289917,0.04646117985248566,0.05624336004257202,0.9258283833643344,-0.07020591153364844,-0.3699200328946734,0.032743741732336226
1728063135469615400,3.863615478515625,-0.1300998330116272,0.14264100790023804,-0.807243824005127,-0.6816365718841553,0.14934518933296204,-0.71628737449646,-0.09604287147521973,0.032417476177215576,0.10073262453079224,0.9259244310013037,-0.0692836592725559,-0.37021086788733215,0.0284193750669586
1728063135479646500,3.873646484375,-0.014262979850172997,0.08024341613054276,-0.7743958234786987,-0.681918203830719,0.14466288685798645,-0.71697998046875,-0.09127521514892578,0.03064534068107605,0.065521240234375,0.9262218819513978,-0.06828410123915342,-0.36992875823228644,0.02455935624420246
1728063135489676500,3.883676513671875,0.22527503967285156,-0.009535792283713818,-0.8420324325561523,-0.6828135251998901,0.13823896646499634,-0.7173951864242554,-0.13459986448287964,0.07733720541000366,-0.20942366123199463,0.9264211722016705,-0.06621508916884765,-0.37002428914800106,0.02101597162214138
1728063135499707400,3.893707275390625,0.03390827775001526,-0.21302953362464905,-0.8749120831489563,-0.6847549080848694,0.1312435120344162,-0.7168583869934082,-0.10922098159790039,0.0600559264421463,-0.2823786735534668,0.9263529002337682,-0.06390939373948164,-0.3707915801337125,0.017311884401735027
1728063135509737500,3.903737548828125,-0.05255856737494469,-0.25366851687431335,-0.830110490322113,-0.6877341866493225,0.12555931508541107,-0.7150221467018127,-0.07760095596313477,0.06873083114624023,-0.21213233470916748,0.9259229016613651,-0.06243763654262049,-0.3722774139089903,0.013342796879561747
1728063135519768600,3.9137685546875,-0.15366467833518982,-0.14898791909217834,-0.6814941167831421,-0.6900290846824646,0.12077751755714417,-0.7136334776878357,-0.035709500312805176,0.07534368336200714,-0.1012316346168518,0.9255926926937995,-0.061310903574621226,-0.3733955618669306,0.00974792791957243
1728063135529798400,3.92379833984375,-0.45087456703186035,-0.26058229804039,-0.5846882462501526,-0.6922230124473572,0.11878495663404465,-0.7118409872055054,0.017967581748962402,0.004078797996044159,-0.0008665323257446289,0.9251383777936142,-0.061647978851346395,-0.37453844647592754,0.0062999294704207
1728063135539829500,3.93382958984375,-0.20864199101924896,-0.24713680148124695,-0.6155018210411072,-0.6948323249816895,0.11715817451477051,-0.709564745426178,-0.010001718997955322,0.009611830115318298,-0.034423232078552246,0.9245398546281535,-0.06216283149044812,-0.37596995516752085,0.0029445730955823756
1728063135549859600,3.943859619140625,-0.11823824048042297,-0.13007009029388428,-0.6262255311012268,-0.6969444155693054,0.11370950192213058,-0.7080526947975159,-0.047028422355651855,0.0030507370829582214,0.016280293464660645,0.9241355114677455,-0.061581920356214966,-0.37706936707945377,-0.00014663054332696957
1728063135559890400,3.953890380859375,-0.13979308307170868,0.08198544383049011,-0.5179925560951233,-0.6978169083595276,0.11074475944042206,-0.7076632380485535,-0.08440971374511719,0.016788184642791748,0.05176419019699097,0.924024855851669,-0.061201537644376816,-0.37738940212662747,-0.0031250494088798835
1728063135569920500,3.96392041015625,0.18646679818630219,0.24798624217510223,-0.40597254037857056,-0.6970449090003967,0.10736878216266632,-0.7089431285858154,-0.09423011541366577,0.11278500407934189,0.1185348629951477,0.9243614666604514,-0.06021508578340361,-0.3766995875552518,-0.005245861192281782
1728063135579951600,3.97395166015625,0.1810278296470642,0.3234809935092926,-0.4369216859340668,-0.6954622864723206,0.10296720266342163,-0.7111470103263855,-0.05736064910888672,0.10027984529733658,0.03976035118103027,0.9249465198457624,-0.058458549513979066,-0.3755117934694691,-0.00689041226618867
1728063135589981400,3.9839814453125,0.12506528198719025,0.2762041389942169,-0.47216835618019104,-0.6936498880386353,0.09873855113983154,-0.7135128974914551,-0.05326789617538452,0.06933699548244476,-0.13786649703979492,0.925569429502148,-0.056907592302166556,-0.37417252395865747,-0.008826551570488094
1728063135600012500,3.994012451171875,0.05649181827902794,-0.036070678383111954,-0.4439239203929901,-0.6932271122932434,0.09477370232343674,-0.7144607901573181,-0.023722410202026367,0.06330733746290207,-0.21522670984268188,0.9258042781159539,-0.05554968334332038,-0.3737430270221505,-0.010812998357789556
1728063135610042600,4.004042724609375,-0.147078275680542,-0.3077069818973541,-0.35932356119155884,-0.6949702501296997,0.09235408157110214,-0.7130828499794006,0.06665903329849243,0.03943605720996857,-0.31212466955184937,0.9254076426096578,-0.05505602299300636,-0.3747364622202273,-0.012734875827773402
1728063135620072400,4.014072509765625,-0.24608661234378815,-0.23260796070098877,-0.28582963347435,-0.6973244547843933,0.0915461853146553,-0.7108852863311768,0.1396004557609558,0.060980647802352905,-0.18625515699386597,0.9247874622078551,-0.05540171634683851,-0.3761489167952825,-0.014520104981164728
1728063135630103300,4.024103271484375,-0.2143278867006302,-0.11512847989797592,-0.19610744714736938,-0.6987329721450806,0.09154535830020905,-0.7095010876655579,0.12130981683731079,0.05675479769706726,-0.03300684690475464,0.9243877671045166,-0.056066250345052436,-0.37696955189431114,-0.016060390740978765
1728063135640133400,4.03413330078125,-0.054269518703222275,-0.10924609005451202,-0.09697581082582474,-0.6996888518333435,0.09145241975784302,-0.7085704207420349,0.053952038288116455,0.01970784366130829,-0.029787063598632812,0.9241202029921649,-0.05640353209957649,-0.37753599596121784,-0.016945227023965552
1728063135650164500,4.04416455078125,0.06524968892335892,0.05832789093255997,-0.05167198181152344,-0.6999871730804443,0.09086167812347412,-0.7083516716957092,0.029042959213256836,0.02200755476951599,0.02608555555343628,0.9240551655844169,-0.05622051816300786,-0.3777080981631708,-0.017262059349960585
1728063135660194300,4.0541943359375,0.1575133055448532,0.18204796314239502,0.011702733114361763,-0.6991080641746521,0.0899040699005127,-0.7093414068222046,0.012752413749694824,0.05786202847957611,0.10367429256439209,0.924324277343698,-0.05564538318518331,-0.3771377551446176,-0.017188264005597243
1728063135670225400,4.064225341796875,0.21138566732406616,0.1707712858915329,0.03495984897017479,-0.6977663636207581,0.08879335969686508,-0.7108008861541748,-0.01980876922607422,0.08799494802951813,0.027344465255737305,0.9247265763458737,-0.05483616256407205,-0.3762878548575034,-0.01677379523554183
