time,seconds_elapsed,rotationRateX,rotationRateY,rotationRateZ,gravityX,gravityY,gravityZ,accelerationX,accelerationY,accelerationZ,quaternionW,quaternionX,quaternionY,quaternionZ
1728331564545673500,0.201673583984375,0.02609114721417427,-0.06632590293884277,0.07322599738836288,0.09697475284337997,-0.15448524057865143,-0.9832243919372559,0.00561012327671051,0.027959316968917847,0.008935511112213135,0.9957972430704839,0.07756862159722411,0.048692016740439374,1.297152541997891e-17
1728331564555704300,0.211704345703125,0.03595929220318794,-0.08075527846813202,0.08037259429693222,0.09536656737327576,-0.15536311268806458,-0.9832433462142944,-0.007582716643810272,-0.0051746666431427,-0.000856935977935791,0.9958019921059927,0.07799034542529813,0.047914722887178685,0.0003884315486391844
1728331564565735700,0.221735595703125,0.019182907417416573,-0.05285302549600601,0.09463941305875778,0.09309975057840347,-0.15683194994926453,-0.9832274317741394,0.0009707212448120117,0.007936626672744751,-0.0021699070930480957,0.9957976511503704,0.07870552221476718,0.0468158770301252,0.0008800460815959584
1728331564575766500,0.2317666015625,-0.001782295061275363,-0.03524766489863396,0.09605887532234192,0.09142237901687622,-0.15766167640686035,-0.9832521080970764,-0.00023581832647323608,0.019294947385787964,0.007177948951721191,0.9958031450994862,0.07909799366116917,0.04601571127799821,0.001408400850049894
1728331564585797600,0.241797607421875,-0.058314014226198196,-0.05677921324968338,0.08918952196836472,0.0905153676867485,-0.15716199576854706,-0.9834160208702087,-0.007202349603176117,-0.0072515010833740234,0.010942935943603516,0.995843609328218,0.07882362132161407,0.04559413640932479,0.0018642193700452604
1728331564595829500,0.25182958984375,-0.1261817365884781,-0.04655134677886963,0.07050744444131851,0.089737169444561,-0.15558139979839325,-0.9837386012077332,-0.00071735680103302,-0.015393391251564026,0.01479029655456543,0.9959238173499939,0.07800636778984364,0.045229387452911635,0.0022618484622035613
1728331564605860400,0.2618603515625,-0.1840522289276123,-0.028362330049276352,0.0401759073138237,0.08954931795597076,-0.1527976244688034,-0.9841919541358948,0.0029647573828697205,-0.00969327986240387,0.025100767612457275,0.9960370214412573,0.07658860736664377,0.045146495921189855,0.0025189379612539833
1728331564615891500,0.271891357421875,-0.19158604741096497,-0.01871849223971367,0.021741772070527077,0.09004499018192291,-0.1490657925605774,-0.984718918800354,-0.011691071093082428,-0.024960756301879883,0.035515427589416504,0.9961689654660175,0.07469968842499812,0.045392860233888756,0.0026300360636938125
1728331564625922600,0.281922607421875,-0.1614210307598114,0.009575624950230122,0.018662890419363976,0.09051810950040817,-0.1465419977903366,-0.9850542545318604,-0.022875860333442688,-0.037173882126808167,0.03563714027404785,0.9962528288332418,0.07342123156146048,0.04563098898157682,0.0027369132387372827
1728331564635953400,0.291953369140625,-0.1349547952413559,0.006158256437629461,0.0012902929447591305,0.09050405025482178,-0.1456235647201538,-0.9851917624473572,-0.024753890931606293,-0.024420425295829773,0.015633046627044678,0.9962870481899699,0.07295337106391347,0.04562815153025782,0.002833462673245915
1728331564645984500,0.301984619140625,-0.08022011071443558,0.00893460214138031,0.011072082445025444,0.09069844335317612,-0.1447029858827591,-0.9853095412254333,-0.022430583834648132,-0.0037955939769744873,0.01759713888168335,0.9963164764964941,0.07248629762496671,0.04572722369260785,0.0028910856125866752
1728331564656015400,0.312015380859375,-0.032005712389945984,0.01748148538172245,0.017924662679433823,0.09087680280208588,-0.14400140941143036,-0.9853958487510681,-0.014277651906013489,0.0029643774032592773,0.01571512222290039,0.9963379232207714,0.07212888104721638,0.04582022870550862,0.0029673370477401955
1728331564666046500,0.32204638671875,-0.025494016706943512,0.04716411978006363,0.03333371505141258,0.09084693342447281,-0.14458538591861725,-0.9853131175041199,-0.011608004570007324,0.000923842191696167,-0.011101067066192627,0.9963165049867035,0.07241547528970539,0.04581976462194441,0.003141896569505347
1728331564676077300,0.332077392578125,0.04649548977613449,0.05594030022621155,0.040386565029621124,0.09135019034147263,-0.14574803411960602,-0.9850952625274658,-0.02212102711200714,0.011028125882148743,-0.01981806755065918,0.9962611353775193,0.0729919373007943,0.046092867789911125,0.0033625300674989898
1728331564686108400,0.3421083984375,0.0895354300737381,-0.022044938057661057,0.07058920711278915,0.09156329184770584,-0.14728456735610962,-0.9848468899726868,-0.04156021028757095,0.007559791207313538,-0.014161229133605957,0.9961979562999775,0.07375477845898251,0.04622532887670851,0.003632740854559468
1728331564696139500,0.352139404296875,0.03487112373113632,-0.030572116374969482,0.10769928991794586,0.09075076878070831,-0.14918728172779083,-0.9846357107162476,-0.0028448477387428284,0.0012532621622085571,-0.01698172092437744,0.9961431586192805,0.07469386388994613,0.04585823054094066,0.004096445420418617
1728331564706170600,0.362170654296875,-0.029727110639214516,0.009579885751008987,0.09833081811666489,0.08980970084667206,-0.15073969960212708,-0.9844855070114136,0.042255155742168427,0.019910797476768494,-0.0011101365089416504,0.996102896971145,0.07545138995739112,0.04543480817036923,0.004677113508967366
1728331564716201500,0.372201416015625,-0.0883086621761322,0.008638458326458931,0.05727526918053627,0.08902871608734131,-0.15095217525959015,-0.9845238924026489,0.004889160394668579,0.0012481510639190674,0.009685695171356201,0.9961102653476074,0.07553856545812011,0.04507737794385587,0.005132205192252628
1728331564726232600,0.382232666015625,-0.08596508204936981,-0.008733821101486683,0.036240555346012115,0.08830425888299942,-0.15011608600616455,-0.9847169518470764,-0.043214499950408936,-0.031448304653167725,0.014532685279846191,0.9961572189600181,0.07510484372464585,0.04473002848630552,0.0054059436513460065
1728331564736264400,0.392264404296875,-0.06252473592758179,0.02664467692375183,-0.00878204870969057,0.0880570337176323,-0.14919060468673706,-0.984879732131958,-0.047697506844997406,-0.023615211248397827,0.003281891345977783,0.9961976433642374,0.07463391400684496,0.04460833734855218,0.005496209459122892
1728331564746295600,0.402295654296875,-0.06917159259319305,0.02517855353653431,-0.033993128687143326,0.08809734880924225,-0.14834579825401306,-0.9850037693977356,-0.040154196321964264,-0.002624720335006714,-0.018871963024139404,0.9962292075341306,0.07421161913966157,0.04461795689259146,0.005403946088573747
1728331564756326400,0.412326416015625,-0.08941614627838135,0.029902467504143715,-0.032183509320020676,0.0878698006272316,-0.14711152017116547,-0.9852091670036316,-0.03025258332490921,0.009217798709869385,-0.014912843704223633,0.9962814753954041,0.07359448345415281,0.04448897444885392,0.005280828584599662
1728331564766357500,0.422357421875,-0.0712924599647522,0.03648015484213829,-0.028019659221172333,0.08722665905952454,-0.14601168036460876,-0.9854298830032349,0.0006640031933784485,0.01513698697090149,-0.005872547626495361,0.9963373727792262,0.07304433290906295,0.04415395146267019,0.0051872985965240904
1728331564776388400,0.432388427734375,-0.0709819346666336,0.03726924955844879,-0.015108920633792877,0.08760039508342743,-0.1453341394662857,-0.9854968786239624,0.009338729083538055,0.00386984646320343,-0.004142343997955322,0.996354484536588,0.07270569194624969,0.04433315432830907,0.005107421669685725
1728331564786419500,0.44241943359375,-0.09518581628799438,0.02788320556282997,-0.024782853201031685,0.08898034691810608,-0.1441173106431961,-0.9855519533157349,0.0062192752957344055,-0.0023060888051986694,0.0027639269828796387,0.9963689491279798,0.07209581279380932,0.04501339017437059,0.004990157084631468
1728331564796450300,0.4524501953125,-0.08671402931213379,0.026508482173085213,-0.03668052330613136,0.08941467106342316,-0.1433478593826294,-0.9856249094009399,-0.002149619162082672,-0.002770349383354187,0.02804434299468994,0.996387849206964,0.07171312238535592,0.04521932955484007,0.004861784983823754
1728331564806481400,0.4624814453125,-0.09309042990207672,0.026174522936344147,-0.019253065809607506,0.08874563872814178,-0.14344224333763123,-0.9856716394424438,-0.0012364462018013,-0.012441590428352356,0.010131478309631348,0.9963998943520657,0.07176385927064752,0.04487917741293779,0.004804462436533312
1728331564816512500,0.472512451171875,-0.09745676070451736,0.03147682547569275,-0.004082101862877607,0.0879817008972168,-0.14320428669452667,-0.9857746958732605,0.004974879324436188,-0.005080685019493103,0.011348426342010498,0.9964255282639253,0.07164298944183856,0.044496454204613796,0.004837219161824127
1728331564826543600,0.482543701171875,-0.06836391240358353,0.019131259992718697,0.01694461889564991,0.08734241873025894,-0.14249743521213531,-0.9859339594841003,0.002684466540813446,0.0001939237117767334,0.012957334518432617,0.9964650905693218,0.07128321816828807,0.04417828411512653,0.004922726638992396
1728331564836574500,0.492574462890625,-0.07549186795949936,0.031199906021356583,0.02000592276453972,0.08692096173763275,-0.14168919622898102,-0.9860876798629761,-0.003775782883167267,-0.0003396570682525635,-0.00551992654800415,0.9965029790850024,0.0708695312653556,0.04397349040485253,0.005068964128853633
1728331564846605600,0.50260546875,-0.11005191504955292,0.03471016883850098,0.019304979592561722,0.08724398910999298,-0.1404949277639389,-0.9862300157546997,-0.016122736036777496,0.004249155521392822,-0.006705105304718018,0.9965380756667171,0.070261932204313,0.0441389641011939,0.005182961516075053
1728331564856636400,0.512636474609375,-0.12344042211771011,0.01053478941321373,0.027763446792960167,0.08765940368175507,-0.13938398659229279,-0.9863508343696594,-0.007657527923583984,-0.000005111098289489746,-0.0009996294975280762,0.996567571879847,0.06969464175000313,0.04435367332706662,0.005333731239680609
1728331564866667500,0.52266748046875,-0.14215543866157532,0.0006056716665625572,0.032744355499744415,0.08789242058992386,-0.1383829116821289,-0.9864710569381714,0.010206371545791626,-0.00817781686782837,-0.00010120868682861328,0.9965967842523722,0.06918176924400392,0.04447884666294317,0.005511084869515868
1728331564876699400,0.532699462890625,-0.17179696261882782,0.016696223989129066,0.042792197316884995,0.08796234428882599,-0.13725383579730988,-0.9866225123405457,0.009816005825996399,-0.010268181562423706,0.00767970085144043,0.9966334036783903,0.06860206496536354,0.04452520267244542,0.005745185188879107
1728331564886730500,0.54273046875,-0.21137486398220062,0.030994843691587448,0.042798589915037155,0.08816476911306381,-0.1360495388507843,-0.9867712259292603,0.006210878491401672,-0.009443074464797974,0.01792973279953003,0.9966691223484856,0.06798176249215176,0.0446414035207921,0.00603581770768201
1728331564896761300,0.55276123046875,-0.25591278076171875,0.02221147157251835,0.0368482880294323,0.08853662014007568,-0.13423803448677063,-0.9869860410690308,0.010782875120639801,-0.0028011947870254517,0.02916133403778076,0.9967213868774896,0.06705701034430821,0.04483686251034848,0.0062864380592289534
1728331564906792400,0.56279248046875,-0.30532553791999817,0.009235433302819729,0.05479852482676506,0.08870498090982437,-0.1318528950214386,-0.9872923493385315,0.026422619819641113,-0.001402154564857483,0.03531181812286377,0.9967962954962168,0.06584195710046646,0.04492937114133257,0.006575434489671581
1728331564916823300,0.5728232421875,-0.3559540808200836,0.006807961966842413,0.0684240534901619,0.08853097259998322,-0.12897084653377533,-0.9876886010169983,0.04328973591327667,-0.004986107349395752,0.032457947731018066,0.9968930146275754,0.0643722909709368,0.044854241241223475,0.006981172153522102
1728331564926854400,0.5828544921875,-0.4195651710033417,0.002904246561229229,0.07987485080957413,0.08801569789648056,-0.12545464932918549,-0.9881874322891235,0.049420252442359924,-0.0008729249238967896,0.024381279945373535,0.9970145709686044,0.06258183302885208,0.04460725803523728,0.007450044247881457
1728331564936885200,0.59288525390625,-0.5015002489089966,-0.0055539533495903015,0.11597585678100586,0.08771191537380219,-0.12136637419462204,-0.9887248277664185,0.0556749626994133,-0.0035421177744865417,0.023011386394500732,0.9971447208805816,0.06049777946919872,0.04447015865044728,0.00805364951177515
1728331564946916600,0.60291650390625,-0.5931634902954102,0.001489735208451748,0.16875119507312775,0.08772823214530945,-0.11662159115076065,-0.9892942905426025,0.07609016448259354,-0.008485272526741028,0.02716660499572754,0.997280405944284,0.05807320279774133,0.04450129921764864,0.00888803698236965
1728331564956947500,0.612947509765625,-0.7077974081039429,-0.031094573438167572,0.2233356088399887,0.08753055334091187,-0.11075343936681747,-0.9899858832359314,0.09366759657859802,-0.016535423696041107,0.03458738327026367,0.9974429922540677,0.05507237379642953,0.044430677240262034,0.010019355460197043
1728331564966978600,0.622978515625,-0.7507748603820801,-0.06212758645415306,0.2544759511947632,0.08680097758769989,-0.10371696203947067,-0.9908120036125183,0.1031099483370781,-0.028408952057361603,0.05933922529220581,0.9976357118345031,0.051479449408743834,0.044089405019420415,0.01135744486824828
1728331564977009400,0.633009521484375,-0.8933013677597046,-0.04173603281378746,0.3236864507198334,0.0859961062669754,-0.09588244557380676,-0.9916709065437317,0.09684999287128448,-0.03799821436405182,0.050127387046813965,0.9978314975132963,0.04747825843054781,0.04370757797082151,0.012947923166412864
1728331564987040500,0.64304052734375,-1.1049541234970093,-0.09271229058504105,0.3989313840866089,0.08513635396957397,-0.08620426803827286,-0.9926331639289856,0.10567484050989151,-0.05510743707418442,0.059054672718048096,0.998044267139614,0.042537229081423926,0.04328967146971797,0.014971159709724978
1728331564997071600,0.653071533203125,-1.158981442451477,-0.2265411913394928,0.5126398801803589,0.08319339156150818,-0.07520618289709091,-0.9936915636062622,0.1352667212486267,-0.057514823973178864,0.06629288196563721,0.9982696113994816,0.036929582633308256,0.04231350011913511,0.01742733121423751
1728331565007103500,0.663103515625,-1.2877761125564575,-0.09347118437290192,1.0969139337539673,0.08056524395942688,-0.0639275312423706,-0.9946972131729126,0.1607067584991455,-0.05052870512008667,0.018684029579162598,0.9984471084537377,0.031140259562337617,0.04100836362511059,0.021260633634358463
1728331565017134300,0.67313427734375,-1.7229715585708618,-0.46097221970558167,1.2691456079483032,0.07692739367485046,-0.05002032220363617,-0.9957811832427979,0.3167341351509094,-0.0704021006822586,0.02542901039123535,0.9985631495148674,0.023962899734602815,0.03918154473213926,0.027607212678614185
1728331565027165400,0.68316552734375,-1.8166170120239258,-0.4861912429332733,0.924932599067688,0.07130914181470871,-0.03297765925526619,-0.996908962726593,0.3729963004589081,-0.12365387380123138,0.11957436800003052,0.9986609866999288,0.015291485113532238,0.03621725006618905,0.03362539768634292
1728331565037196300,0.6931962890625,-1.029430627822876,-0.24298258125782013,-0.30012789368629456,0.06800276786088943,-0.017894798889756203,-0.997524619102478,0.13962361216545105,-0.11713028699159622,0.03966939449310303,0.9987455366709234,0.007734218770435226,0.034320020628859874,0.03563177118906257
1728331565047226400,0.703226318359375,-0.9691937565803528,-0.558303952217102,-0.30124348402023315,0.06338340789079666,-0.008147571235895157,-0.9979559779167175,-0.026548661291599274,-0.10566779971122742,-0.1227867603302002,0.9989160835470683,0.0030002679225818213,0.03182770393765893,0.03383120488189507
1728331565057257500,0.713257568359375,-0.9266071915626526,-0.5655218958854675,0.6730942726135254,0.057901106774806976,0.0015209492994472384,-0.9983211755752563,0.2173827439546585,0.10437498986721039,-0.011734366416931152,0.9989733716461442,-0.0017693940068342733,0.028918621952821688,0.0348254086430394
1728331565067288300,0.723288330078125,-0.624305248260498,-0.5211071372032166,1.2741609811782837,0.05240149050951004,0.008711042813956738,-0.9985880851745605,0.38039883971214294,0.1967179775238037,-0.026802480220794678,0.9988429848427589,-0.0054045603466136415,0.026014200271726462,0.040085243589814544
1728331565077319400,0.7333193359375,-0.4715002775192261,-0.3896806538105011,1.0718398094177246,0.04802386835217476,0.01347598247230053,-0.9987552762031555,0.24207626283168793,0.12804922461509705,-0.14948385953903198,0.9986194499851477,-0.00784353318970607,0.02368205844457091,0.04622543903633105
1728331565087350300,0.743350341796875,-0.4388427734375,-0.18878114223480225,1.0298558473587036,0.04508301988244057,0.017509108409285545,-0.9988297820091248,0.04941469430923462,0.05330687016248703,-0.14992815256118774,0.9983958360254015,-0.009900263479477188,0.02207009278065468,0.051192703204781434
1728331565097381400,0.75338134765625,-0.5017796754837036,-0.5484945774078369,1.376517415046692,0.04246366396546364,0.02187557891011238,-0.9988585114479065,0.15199437737464905,0.008748747408390045,-0.125912606716156,0.998051220284939,-0.012147336825947453,0.020571675429518873,0.05764601851379509
1728331565107412500,0.76341259765625,-0.6223317980766296,-0.2531755268573761,1.4675215482711792,0.037895455956459045,0.026615604758262634,-0.9989271759986877,0.35524725914001465,-0.008228829130530357,-0.06343543529510498,0.9976623533118844,-0.014502666015693949,0.018057529058429046,0.06429238469934842
1728331565117443600,0.773443603515625,-0.7361467480659485,-0.6538741588592529,1.776847004890442,0.034079622477293015,0.03309756517410278,-0.9988709092140198,0.2609490752220154,-0.006471049040555954,-0.09162890911102295,0.9970642311345863,-0.017750543484119117,0.015794123136941448,0.07278967902955291
1728331565127474400,0.783474365234375,-0.6738478541374207,-0.8416738510131836,1.2413454055786133,0.02729250304400921,0.0395982563495636,-0.9988428950309753,0.4768121540546417,-0.01927361637353897,-0.04366809129714966,0.99645158023902,-0.020841611312185874,0.01200781414347991,0.0806581763233488
1728331565137506600,0.793506591796875,-0.7847703695297241,-0.9993039965629578,0.7830846905708313,0.018258387222886086,0.04662217199802399,-0.9987457394599915,0.25771209597587585,-0.11730094999074936,-0.12807005643844604,0.9960057466184538,-0.024015456323626044,0.00709930371077136,0.08570505913936818
1728331565147537400,0.803537353515625,-0.7978337407112122,-0.8771985769271851,0.8220224976539612,0.009256438352167606,0.05458453670144081,-0.9984662532806396,0.08376117050647736,-0.012638188898563385,-0.15340447425842285,0.9955770223709393,-0.027608224376461737,0.002159270375205366,0.08977393735741916
1728331565157568500,0.813568603515625,-0.5682207345962524,-0.8045669794082642,1.0624068975448608,0.0014206042978912592,0.061513110995292664,-0.9981052875518799,0.09826509654521942,0.09643054753541946,-0.21707415580749512,0.9950411856169853,-0.030700308965530273,-0.002204293131534274,0.09458095705405291
1728331565167599400,0.823599365234375,-0.2848722040653229,-0.7131664752960205,1.2339516878128052,-0.005411028396338224,0.06575930863618851,-0.9978208541870117,0.1543673574924469,0.13138417899608612,-0.3136873245239258,0.994389921867207,-0.03245868167362983,-0.006001069245866639,0.10049356327245748
1728331565177630500,0.83363037109375,-0.09182363748550415,-0.694981038570404,1.1852390766143799,-0.011522563174366951,0.06770263612270355,-0.997639000415802,0.1447318196296692,0.20877128839492798,-0.3307453989982605,0.9937001030942793,-0.033062493600778856,-0.009347135595484422,0.10667580218847271
1728331565187661300,0.843661376953125,0.08232579380273819,-0.7466257214546204,1.038182258605957,-0.017920969054102898,0.06791290640830994,-0.9975302815437317,0.12970688939094543,0.2512551248073578,-0.2920357584953308,0.9930493954709289,-0.03275435143054401,-0.012728247942818688,0.11232993688695006
1728331565197692400,0.8536923828125,0.17395024001598358,-0.8271703720092773,0.931504487991333,-0.02508535422384739,0.06673447787761688,-0.997455358505249,0.14503473043441772,0.22762274742126465,-0.24996590614318848,0.9924497456379711,-0.031683731311368764,-0.016384486927748184,0.11735052622084807
1728331565207723300,0.86372314453125,0.08537158370018005,-0.8855125308036804,0.8371556401252747,-0.03303246945142746,0.06559524685144424,-0.9972994327545166,0.14394864439964294,0.19294960796833038,-0.1906430721282959,0.9918629976449563,-0.03055882386478164,-0.020407147318514413,0.1218914415585521
1728331565217754400,0.87375439453125,-0.06626534461975098,-0.9324433207511902,0.7540079951286316,-0.04152670130133629,0.0657987892627716,-0.9969684481620789,0.10912316292524338,0.17649546265602112,-0.13706475496292114,0.9912684308368124,-0.030041884105270644,-0.024764282238048337,0.12598079140272575
1728331565227785500,0.883785400390625,-0.13510160148143768,-0.979913592338562,0.644281804561615,-0.050578437745571136,0.06716207414865494,-0.9964592456817627,0.06306016445159912,0.163291335105896,-0.11164921522140503,0.9906725768897773,-0.030043387104870888,-0.02945776275261521,0.1296051688820004
1728331565237816600,0.893816650390625,-0.20834067463874817,-0.9562194347381592,0.4616885185241699,-0.05983850732445717,0.06913328170776367,-0.9958112239837646,0.011529210954904556,0.16530266404151917,-0.12451958656311035,0.9901277653155144,-0.030325024141143624,-0.03427526868603992,0.1324860313441261
1728331565247847700,0.90384765625,-0.26519396901130676,-0.9411197304725647,0.28801900148391724,-0.06898476928472519,0.07180558890104294,-0.9950301647186279,-0.047393977642059326,0.2206442952156067,-0.1112472414970398,0.9896703379375633,-0.030972576575964108,-0.0390590557095092,0.13441576432013097
1728331565257878500,0.91387841796875,-0.15098588168621063,-0.9315496683120728,0.1958123743534088,-0.07808952778577805,0.07412786781787872,-0.9941866397857666,-0.08148685842752457,0.2829582393169403,-0.0638577938079834,0.9892822441076885,-0.03145984996156846,-0.04378305226246769,0.13569774521100575
1728331565267910400,0.923910400390625,-0.016201846301555634,-0.8865059018135071,0.11849681288003922,-0.08700182288885117,0.0750533938407898,-0.9933769106864929,-0.09680552780628204,0.32082056999206543,-0.07638627290725708,0.9889524657914395,-0.03127318080259487,-0.048306699655452846,0.1366065008095203
1728331565277941500,0.93394140625,0.10642633587121964,-0.8163763284683228,0.04450194537639618,-0.0953974649310112,0.07464617490768433,-0.992636501789093,-0.13439986109733582,0.3516995906829834,-0.04889792203903198,0.9886879184737672,-0.030470412484852407,-0.05247180890717782,0.13716618121050747
1728331565287972400,0.943972412109375,0.22337685525417328,-0.7262429594993591,-0.009483791887760162,-0.10296913236379623,0.0730309933423996,-0.9919999241828918,-0.17802143096923828,0.35293328762054443,-0.004368484020233154,0.9884924740678418,-0.029137139982712813,-0.0561343874598901,0.13741407464928623
1728331565298003500,0.95400341796875,0.2872181534767151,-0.6576356291770935,-0.06365808099508286,-0.10979123413562775,0.0703759491443634,-0.9914600849151611,-0.19918395578861237,0.31211602687835693,-0.013224363327026367,0.9883554689661035,-0.02735141095812996,-0.05934522041270832,0.13741726568947613
1728331565308034300,0.964034423828125,0.28825756907463074,-0.6479594111442566,-0.12612012028694153,-0.11620160937309265,0.06740919500589371,-0.9909355044364929,-0.20726943016052246,0.2529642581939697,-0.02856522798538208,0.9882629241585598,-0.025457123148659142,-0.062323186053287155,0.13712820297013334
1728331565318065400,0.9740654296875,0.2309306412935257,-0.6665682196617126,-0.2111561894416809,-0.12278938293457031,0.06456217914819717,-0.9903305172920227,-0.2074413001537323,0.19685131311416626,0.002110302448272705,0.9882013611491383,-0.023636137533273503,-0.06539177902794194,0.13646709598151374
1728331565328096500,0.984096435546875,0.10154921561479568,-0.6871630549430847,-0.31449511647224426,-0.12957261502742767,0.06256593763828278,-0.9895941019058228,-0.20836375653743744,0.16944387555122375,-0.005614638328552246,0.9881783467021588,-0.02226474543778839,-0.0686093412091315,0.13527938667024597
1728331565338127400,0.99412744140625,0.046019118279218674,-0.7070003747940063,-0.3489031493663788,-0.1366402804851532,0.061446841806173325,-0.9887131452560425,-0.20541594922542572,0.1624453067779541,0.022480905055999756,0.9881688606150085,-0.02134518058178905,-0.07202639951153632,0.13371177946087368
1728331565348158500,1.004158447265625,0.1253851056098938,-0.70582115650177,-0.3130761682987213,-0.14370843768119812,0.06022757291793823,-0.9877856373786926,-0.1833178997039795,0.1220538467168808,0.0406879186630249,0.9881397667783792,-0.020383167510057264,-0.07544331163428712,0.13218359327976525
1728331565358189600,1.014189453125,0.1509716957807541,-0.7084699273109436,-0.295841783285141,-0.15089111030101776,0.05827384814620018,-0.9868313074111938,-0.17068783938884735,0.06965576857328415,0.025100350379943848,0.9880815534317885,-0.019046214343069967,-0.07887703661393904,0.1308075352216389
1728331565368220700,1.024220703125,0.20753391087055206,-0.6166788339614868,-0.30179980397224426,-0.15751726925373077,0.05616282299160957,-0.985917866230011,-0.19523538649082184,0.07845014333724976,0.056779682636260986,0.9880282756845173,-0.01767382472914589,-0.08202865727165547,0.12945685840818433
1728331565378251500,1.03425146484375,0.33653104305267334,-0.5323610305786133,-0.2569369971752167,-0.1633196473121643,0.05302896350622177,-0.9851469993591309,-0.1976269781589508,0.10163405537605286,0.08138418197631836,0.9879945587258353,-0.015843421898579225,-0.0847082230470029,0.12821975947262018
1728331565388282600,1.04428271484375,0.3617318868637085,-0.44488221406936646,-0.2705177962779999,-0.16812865436077118,0.04905727505683899,-0.9845436215400696,-0.15764646232128143,0.09983792155981064,0.05387955904006958,0.9879812011529714,-0.01365127279732793,-0.08684372859117202,0.12714144002396707
1728331565398313500,1.0543134765625,0.40671825408935547,-0.4477911591529846,-0.3459811210632324,-0.17261308431625366,0.04481962323188782,-0.9839694499969482,-0.13213540613651276,0.08510889112949371,0.11899453401565552,0.988010964972514,-0.01137722510074917,-0.08880215410706095,0.12577384729136556
1728331565408345300,1.064345458984375,0.5084344744682312,-0.41780388355255127,-0.3491590619087219,-0.17699240148067474,0.03969542309641838,-0.9834113717079163,-0.12200354039669037,0.03159356862306595,0.19907909631729126,0.9880590735723733,-0.008684674694098083,-0.0906580478606428,0.1242773314191085
1728331565418376400,1.07437646484375,0.596243679523468,-0.30340513586997986,-0.32103264331817627,-0.18069089949131012,0.03360125049948692,-0.9829657673835754,-0.1064031720161438,-0.047669921070337296,0.2562965154647827,0.9881232498207535,-0.00554827723593165,-0.09212122725606346,0.12286248436554514
1728331565428407600,1.084407470703125,0.5670979619026184,-0.1494259089231491,-0.26231151819229126,-0.18294647336006165,0.02729523926973343,-0.9827439188957214,-0.11708705127239227,-0.0953342467546463,0.25962990522384644,0.988212428470165,-0.0023759742146468006,-0.09285692493492614,0.12168885376373599
1728331565438438400,1.0944384765625,0.5065755248069763,-0.002607963979244232,-0.24261558055877686,-0.183693528175354,0.021541854366660118,-0.982747495174408,-0.11356291174888611,-0.11137041449546814,0.28481048345565796,0.9883340159674386,0.00044484865887243043,-0.0928765640728464,0.1207041494754521
1728331565448469500,1.104469482421875,0.3986729681491852,0.07421043515205383,-0.2587500810623169,-0.18328925967216492,0.01655936799943447,-0.9829195737838745,-0.0985710471868515,-0.11192686855792999,0.22481709718704224,0.9885027056380896,0.0028071036393281703,-0.09237070459366307,0.119675534849977
1728331565458500400,1.114500244140625,0.25564390420913696,0.04802623763680458,-0.2026929259300232,-0.18258371949195862,0.012966320849955082,-0.9831048250198364,-0.070284903049469,-0.08126472681760788,0.15008175373077393,0.9886739780078174,0.004459109764012657,-0.09180257581126608,0.11864336014401368
1728331565468531500,1.124531494140625,0.2010500580072403,-0.04310106113553047,-0.07020120322704315,-0.1825743168592453,0.010496517643332481,-0.983135998249054,-0.018460184335708618,-0.0803970992565155,0.10525214672088623,0.9887512159466226,0.005635983996960072,-0.09165273857149206,0.11806351710181971
1728331565478562300,1.134562255859375,0.09514252096414566,-0.015090733766555786,-0.014065760187804699,-0.18287833034992218,0.008890782482922077,-0.9830953478813171,0.013780459761619568,-0.12678025662899017,0.07002466917037964,0.9887508013622177,0.006447141807419177,-0.09171019388399437,0.11798042640014489
1728331565488593700,1.14459375,-0.07757426053285599,0.03519560769200325,-0.09697768837213516,-0.18270346522331238,0.008768448606133461,-0.9831289649009705,-0.020543575286865234,-0.13294453918933868,0.03966277837753296,0.9887887350190864,0.0064747296397621714,-0.09161657819189704,0.11773375729394836
1728331565498624500,1.15462451171875,-0.06835253536701202,0.032826460897922516,-0.1706758737564087,-0.18231350183486938,0.009321235120296478,-0.9831962585449219,-0.06011810898780823,-0.09713563323020935,0.050807952880859375,0.9888922919406462,0.006108272620806699,-0.09145793733984502,0.11700505646092012
1728331565508655600,1.164655517578125,0.061686623841524124,-0.017777487635612488,-0.15516482293605804,-0.18220512568950653,0.009086786769330502,-0.9832185506820679,-0.04954533278942108,-0.03893304243683815,-0.003704667091369629,0.9889968868012674,0.006141107580951297,-0.09139480506752187,0.11616556940974279
1728331565518686500,1.1746865234375,0.21466925740242004,-0.05204091966152191,-0.08189541101455688,-0.1825171411037445,0.00751918600872159,-0.9831739068031311,-0.019692301750183105,0.039905060082674026,-0.0769762396812439,0.9890486788518091,0.006891498650154562,-0.09146337098960132,0.11562683977711488
1728331565528717600,1.184717529296875,0.3812081515789032,-0.10469124466180801,0.015554448589682579,-0.18323196470737457,0.004505721386522055,-0.9830594062805176,-0.013179108500480652,0.09815534204244614,-0.12675809860229492,0.9890229667732374,0.008434046168528817,-0.09164702931253353,0.11559922950719038
1728331565538749400,1.19474951171875,0.4566214382648468,-0.15530169010162354,0.09675981849431992,-0.18445967137813568,0.00040545748197473586,-0.9828400015830994,-0.02266310155391693,0.09616734832525253,-0.15047603845596313,0.9889124609718545,0.01059556937302586,-0.09202028400239261,0.11607027126661963
1728331565548780500,1.204780517578125,0.34308820962905884,-0.19403529167175293,0.15019536018371582,-0.18614599108695984,-0.0034834309481084347,-0.9825159311294556,-0.03947043418884277,0.0527845099568367,-0.13384759426116943,0.9887311382380789,0.012714682104001169,-0.09263032118502328,0.1169129775333523
1728331565558811400,1.214811279296875,0.014515118673443794,-0.284213125705719,0.1179623082280159,-0.188391774892807,-0.005038375500589609,-0.9820810556411743,-0.049569010734558105,0.0174437053501606,-0.09906518459320068,0.9885319348632021,0.013696628836230584,-0.09365834537369531,0.1176656194558576
1728331565568842500,1.224842529296875,-0.2824942469596863,-0.4170624911785126,0.0247745793312788,-0.19185982644557953,-0.0034715780057013035,-0.9814162254333496,-0.05928453803062439,-0.014411786571145058,-0.01440286636352539,0.9883269964449555,0.013154966958115077,-0.09549265999316706,0.11797367417858926
1728331565578873300,1.234873291015625,-0.535508394241333,-0.5587336421012878,-0.19382859766483307,-0.19653594493865967,0.0003816166426986456,-0.9804965257644653,-0.062115758657455444,-0.04208395257592201,-0.03406035900115967,0.9881663780313517,0.011456746195121834,-0.09808399881005708,0.11736858051270997
1728331565588904400,1.244904541015625,-0.6427105069160461,-0.6450420022010803,-0.38061368465423584,-0.20249725878238678,0.005873981863260269,-0.9792652130126953,-0.10553188621997833,-0.0028375512920320034,0.05525398254394531,0.9880679085052745,0.008890671344747199,-0.10143149648680523,0.11556152058530147
1728331565598935300,1.254935302734375,-0.5248914361000061,-0.4823888838291168,-0.3744543194770813,-0.20805026590824127,0.010847349651157856,-0.9780579805374146,-0.16540856659412384,0.07011571526527405,0.12329113483428955,0.9880230695030929,0.006499811234708087,-0.10454070732133897,0.11331124902046023
1728331565608966400,1.26496630859375,-0.4738578200340271,-0.3690735101699829,-0.3019723892211914,-0.21222539246082306,0.014980677515268326,-0.9771059155464172,-0.17986442148685455,0.0821414440870285,-0.018881022930145264,0.9880044822506575,0.004466890596667467,-0.10689757768708306,0.11135562608706906
1728331565618997500,1.27499755859375,-0.4314003884792328,-0.2678696811199188,-0.3138759136199951,-0.21532738208770752,0.018727267161011696,-0.9763623476028442,-0.1755417287349701,0.006541222333908081,0.04060184955596924,0.9880095157865779,0.0025821243329089724,-0.10868378680675027,0.10962809849127304
1728331565629028600,1.285028564453125,-0.6157185435295105,-0.2148602455854416,-0.4684678912162781,-0.21767376363277435,0.022857442498207092,-0.975753903388977,-0.17162369191646576,-0.16096481680870056,0.02499401569366455,0.9880959003002961,0.000405708310155699,-0.11010398307889646,0.1074402564605664
1728331565639059500,1.2950595703125,-0.9537855386734009,-0.19204361736774445,-0.668281614780426,-0.21978290379047394,0.02923658676445484,-0.9751105904579163,-0.17290200293064117,-0.31477436423301697,0.02731090784072876,0.988281549865039,-0.0030355411117624523,-0.11151449307155907,0.10418667403965266
1728331565649090600,1.305090576171875,-1.4436777830123901,-0.1814708709716797,-0.7971847653388977,-0.22174827754497528,0.03925365209579468,-0.974313497543335,-0.16788485646247864,-0.40660905838012695,0.01941847801208496,0.9885258255423229,-0.00843735150926803,-0.11301348952657944,0.09986671767077909
1728331565659121400,1.315121337890625,-1.764475703239441,-0.2331913262605667,-0.9773348569869995,-0.22408829629421234,0.05322274565696716,-0.9731144905090332,-0.15080486238002777,-0.44906631112098694,0.022507190704345703,0.988739695933513,-0.01592528026693602,-0.11484402098038216,0.0946101943289165
1728331565669153500,1.325153564453125,-2.0827035903930664,-0.3700895309448242,-1.367427945137024,-0.2277040332555771,0.06924345344305038,-0.9712652564048767,-0.15159890055656433,-0.40646275877952576,-0.01690918207168579,0.9889030749260831,-0.024598254599125662,-0.11731279775869072,0.08776909396085103
1728331565679184400,1.335184326171875,-2.2846319675445557,-0.42689022421836853,-1.6476290225982666,-0.2327873706817627,0.0872596949338913,-0.968605101108551,-0.21473760902881622,-0.17484521865844727,0.037696897983551025,0.9889771783967858,-0.03450601979786383,-0.12044416962045718,0.07890943201816578
1728331565689215500,1.345215576171875,-1.92494535446167,-0.4258241653442383,-1.5178537368774414,-0.23851609230041504,0.10413957387208939,-0.965538740158081,-0.23255318403244019,0.06546179205179214,0.0006644725799560547,0.9888916689645718,-0.04393217939147953,-0.12369560732803017,0.06973263502422229
1728331565699246300,1.355246337890625,-1.3679866790771484,-0.34994348883628845,-1.2204617261886597,-0.24368835985660553,0.11672835052013397,-0.9628034234046936,-0.15412349998950958,0.10568369179964066,-0.2602037787437439,0.9887159824127395,-0.05110327765542111,-0.12643865002300592,0.061986960632735656
1728331565709277400,1.36527734375,-1.0447285175323486,-0.3203536570072174,-1.002638339996338,-0.24819424748420715,0.1254638433456421,-0.9605510830879211,-0.07355253398418427,0.026849329471588135,-0.43417853116989136,0.9885125938564651,-0.05618971036983694,-0.12871348368214433,0.05584254214509897
1728331565719308300,1.375308349609375,-0.8984621167182922,-0.4084866940975189,-0.8927584290504456,-0.2527359426021576,0.1323869377374649,-0.9584352970123291,0.007115274667739868,-0.09486563503742218,-0.5083005428314209,0.9882575925708587,-0.06026917561399897,-0.130957901811355,0.05064220620656746
1728331565729339400,1.38533935546875,-0.8825854063034058,-0.6417439579963684,-0.8469962477684021,-0.25886625051498413,0.13859449326992035,-0.9559183120727539,0.10939118266105652,-0.2661885619163513,-0.5498037338256836,0.9878507438423713,-0.06391851151128404,-0.13399725347728395,0.045935989839003266
1728331565739370500,1.39537060546875,-1.0401604175567627,-0.8478606343269348,-0.8519247174263,-0.26709380745887756,0.1455506831407547,-0.9526153206825256,0.21446630358695984,-0.41293051838874817,-0.5089478492736816,0.9872184974263316,-0.06793658900451888,-0.13811941690465146,0.04131994648563585
1728331565749401600,1.405401611328125,-1.184044361114502,-1.0817735195159912,-0.8147834539413452,-0.2773999571800232,0.1538991630077362,-0.9483482241630554,0.29326915740966797,-0.4494161903858185,-0.39477622509002686,0.9863193505486504,-0.07268086123344883,-0.14332965602681827,0.036719823122070366
1728331565759432400,1.415432373046875,-1.0966827869415283,-1.3341825008392334,-0.6430564522743225,-0.28986337780952454,0.16280311346054077,-0.943119466304779,0.3765638470649719,-0.41660261154174805,-0.30526310205459595,0.9851348867083537,-0.0776615372908428,-0.14969616236069627,0.03269602600386637
1728331565769463600,1.425463623046875,-0.9746457934379578,-1.5002574920654297,-0.4811578691005707,-0.3040470778942108,0.17078442871570587,-0.9372236132621765,0.4695439636707306,-0.36023759841918945,-0.30946528911590576,0.9837311513180224,-0.08205656272177184,-0.157018878882844,0.029745555580363327
1728331565779494400,1.435494384765625,-0.745460033416748,-1.6355557441711426,-0.29922986030578613,-0.31914642453193665,0.1777857542037964,-0.9308801293373108,0.5072568655014038,-0.24588580429553986,-0.2767462134361267,0.982176553752608,-0.08584952371599426,-0.16489330343865638,0.027736026861816226
1728331565789525500,1.445525390625,-0.22293299436569214,-1.8337421417236328,-0.06109052523970604,-0.3353777825832367,0.1817265897989273,-0.9243901371955872,0.5445452928543091,-0.13558407127857208,-0.23730725049972534,0.9805375967207915,-0.08785116424902902,-0.1734563062230206,0.02722255044863416
1728331565799557400,1.455557373046875,0.17957870662212372,-1.948988437652588,0.0880717933177948,-0.3526148498058319,0.18189142644405365,-0.9179206490516663,0.6030268669128418,-0.07115845382213593,-0.294741153717041,0.9788613728544867,-0.08766339293181806,-0.18263300975424243,0.028118694419847254
1728331565809588500,1.46558837890625,0.6975153088569641,-2.0193657875061035,0.284903883934021,-0.37022271752357483,0.1785799115896225,-0.911616325378418,0.6003711223602295,0.020318344235420227,-0.21700000762939453,0.9771853076310791,-0.085421825421606,-0.192080548617131,0.030284168667693883
1728331565819619300,1.475619384765625,1.224630355834961,-2.0571036338806152,0.5208964943885803,-0.38781580328941345,0.17126624286174774,-0.9056858420372009,0.6209243535995483,0.04746843874454498,-0.16839563846588135,0.9755413744273062,-0.08073589769971201,-0.20159068703422778,0.03408844368982656
1728331565829650400,1.485650390625,1.607042670249939,-2.043353319168091,0.7463796734809875,-0.4051189124584198,0.16085121035575867,-0.9000031352043152,0.6351299285888672,0.03479692339897156,-0.08269345760345459,0.9738810225166175,-0.07403245179605021,-0.2109920419771048,0.03946502975801876
1728331565839681300,1.495681396484375,1.9046146869659424,-2.021115779876709,0.9983484745025635,-0.421822726726532,0.1486271768808365,-0.8944135308265686,0.6193783283233643,0.01763249933719635,0.0700269341468811,0.9721417664476494,-0.06595216345435612,-0.22009895760004397,0.04633704825261907
1728331565849712400,1.50571240234375,2.16679048538208,-2.0198490619659424,1.2778701782226562,-0.43809816241264343,0.13527339696884155,-0.8886906504631042,0.5887939929962158,-0.019535541534423828,0.20959824323654175,0.9702294479515495,-0.05678542258404407,-0.22897616163948215,0.054773417672578345
1728331565859743200,1.5157431640625,2.228405237197876,-1.952343225479126,1.5666273832321167,-0.4539066553115845,0.12222938239574432,-0.8826260566711426,0.5324589014053345,-0.03929793834686279,0.3422817587852478,0.968045852913847,-0.04722460920363424,-0.23760642663452705,0.06480929026025464
1728331565869774600,1.525774658203125,2.375084638595581,-1.782793402671814,1.7791359424591064,-0.4684368669986725,0.10941315442323685,-0.8766958713531494,0.44832584261894226,-0.04230506718158722,0.4660513401031494,0.9656823079960735,-0.0372813398427708,-0.24548352129425674,0.07619512196456535
1728331565879805400,1.535805419921875,2.360152006149292,-1.3557283878326416,1.77490234375,-0.4803752601146698,0.09714403748512268,-0.8716666102409363,0.3257122039794922,-0.009909607470035553,0.479897141456604,0.9633701211122508,-0.027404914038041187,-0.2518246963843383,0.08804118446343571
1728331565889836500,1.54583642578125,2.4711780548095703,-0.9652048945426941,1.7508553266525269,-0.4888189733028412,0.08467485010623932,-0.868266224861145,0.17334353923797607,0.0728415697813034,0.49438005685806274,0.9613462210214395,-0.01747647765124963,-0.25604974729541136,0.09973249155931939
1728331565899867600,1.55586767578125,2.6812407970428467,-0.6441251039505005,1.8094552755355835,-0.494357168674469,0.07103163003921509,-0.866351842880249,0.08424675464630127,0.13902080059051514,0.4957005977630615,0.9595345708773133,-0.006940984704485334,-0.25841034844398847,0.11166619711776016
1728331565909898500,1.5658984375,2.806183099746704,-0.367931604385376,1.8983381986618042,-0.4975013732910156,0.0563436821103096,-0.8656314611434937,0.0593300461769104,0.18578270077705383,0.4521334767341614,0.9578104039860341,0.004181943766776323,-0.25916556363556775,0.12415750568387951
1728331565919929600,1.5759296875,2.876861572265625,-0.15400628745555878,1.9828752279281616,-0.4987516701221466,0.04134200140833855,-0.8657584190368652,0.039828360080718994,0.20699471235275269,0.43738317489624023,0.9560681874070094,0.015480620230437501,-0.2586138877464126,0.1371601881287947
1728331565929961500,1.58596142578125,2.8787107467651367,0.005269506014883518,2.0237977504730225,-0.4987003207206726,0.02630540542304516,-0.8663752675056458,0.018841952085494995,0.15593023598194122,0.436290979385376,0.9542209064637176,0.026764817783226428,-0.257091470440874,0.15049994252608068
1728331565939992300,1.595992431640625,2.7163162231445312,0.23657836019992828,1.9735195636749268,-0.49728479981422424,0.01194964163005352,-0.8675050735473633,-0.01292330026626587,0.059461429715156555,0.3896150588989258,0.952342036488886,0.03749647575412037,-0.2546398872065867,0.1636989844538517
1728331565950023400,1.6060234375,2.4393298625946045,0.501167893409729,1.8652831315994263,-0.49393412470817566,-0.0010841251350939274,-0.8694986701011658,-0.07256364822387695,-0.03614739701151848,0.40869849920272827,0.9506257840619954,0.04711471580326128,-0.2510594866446342,0.17623871407620736
1728331565960054300,1.61605419921875,1.942407488822937,0.7391054034233093,1.7318936586380005,-0.48857852816581726,-0.011425088159739971,-0.8724451065063477,-0.13021111488342285,-0.10173415392637253,0.44213199615478516,0.9492036528609117,0.05477094740180934,-0.24653111798125563,0.1877095255373642
1728331565970085400,1.62608544921875,1.4987382888793945,0.902691125869751,1.667916178703308,-0.48155477643013,-0.018184633925557137,-0.8762272596359253,-0.15815463662147522,-0.09860620647668839,0.47095388174057007,0.9480900855053709,0.06003040491008657,-0.24141811469397786,0.19808751570092833
1728331565980116500,1.636116455078125,1.2671817541122437,0.9982152581214905,1.7015866041183472,-0.47346705198287964,-0.02219097688794136,-0.8805319666862488,-0.14802339673042297,-0.06936182081699371,0.4791800379753113,0.9471006424621775,0.06354639543242212,-0.23599973625267928,0.20800592439277668
1728331565990147300,1.646147216796875,1.1955639123916626,1.080617904663086,1.7198702096939087,-0.46467769145965576,-0.02500409260392189,-0.8851268291473389,-0.11916932463645935,-0.03125512972474098,0.44497179985046387,0.9460824759424956,0.06626660106538061,-0.23031572889690732,0.217925296285007
1728331566000178700,1.6561787109375,1.0779083967208862,1.2011992931365967,1.6998826265335083,-0.454945832490921,-0.027314577251672745,-0.8901001214981079,-0.10831707715988159,0.039903007447719574,0.3887115716934204,0.9450897553081732,0.06846943372769196,-0.22419160776127456,0.22771803151739964
1728331566010209500,1.66620947265625,1.0593178272247314,1.2399754524230957,1.7414839267730713,-0.44438180327415466,-0.0290021151304245,-0.8953679203987122,-0.09471121430397034,0.14060482382774353,0.39753466844558716,0.9440872457602077,0.07011818250867831,-0.21771421197371024,0.2374517652421517
1728331566020240600,1.67624072265625,1.2064471244812012,1.1438930034637451,1.7209440469741821,-0.4341219365596771,-0.031545598059892654,-0.9003016352653503,-0.038396984338760376,0.16849316656589508,0.37764233350753784,0.9428551887297338,0.07215528448521667,-0.21128841783348465,0.24733577488235073
1728331566030271500,1.686271484375,1.1875321865081787,1.0382577180862427,1.5683424472808838,-0.42481327056884766,-0.0354078970849514,-0.9045882821083069,-0.015341728925704956,0.14398936927318573,0.3284621834754944,0.9414635963203892,0.0747785835696331,-0.2052170287030504,0.25678846612407674
1728331566040302000,1.696302001953125,1.0707190036773682,0.992142915725708,1.5035704374313354,-0.41613471508026123,-0.039297956973314285,-0.9084533452987671,-0.040942251682281494,0.1397770196199417,0.38854068517684937,0.9400657204786522,0.07725440234343817,-0.19951208070880477,0.26552396009277396
1728331566050333000,1.7063330078125,0.9290632605552673,0.9436427354812622,1.5161621570587158,-0.40793195366859436,-0.04217603802680969,-0.9120376706123352,-0.030041038990020752,0.10708685219287872,0.3756607174873352,0.9385826705023046,0.07916321259129733,-0.19420184795820586,0.27400975682553547
1728331566060364000,1.716364013671875,0.6943439841270447,1.0070507526397705,1.4059045314788818,-0.3997219502925873,-0.04378071054816246,-0.9155902862548828,-0.01742282509803772,0.06027538701891899,0.2418079376220703,0.9371329072768751,0.08028206369137722,-0.18910218202214865,0.2820940940246788
1728331566070396200,1.726396240234375,0.4400078058242798,1.0975831747055054,1.3140082359313965,-0.3905465006828308,-0.043607089668512344,-0.919549822807312,-0.0504172146320343,0.07949569821357727,0.163843035697937,0.935963759831472,0.0801411926295166,-0.18385453058183554,0.2893902376848649
1728331566080427300,1.73642724609375,0.43153923749923706,1.0323116779327393,1.3056594133377075,-0.3812110722064972,-0.04245675727725029,-0.9235125780105591,-0.02995222806930542,0.11199098825454712,0.13768500089645386,0.9348501784826709,0.07936256598723972,-0.1787324362759071,0.29632970193518254
1728331566090458000,1.7464580078125,0.4585651755332947,0.9266064167022705,1.2560114860534668,-0.3726656138896942,-0.041828036308288574,-0.9270225167274475,0.0335390567779541,0.1112401932477951,0.07584148645401001,0.9336040668030652,0.07888915422803656,-0.1739690908396168,0.3031413086875428
1728331566100489200,1.7564892578125,0.2984730005264282,0.8492091298103333,1.2055259943008423,-0.3648723065853119,-0.0409342497587204,-0.9301573038101196,0.04394948482513428,0.12218723446130753,0.11796247959136963,0.9323354133080887,0.07829176320835475,-0.16968134375257693,0.3095629538816937
1728331566110520000,1.76652001953125,0.04110751673579216,0.7165827751159668,1.2184007167816162,-0.358004629611969,-0.038187939673662186,-0.9329385757446289,0.06004628539085388,0.12401855736970901,0.1774148941040039,0.9310284147733215,0.07686212560803453,-0.1662014943153404,0.31568219821883675
1728331566120551200,1.77655126953125,-0.29636451601982117,0.5334156155586243,1.195101261138916,-0.3525610864162445,-0.03273927792906761,-0.9352158904075623,0.0910865068435669,0.08254389464855194,0.16843128204345703,0.9296601913938396,0.0742927473725117,-0.16392873678960365,0.3214651214814395
1728331566130582000,1.78658203125,-0.73491370677948,0.407924085855484,1.095142126083374,-0.34851881861686707,-0.02385382354259491,-0.936998188495636,0.08095595240592957,0.03786131739616394,0.1495378613471985,0.928360143762467,0.07019105203394548,-0.1630156998427987,0.3265677066443597
1728331566140613000,1.796613037109375,-1.007098913192749,0.324285626411438,0.9330115914344788,-0.3452645540237427,-0.011985328048467636,-0.9384288787841797,0.047306180000305176,0.043174225836992264,0.07870292663574219,0.9272897008630424,0.0646324598197746,-0.16312024306414424,0.3306784584639108
1728331566150644000,1.80664404296875,-1.1029726266860962,0.2529159486293793,0.8442130088806152,-0.34261852502822876,0.0010258263209834695,-0.9394740462303162,0.00724560022354126,0.08749032765626907,0.019552171230316162,0.926381806616288,0.058512297577954994,-0.16382701790637216,0.3339964421770933
1728331566160675000,1.816675048828125,-1.1812841892242432,0.22018009424209595,0.8121544122695923,-0.34029388427734375,0.01460992731153965,-0.9402056336402893,-0.00548553466796875,0.16020995378494263,-0.0038098692893981934,0.9255065465965319,0.052130032926600345,-0.16486251144383063,0.3369574445543113
1728331566170706000,1.826705810546875,-1.1610387563705444,0.12842728197574615,0.8387916088104248,-0.338459312915802,0.028550859540700912,-0.9405477643013,-0.00634351372718811,0.24043099582195282,0.025615572929382324,0.9245432378914605,0.045670963775671036,-0.1662536430079064,0.33984344095558705
1728331566180737000,1.836737060546875,-1.0407421588897705,0.03971526026725769,0.8532323241233826,-0.3373394012451172,0.04183381423354149,-0.9404531121253967,-0.007966995239257812,0.24251364171504974,0.08707481622695923,0.9233924910091611,0.039702549263541526,-0.16792006854699576,0.34288898775451243
1728331566190768000,1.84676806640625,-1.0750622749328613,0.023001737892627716,0.7469136118888855,-0.3367169201374054,0.054322224110364914,-0.9400376677513123,-0.032515257596969604,0.16870015859603882,0.09233564138412476,0.9222171510570312,0.03418427346549081,-0.16974274963566585,0.3457375128450284
1728331566200800300,1.85680029296875,-1.3546302318572998,0.0760154277086258,0.6676614284515381,-0.33580049872398376,0.0680752620100975,-0.9394699335098267,-0.08898892998695374,0.11083397269248962,0.13447725772857666,0.921233981739804,0.027907385718838187,-0.1717154759097134,0.34794105170219747
1728331566210831000,1.8668310546875,-1.58828866481781,0.0819624662399292,0.7226983308792114,-0.3344716727733612,0.08428328484296799,-0.9386293292045593,-0.1015940010547638,0.09290169179439545,0.21600359678268433,0.9202822319589526,0.020349755059928667,-0.17398626043025617,0.34985038472746355
1728331566220862200,1.8768623046875,-1.6745964288711548,-0.0695711225271225,0.6420415639877319,-0.3335701525211334,0.10220030695199966,-0.9371691942214966,-0.05237039923667908,0.07867729663848877,0.18523132801055908,0.9191945089402963,0.012059822599789867,-0.17683318868683,0.35166180016624377
1728331566230893000,1.88689306640625,-1.7820913791656494,-0.2604469060897827,0.37903010845184326,-0.33462950587272644,0.11982369422912598,-0.9347006678581238,-0.05735352635383606,0.10589949041604996,0.19629734754562378,0.9182298589956444,0.004086650926911414,-0.18064596002122263,0.35242599814865566
1728331566240924200,1.896924072265625,-1.973387360572815,-0.5102916359901428,0.37323668599128723,-0.3376829922199249,0.13882286846637726,-0.9309663772583008,-0.11528941988945007,0.18029937148094177,0.21088886260986328,0.9172317438710232,-0.004319712789979131,-0.18573676634042835,0.3523764175069314
1728331566250955000,1.906955078125,-2.1401166915893555,-0.6761930584907532,0.4039783477783203,-0.3427523672580719,0.1590840220451355,-0.9258580207824707,-0.0754605233669281,0.18292640149593353,0.0949711799621582,0.9158707732321923,-0.012956044904800285,-0.19210188377099707,0.3522919499837868
1728331566260986000,1.916986083984375,-2.2432796955108643,-0.5025570392608643,0.31757262349128723,-0.34776052832603455,0.1810222715139389,-0.9199421405792236,-0.12292733788490295,0.09990721940994263,0.03767895698547363,0.9144244481056564,-0.022485756658607785,-0.19880472527566231,0.3518508573450641
1728331566271017000,1.927016845703125,-1.9555680751800537,-0.21142572164535522,0.23571452498435974,-0.35041573643684387,0.20138278603553772,-0.9146878123283386,-0.23189017176628113,0.03431965410709381,-0.019150078296661377,0.9132918856324055,-0.03180934554459906,-0.20406925797582814,0.3510581513248658
1728331566281048000,1.937048095703125,-1.4563175439834595,-0.0930389016866684,0.16570693254470825,-0.35118621587753296,0.2179509848356247,-0.9105852842330933,-0.29046112298965454,0.045751333236694336,-0.20486271381378174,0.9125059640189995,-0.03972785192899261,-0.20767533509715239,0.3501792364758916
1728331566291079200,1.9470791015625,-0.6032591462135315,-0.25344544649124146,0.059531498700380325,-0.3524220883846283,0.2277389019727707,-0.907707929611206,-0.2907511293888092,0.17042386531829834,-0.23827290534973145,0.9119060684355466,-0.04426195571369276,-0.2102068462561862,0.34968749743544053
1728331566301110000,1.957110107421875,0.10278505831956863,-0.35141223669052124,-0.031339555978775024,-0.3552452027797699,0.2297995686531067,-0.9060866236686707,-0.2608284056186676,0.40400466322898865,-0.31608134508132935,0.9115111068247621,-0.04474402195898244,-0.21202510797135274,0.34955818693174207
1728331566311141000,1.96714111328125,0.3310907781124115,-0.3798621892929077,-0.03310629725456238,-0.3586388826370239,0.22740094363689423,-0.9053546190261841,-0.2548559904098511,0.6157233715057373,-0.2903698682785034,0.9112517887930228,-0.04293147305003794,-0.2132594309638694,0.3497106422764297
1728331566321172000,1.977171875,0.12185902148485184,-0.4752451777458191,0.09183190762996674,-0.36238253116607666,0.22544071078300476,-0.9043535590171814,-0.22302091121673584,0.6184770464897156,-0.1849866509437561,0.9108030900664036,-0.04118923313464509,-0.21477116835027202,0.35016373366926973
1728331566331204000,1.9872041015625,-0.0004987844731658697,-0.6858477592468262,0.22811491787433624,-0.3671434819698334,0.22546988725662231,-0.9024239778518677,-0.16963016986846924,0.3516784608364105,-0.17983615398406982,0.9099125681136465,-0.040082457585154996,-0.21721283768697427,0.3510999323099818
1728331566341235200,1.997235107421875,-0.3131570816040039,-0.8676055669784546,0.191519632935524,-0.37385639548301697,0.22752340137958527,-0.899146556854248,-0.11170876026153564,-0.08406035602092743,-0.30661821365356445,0.908609709012211,-0.03953391288183767,-0.22105158106928224,0.35213863337526463
1728331566351266000,2.00726611328125,-0.6711509227752686,-0.7031228542327881,-0.010718433186411858,-0.3808320462703705,0.23247455060482025,-0.8949427604675293,-0.10538926720619202,-0.3583291172981262,-0.2496190071105957,0.9074619988743602,-0.04056358096498661,-0.22557309697070316,0.3521136381225364
1728331566361297200,2.017297119140625,-0.7877123951911926,-0.4463683068752289,0.055008117109537125,-0.38596203923225403,0.2389526516199112,-0.8910302519798279,-0.12465807795524597,-0.36373910307884216,-0.13169008493423462,0.906664768386782,-0.0428482105632744,-0.2294534979405027,0.3513886742127516
1728331566371328000,2.027327880859375,-0.8312705755233765,-0.32993969321250916,0.3496573269367218,-0.38871529698371887,0.24714699387550354,-0.887591540813446,-0.026201695203781128,-0.2268223762512207,-0.08717042207717896,0.9056928684851109,-0.04621010207542588,-0.2325270951985487,0.3514486733342129
1728331566381359000,2.037359130859375,-0.7136560678482056,-0.5153908133506775,0.34056368470191956,-0.39139440655708313,0.2554483711719513,-0.8840568661689758,0.10716891288757324,-0.06009018421173096,-0.16266554594039917,0.9043755241608659,-0.049426797240023405,-0.23564495935256163,0.35232580903731653
1728331566391390200,2.04739013671875,-0.7745673656463623,-0.8450052738189697,0.11213371902704239,-0.3967090845108032,0.26282063126564026,-0.8795153498649597,0.13329660892486572,0.13158848881721497,-0.3739026188850403,0.9029802077893182,-0.05182704124700552,-0.23990891025549133,0.35268184714778245
1728331566401421000,2.057421142578125,-0.7018292546272278,-1.2038030624389648,-0.13786466419696808,-0.40589019656181335,0.2693538963794708,-0.873327910900116,0.16776153445243835,0.2380007803440094,-0.46422702074050903,0.9015593617617966,-0.05337749235182314,-0.24594081136326662,0.35193008747640986
1728331566411452200,2.0674521484375,-0.7995006442070007,-1.2486950159072876,-0.2011839747428894,-0.41726037859916687,0.2748434543609619,-0.8662302494049072,0.18491479754447937,0.19810262322425842,-0.5934865474700928,0.9001279806446202,-0.05418623459722494,-0.2528808523756156,0.3505492006892464
1728331566421483000,2.07748291015625,-1.1833218336105347,-1.0358762741088867,-0.13293860852718353,-0.42768099904060364,0.28274524211883545,-0.85857093334198,0.10900118947029114,0.12126165628433228,-0.47797691822052,0.8986784750418325,-0.05645271227189333,-0.25986076763702837,0.3488013158585791
1728331566431514000,2.08751416015625,-1.3538157939910889,-0.8927373290061951,-0.00935116596519947,-0.43601542711257935,0.2934040129184723,-0.8507670760154724,0.011897385120391846,0.09085798263549805,-0.1720753312110901,0.897170746932619,-0.06046083295618377,-0.2663849445576425,0.34708538821641716
1728331566441545000,2.097544921875,-1.5829411745071411,-0.7550438642501831,0.015480946749448776,-0.44309529662132263,0.30577823519706726,-0.8427135944366455,-0.04465189576148987,0.011940181255340576,-0.025770902633666992,0.8955701799028457,-0.06555253109673487,-0.27266474349330155,0.3454140447735045
1728331566451576000,2.107576171875,-1.811090111732483,-0.538057267665863,0.005193422082811594,-0.44841036200523376,0.32017141580581665,-0.8345168828964233,-0.09089627861976624,-0.07284179329872131,0.09776151180267334,0.8940872377370708,-0.07212485375663882,-0.2784592563077512,0.3433170006159731
1728331566461607000,2.11760693359375,-1.9388891458511353,-0.43463048338890076,-0.006132469512522221,-0.4524429738521576,0.335750013589859,-0.8261762857437134,-0.09495082497596741,-0.11521482467651367,0.12268507480621338,0.8926861297668995,-0.07966939983899046,-0.2838391134887303,0.34088058794437437
1728331566471639000,2.12763916015625,-1.7105746269226074,-0.25631555914878845,-0.13632161915302277,-0.4554992616176605,0.350906103849411,-0.8181596994400024,-0.06044617295265198,-0.10627725720405579,0.014708161354064941,0.8915110859866681,-0.08736771674893616,-0.28859492766358913,0.33806473743507853
1728331566481670100,2.137670166015625,-0.9605634808540344,-0.15672077238559723,-0.28890693187713623,-0.4579962193965912,0.36083853244781494,-0.812425434589386,-0.07246032357215881,-0.002958953380584717,-0.1642897129058838,0.8909675998222776,-0.09266827326887007,-0.2918901997631075,0.3352453512642132
1728331566491701200,2.147701171875,-0.17491813004016876,0.08045598119497299,-0.3197673559188843,-0.45941361784935,0.36408165097236633,-0.8101751208305359,-0.09264937043190002,0.1286855936050415,-0.2100580930709839,0.8911729429049077,-0.09472478231064163,-0.29315466876421137,0.33301418935541593
1728331566501732000,2.157732177734375,0.3784310817718506,0.23247933387756348,-0.1898500919342041,-0.4591119587421417,0.3617842197418213,-0.8113744258880615,-0.07322141528129578,0.27325600385665894,-0.23150283098220825,0.8919072114576205,-0.0940043560351033,-0.2923627568092038,0.3319470179193195
1728331566511763200,2.16776318359375,0.6850144863128662,0.2637592554092407,-0.06137681379914284,-0.4573284685611725,0.3569149374961853,-0.8145320415496826,-0.032112449407577515,0.32742640376091003,-0.17602282762527466,0.8927361907740555,-0.09189896894800002,-0.29032493984022617,0.3320966475780326
1728331566521794000,2.1777939453125,1.0229566097259521,0.2967241406440735,-0.15287184715270996,-0.45549580454826355,0.3494710326194763,-0.8187756538391113,0.00450703501701355,0.258789986371994,-0.13776731491088867,0.8936725933775415,-0.08837618320303094,-0.28775305566314435,0.3327719451683077
1728331566531825200,2.1878251953125,1.3069201707839966,0.48858892917633057,-0.2557622790336609,-0.4529936611652374,0.33885517716407776,-0.8246053457260132,-0.03641673922538757,0.15980198979377747,-0.10962927341461182,0.8950914695975561,-0.08347364143262138,-0.28412933724701,0.333337760210092
1728331566541856000,2.19785595703125,1.849791407585144,0.7133357524871826,-0.1992473304271698,-0.4487837553024292,0.3250139653682709,-0.8324416279792786,-0.0961686372756958,0.18365290760993958,-0.010667502880096436,0.8969527281825525,-0.07723796391626522,-0.2789506974859059,0.334210243120182
1728331566551887000,2.20788720703125,2.9395947456359863,0.9004001617431641,-0.20492865145206451,-0.44251877069473267,0.30381181836128235,-0.843727171421051,-0.11656326055526733,0.2719327509403229,0.02011871337890625,0.8992776719820633,-0.06744439521789519,-0.2712704959382054,0.3363973394491189
1728331566561918000,2.21791796875,3.59578275680542,1.0963187217712402,-0.2338029146194458,-0.43470412492752075,0.2748051583766937,-0.8576213717460632,-0.17087140679359436,0.4307458698749542,-0.03246957063674927,0.9019964910462709,-0.05400541143361216,-0.26129051424734506,0.33943020755878206
1728331566571949000,2.227948974609375,3.9055402278900146,0.9479475021362305,0.2255266010761261,-0.42542755603790283,0.2420063465833664,-0.8720346093177795,-0.18072783946990967,0.6177653074264526,0.14446496963500977,0.9043358244138019,-0.03877907764447216,-0.24995777240314143,0.3437935198759864
1728331566581980000,2.23797998046875,3.7822680473327637,0.3958747684955597,0.7948377728462219,-0.4184449315071106,0.20993541181087494,-0.8836464285850525,0.0691407322883606,0.3244883418083191,0.10383069515228271,0.9048038791542501,-0.022883658871365557,-0.24011067776530792,0.3509318576959302
1728331566592011000,2.248010986328125,2.6702003479003906,0.32600149512290955,0.5630713701248169,-0.41397902369499207,0.1838134229183197,-0.8915346264839172,0.33153578639030457,-0.27718204259872437,0.15796834230422974,0.9041663220298579,-0.009486150097355454,-0.23268584457411592,0.3581208568669271
1728331566602043100,2.258043212890625,1.3814822435379028,0.35729628801345825,-0.12400930374860764,-0.4104079604148865,0.16666387021541595,-0.896542489528656,0.2777785658836365,-0.5477216839790344,0.3063783049583435,0.9042428759437079,-0.0012547506599999293,-0.22743607948893443,0.36140852697432047
1728331566612074200,2.26807421875,0.7040403485298157,0.05784158408641815,-0.5117397308349609,-0.40892985463142395,0.1563267558813095,-0.8990764021873474,0.23574259877204895,-0.5505834221839905,0.28013408184051514,0.905117171171475,0.0032217970117566263,-0.2246139524968324,0.36097260944746085
1728331566622105000,2.27810498046875,0.4456719160079956,-0.12359319627285004,-0.4908781349658966,-0.4102151393890381,0.14898830652236938,-0.8997366428375244,0.2622506618499756,-0.42482152581214905,0.19935822486877441,0.9059878824744395,0.00651914847502654,-0.22380611252237098,0.35924139646375447
1728331566632136200,2.28813623046875,0.46776410937309265,-0.13507099449634552,-0.3427528440952301,-0.41199779510498047,0.14343366026878357,-0.8998247385025024,0.12794017791748047,-0.06840626895427704,0.17281973361968994,0.9065701461333675,0.009154981848919544,-0.2236153074141042,0.3578308961098741
1728331566642167000,2.2981669921875,0.7835009694099426,0.04918833449482918,-0.26491156220436096,-0.41294699907302856,0.1364552080631256,-0.9004747271537781,-0.13856667280197144,0.23704935610294342,0.17607897520065308,0.9070060739955148,0.012486698515795706,-0.22272563968211087,0.35717987514298083
1728331566652198100,2.3081982421875,0.6871404647827148,0.37399277091026306,-0.19509252905845642,-0.4113692343235016,0.1284680813550949,-0.9023698568344116,-0.3794022500514984,0.2622941732406616,0.22761088609695435,0.9076041481300895,0.015903986062561732,-0.22036821082713537,0.35698689709744114
1728331566662229000,2.31822900390625,-0.1277223825454712,0.6017223596572876,-0.011956803500652313,-0.4069363474845886,0.12503471970558167,-0.9048585891723633,-0.462082177400589,0.06199216842651367,0.30949121713638306,0.908334776782076,0.016615688278252074,-0.21747325032840212,0.35687131002383893
1728331566672260000,2.328260009765625,-1.4661555290222168,0.5487029552459717,0.22645710408687592,-0.40140995383262634,0.13256826996803284,-0.9062536358833313,-0.36056819558143616,-0.2555083930492401,0.2539251446723938,0.9088384006871617,0.011879893655616348,-0.2161759512396702,0.35656621143842343
1728331566682291000,2.338291015625,-2.9105188846588135,0.3469456136226654,0.2708280086517334,-0.3969060182571411,0.15348197519779205,-0.9049358367919922,-0.1367396116256714,-0.5575195550918579,0.2527294158935547,0.908925101330691,0.0008212879383675834,-0.21801697925294328,0.3554194664955978
1728331566692322000,2.348322021484375,-3.989541530609131,0.15854737162590027,0.10411254316568375,-0.3943082094192505,0.1859353929758072,-0.8999717235565186,0.03459751605987549,-0.6814799308776855,0.21442484855651855,0.9087223972275152,-0.01578767136735233,-0.22308046526131609,0.3524337467508107
1728331566702353000,2.358352783203125,-4.264469623565674,-0.06616376340389252,-0.10438713431358337,-0.39387303590774536,0.22342461347579956,-0.8915971517562866,0.11297398805618286,-0.5352990627288818,0.03202378749847412,0.9082488517486411,-0.034882005957251556,-0.23018399651011662,0.34768169710288066
1728331566712384000,2.368384033203125,-3.806180953979492,-0.23463235795497894,-0.26686927676200867,-0.39568856358528137,0.25889134407043457,-0.8811389207839966,0.15241768956184387,-0.19451457262039185,-0.13914000988006592,0.9075021816993459,-0.05294283151169496,-0.23796551426540236,0.3420660935910383
1728331566722415000,2.3784150390625,-2.9842090606689453,-0.3698546290397644,-0.29472699761390686,-0.39918819069862366,0.2876012325286865,-0.8705942034721375,0.13486018776893616,0.1623345911502838,-0.19279080629348755,0.9066032698353373,-0.06753639212067791,-0.24523810241002764,0.33670097585914543
1728331566732446200,2.3884462890625,-2.176415205001831,-0.3785318434238434,-0.19807979464530945,-0.4032679498195648,0.309015154838562,-0.8613272309303284,0.09067642688751221,0.3692379295825958,-0.15399259328842163,0.9055938189464507,-0.07830501978971616,-0.2514054701646738,0.332510787916178
1728331566742478000,2.39847802734375,-1.3624286651611328,0.07765885442495346,-0.12376536428928375,-0.4052704870700836,0.3236228823661804,-0.8549994230270386,0.03197947144508362,0.3740394115447998,-0.11625301837921143,0.9049017172895135,-0.08585426175337463,-0.2552044666574444,0.3296249832876227
1728331566752509200,2.40850927734375,-0.7279766798019409,0.25070056319236755,-0.11425255239009857,-0.404024213552475,0.33180058002471924,-0.8524510860443115,-0.08201399445533752,0.2542131245136261,-0.17034554481506348,0.9048958205487033,-0.09060699500357523,-0.25605631039930277,0.32770293613041473
1728331566762540000,2.4185400390625,-0.801423966884613,0.32195931673049927,0.06022045388817787,-0.40157651901245117,0.3378243148326874,-0.851240873336792,-0.10089540481567383,0.11836761236190796,-0.03466916084289551,0.9050098460101131,-0.09433389491967911,-0.25589192197330224,0.3264622355877735
1728331566772571100,2.428571044921875,-1.1378216743469238,0.01282835565507412,0.2666127681732178,-0.39939141273498535,0.34684666991233826,-0.8486365079879761,0.09459710121154785,0.07000812888145447,0.10577762126922607,0.9044838765244809,-0.09928694641822468,-0.25656159504593684,0.325925200062174
1728331566782602000,2.43860205078125,-1.3452014923095703,-0.29056933522224426,0.10810701549053192,-0.39989468455314636,0.35812824964523315,-0.8436992168426514,0.32062527537345886,-0.04631495475769043,0.09528613090515137,0.9033151845547711,-0.10488994853185837,-0.259130248001339,0.3253786279381165
1728331566792633000,2.448633056640625,-1.8042726516723633,-0.3627637028694153,-0.21589155495166779,-0.40289390087127686,0.37109947204589844,-0.8366371393203735,0.29763877391815186,-0.2088833451271057,-0.016558051109313965,0.902122761884674,-0.1113667330734014,-0.26320882105336035,0.3232538514535426
1728331566802664000,2.458663818359375,-2.583225965499878,-0.2189870923757553,-0.5041190981864929,-0.40735867619514465,0.3876890540122986,-0.8268954753875732,0.08799222111701965,-0.18879082798957825,0.03386563062667847,0.9009954475695976,-0.12010887616805817,-0.26856307466477386,0.3188337873384249
1728331566812695000,2.468695068359375,-2.0633440017700195,-0.04478583112359047,-0.17920970916748047,-0.409385621547699,0.405828595161438,-0.8171331286430359,-0.13451388478279114,0.08478716015815735,0.1638585925102234,0.9000361027642306,-0.13030134632491067,-0.272864418774872,0.3138495797861158
1728331566822726000,2.478725830078125,-0.5302281379699707,0.10968523472547531,0.17996683716773987,-0.40933090448379517,0.4169214963912964,-0.8115569353103638,-0.13736099004745483,0.23410993814468384,-0.07096564769744873,0.8990533451563719,-0.13636511167278928,-0.27500195652264364,0.31222048027395427
1728331566832757000,2.488757080078125,0.8173582553863525,0.6035944223403931,0.027638008818030357,-0.405825138092041,0.41575953364372253,-0.8139103055000305,-0.20297002792358398,0.1716732680797577,-0.39093899726867676,0.8995157295195387,-0.13619820183030934,-0.2729375385191084,0.3127724430164405
1728331566842788000,2.4987880859375,1.681208848953247,0.8356984853744507,-0.05924468860030174,-0.39992907643318176,0.40539437532424927,-0.8220171332359314,-0.33145520091056824,0.19796857237815857,-0.21942579746246338,0.9014000704903214,-0.1316751935068843,-0.2676809291073586,0.3138257361168711
1728331566852819200,2.508819091796875,2.4731624126434326,0.8084821105003357,-0.042823370546102524,-0.3931684195995331,0.387754887342453,-0.8337054252624512,-0.16187003254890442,0.27177566289901733,0.044719159603118896,0.9039264221412056,-0.12341917926402537,-0.26060506249649695,0.31586335047331804
1728331566862850300,2.518850341796875,2.7007863521575928,0.8171786665916443,-0.08717752248048782,-0.38667795062065125,0.3654210567474365,-0.8467276096343994,-0.018534451723098755,0.2967340052127838,0.12426966428756714,0.9066131054942459,-0.11271518778667218,-0.252846775222174,0.31845951571261716
1728331566872881200,2.528881103515625,2.6711466312408447,0.8560479283332825,-0.03400750830769539,-0.3796047270298004,0.3420908749103546,-0.8595778942108154,-0.030170083045959473,0.2778736352920532,0.20258015394210815,0.9092372439421411,-0.10172607351363859,-0.24466890100731772,0.32105555560680704
1728331566882913000,2.5389130859375,2.2622416019439697,0.6761612296104431,0.05736954137682915,-0.3728167712688446,0.3203663229942322,-0.8708462119102478,-0.015565186738967896,0.11878156661987305,0.03286397457122803,0.9113629898269965,-0.09153892588855986,-0.23706018378185054,0.3237910563352753
1728331566892944100,2.548944091796875,1.2383081912994385,0.5401493310928345,0.1172427237033844,-0.36728277802467346,0.30510595440864563,-0.8786430954933167,0.000003725290298461914,-0.1217106282711029,-0.04660409688949585,0.912712885205684,-0.08449691551745145,-0.23138434268319424,0.3260010920081307
1728331566902975000,2.55897509765625,0.5644456148147583,0.4262198805809021,0.19107887148857117,-0.3624846637248993,0.2982332110404968,-0.8829845786094666,0.013592451810836792,-0.2725527584552765,0.07217830419540405,0.913364903520915,-0.08161602657646058,-0.22769831053986547,0.32750087321803256
1728331566913006000,2.569006103515625,0.7269068956375122,0.3680890202522278,0.12535126507282257,-0.35856732726097107,0.2934226393699646,-0.8861899375915527,0.06080731749534607,-0.2627677917480469,0.005956172943115234,0.9137748368027965,-0.07964451117663793,-0.22485946047215727,0.32880165191602706
1728331566923037000,2.579036865234375,1.1940772533416748,0.43018436431884766,-0.04073678329586983,-0.3548680543899536,0.2852335572242737,-0.8903428912162781,0.006494641304016113,0.009581416845321655,-0.11573010683059692,0.9145293277212752,-0.07606961344016062,-0.22145418627311111,0.3298600309275225
1728331566933068000,2.589068115234375,1.8688163757324219,0.3569105267524719,0.0004985346458852291,-0.3512532114982605,0.2713850438594818,-0.8960866928100586,-0.1021464467048645,0.3806992173194885,-0.1128702163696289,0.9156000962324065,-0.06968622779840401,-0.21702646842227497,0.331239799103618
1728331566943099100,2.59909912109375,2.1585636138916016,0.15873698890209198,0.07951398938894272,-0.3488178253173828,0.2529532313346863,-0.9024083614349365,-0.07038688659667969,0.40317463874816895,-0.14895278215408325,0.9164752985137822,-0.06069455230100854,-0.21239585584679527,0.3335825471718312
1728331566953130000,2.6091298828125,1.745121717453003,0.08361928164958954,0.031005578115582466,-0.347683846950531,0.23518040776252747,-0.9076376557350159,0.016049325466156006,0.13229694962501526,-0.04940885305404663,0.9170469355192828,-0.051832025201955144,-0.20855361722848598,0.3359222568028359
1728331566963161000,2.6191611328125,1.4393408298492432,0.12532278895378113,-0.06401094794273376,-0.3467283546924591,0.22072133421897888,-0.9116257429122925,0.062182456254959106,-0.11624448001384735,0.15094459056854248,0.9175669776834285,-0.04473542811818898,-0.20539196491695205,0.3374665511386129
1728331566973192000,2.62919189453125,1.2398340702056885,0.10793106257915497,-0.14631007611751556,-0.34585869312286377,0.20815414190292358,-0.9149063229560852,0.08758842945098877,-0.20493461191654205,0.1004531979560852,0.9181524978872794,-0.0387027207477886,-0.20260534994071216,0.3383033577184552
1728331566983223300,2.639223388671875,1.22185480594635,0.04668847844004631,-0.13729873299598694,-0.34538787603378296,0.19642993807792664,-0.917672336101532,0.08609527349472046,-0.0583532452583313,0.024911046028137207,0.9187141137205121,-0.03308068262492996,-0.20017370557874817,0.3388221247476978
1728331566993254100,2.649254150390625,1.4152588844299316,-0.0474465936422348,-0.00032704463228583336,-0.34549298882484436,0.18412667512893677,-0.9201803803443909,0.07355085015296936,0.15220747888088226,0.01089388132095337,0.9190398394071961,-0.02698983153066144,-0.1979427949242256,0.33978812066971437
1728331567003285200,2.65928515625,1.6038669347763062,-0.11629356443881989,0.09156745672225952,-0.3462405502796173,0.1701863408088684,-0.9225801229476929,0.06810334324836731,0.24784338474273682,-0.03287947177886963,0.9190392804212569,-0.019842746536214574,-0.19574524850308253,0.3415506074477866
1728331567013317000,2.669317138671875,1.5616616010665894,-0.10018330812454224,0.10905537009239197,-0.34704354405403137,0.15587365627288818,-0.9248049259185791,0.03866341710090637,0.21059659123420715,-0.008300542831420898,0.9188905011362349,-0.012466666746279855,-0.19349965346857467,0.34357338009637284
1728331567023348000,2.679347900390625,1.4241350889205933,-0.10645771771669388,0.06174831464886665,-0.34787097573280334,0.1421642154455185,-0.9267011880874634,0.028916507959365845,0.08702273666858673,0.08166944980621338,0.9187041759504839,-0.005416568006180382,-0.19136369789525123,0.3454463107991791
1728331567033379000,2.689379150390625,1.1218773126602173,-0.10299049317836761,0.01026248186826706,-0.34875673055648804,0.13046011328697205,-0.9280888438224792,0.04550355672836304,-0.041135236620903015,0.14360398054122925,0.9185639875924453,0.0005809017674317246,-0.18961867938825844,0.34682053755028447
1728331567043411500,2.699411376953125,0.9779525995254517,-0.1245378702878952,-0.03354385495185852,-0.3497884273529053,0.12072213739156723,-0.9290179014205933,0.04769495129585266,-0.1018623486161232,0.16862666606903076,0.9184588093123617,0.00558147011684321,-0.18830802227586116,0.34776755107069746
1728331567053442600,2.709442626953125,0.8438857793807983,-0.15842761099338531,-0.09883710741996765,-0.3511632978916168,0.1119246780872345,-0.9296005368232727,0.03283447027206421,-0.11113131046295166,0.02417457103729248,0.9184175044164824,0.010113441846124121,-0.18734310544599958,0.34829518354695443
1728331567063473700,2.7194736328125,0.7488380670547485,-0.22899498045444489,-0.058350663632154465,-0.3530217707157135,0.10426643490791321,-0.9297871589660645,-0.008489459753036499,-0.03714309632778168,-0.05937910079956055,0.918343168572696,0.014156911767766298,-0.18683149961395926,0.34862494207524797
1728331567073504800,2.7295048828125,0.7066128849983215,-0.26163598895072937,0.006708760280162096,-0.35538995265960693,0.09734878689050674,-0.9296349883079529,-0.009829163551330566,0.020128563046455383,-0.06578737497329712,0.9180934214712371,0.017991672276480106,-0.1867051494465079,0.34917316364398937
1728331567083535600,2.73953564453125,0.5558883547782898,-0.23247599601745605,0.009327713400125504,-0.357682466506958,0.0914100781083107,-0.9293586015701294,-0.027495115995407104,0.02188635617494583,-0.015053629875183105,0.9177776836645702,0.02136714223606624,-0.1867194170001225,0.34980467851633634
1728331567093566700,2.749566650390625,0.29727935791015625,-0.22294890880584717,-0.04317251220345497,-0.35976824164390564,0.08739890903234482,-0.9289392828941345,-0.06532636284828186,-0.01153227686882019,0.07704108953475952,0.9175454938854086,0.0237267435862619,-0.1869956847987783,0.35011407288471863
1728331567103597600,2.75959765625,0.0345633290708065,-0.16556870937347412,-0.09785626828670502,-0.36166509985923767,0.08554865419864655,-0.9283748269081116,-0.08584466576576233,-0.08380921930074692,0.14398151636123657,0.9174646363602017,0.02492619066473248,-0.18759338542565165,0.34992293094635935
1728331567113628700,2.769628662109375,-0.33135706186294556,-0.10459446161985397,-0.11548053473234177,-0.36301833391189575,0.0864550769329071,-0.9277624487876892,-0.09712570905685425,-0.13738898932933807,0.1597418189048767,0.9175409739051886,0.024624767202390378,-0.1884472951780526,0.34928477150737175
1728331567123659500,2.779659423828125,-0.6769251227378845,0.020693151280283928,-0.055649422109127045,-0.36348772048950195,0.09086351096630096,-0.9271572232246399,-0.09378767013549805,-0.12692010402679443,0.1580227017402649,0.9177257849664415,0.022436413138255246,-0.18952045821795518,0.3483646708870587
1728331567133690600,2.789690673828125,-0.7206589579582214,0.05564942955970764,-0.023440087214112282,-0.363105446100235,0.09743433445692062,-0.9266396164894104,-0.054848045110702515,-0.129294753074646,0.1446114182472229,0.9179006986783944,0.019077509970438083,-0.19056821032857627,0.34753134395248736
1728331567143721500,2.799721435546875,-0.5935800671577454,-0.0037616975605487823,-0.11691650748252869,-0.36286184191703796,0.10332676768302917,-0.9260965585708618,-0.010642796754837036,-0.11042217910289764,-0.053639769554138184,0.91810410928103,0.016044894076213494,-0.19155749051365156,0.3466023100183576
1728331567153753600,2.809753662109375,-0.3082885146141052,-0.11155852675437927,-0.19112734496593475,-0.3635788857936859,0.10700592398643494,-0.9253972768783569,-0.004478365182876587,0.03027733415365219,-0.23633062839508057,0.9183679065636959,0.014183140088985823,-0.19261413178948075,0.34539679137938717
1728331567163784400,2.819784423828125,0.019509611651301384,-0.21151041984558105,-0.11995917558670044,-0.36524489521980286,0.10764586180448532,-0.924666702747345,0.029658347368240356,0.1595965027809143,-0.23965519666671753,0.9184998130418838,0.01400765623178892,-0.1935728022922027,0.34451616123478396
1728331567173815600,2.829815673828125,-0.1002119928598404,-0.21599619090557098,-0.07660557329654694,-0.3673936426639557,0.10729246586561203,-0.9238561987876892,0.06298086047172546,0.1371227204799652,-0.1458917260169983,0.9184462617961353,0.014484959291187302,-0.19458185658198482,0.34407057465236374
1728331567183846700,2.8398466796875,-0.6466647386550903,-0.205889493227005,-0.131578266620636,-0.3694351613521576,0.11014296859502792,-0.922705888748169,0.028721660375595093,-0.00017295777797698975,0.06616902351379395,0.9184384106344368,0.013341014826966206,-0.19613533022892704,0.34325476260035276
1728331567193877800,2.849877685546875,-1.4035203456878662,-0.15696227550506592,-0.15970897674560547,-0.37134313583374023,0.11909624934196472,-0.9208258986473083,-0.033915042877197266,-0.18104702234268188,0.28323739767074585,0.9185758271986662,0.009068860671314193,-0.19875815199305832,0.3415133469541302
1728331567203908600,2.85990869140625,-2.007017135620117,-0.04437287896871567,-0.11834502965211868,-0.37243327498435974,0.13446523249149323,-0.9182660579681396,-0.07442036271095276,-0.3098498582839966,0.35199713706970215,0.9187599166265995,0.0014410041326972341,-0.20215067615353005,0.33913589642881836
1728331567213939700,2.869939697265625,-1.9967886209487915,-0.013135546818375587,-0.18397197127342224,-0.3728462755680084,0.1528727412223816,-0.915213406085968,-0.10884317755699158,-0.32038378715515137,0.24211770296096802,0.9189395801037399,-0.007863287485051388,-0.2057461187875641,0.3363878176797591
1728331567223970600,2.879970458984375,-1.5371992588043213,0.00986883882433176,-0.4042856991291046,-0.37332069873809814,0.16801263391971588,-0.9123614430427551,-0.15139853954315186,-0.18685731291770935,-0.009269416332244873,0.9193238720643193,-0.015722123403136886,-0.20873928234658398,0.33320319088988026
1728331567234001700,2.890001708984375,-0.8559959530830383,0.014062306843698025,-0.41196227073669434,-0.37389135360717773,0.1775706559419632,-0.9103152751922607,-0.19735193252563477,0.09156377613544464,-0.15754055976867676,0.9199538331433793,-0.020941647441204823,-0.2107220936300627,0.3299131128490301
1728331567244032500,2.900032470703125,-0.11552024632692337,-0.0679851621389389,-0.07495547831058502,-0.37456560134887695,0.18074649572372437,-0.9094126224517822,-0.10680341720581055,0.34685656428337097,-0.20797324180603027,0.920288158594536,-0.022714702523110298,-0.21160749225154862,0.32829261280529903
1728331567254063600,2.910063720703125,-0.1288260668516159,0.03328084945678711,0.14599129557609558,-0.3746625483036041,0.18178562819957733,-0.9091655015945435,0.08521860837936401,0.3864668607711792,-0.12577706575393677,0.9201775658575799,-0.02316743823061396,-0.21185019296046448,0.3284144181861436
1728331567264094500,2.920094482421875,-0.2738860249519348,0.05235280841588974,0.03125565126538277,-0.37414777278900146,0.1839989721775055,-0.9089322686195374,0.13307419419288635,0.17458249628543854,0.08556795120239258,0.9200000820512902,-0.024246014285868606,-0.21200474208381334,0.32873392657553707
1728331567274125600,2.93012548828125,-0.6129665970802307,0.13528183102607727,-0.24807877838611603,-0.3734159469604492,0.1875324696302414,-0.9085109233856201,0.09431743621826172,-0.12547504901885986,0.10826373100280762,0.920250927715638,-0.026305770679082824,-0.21225583829195144,0.32770981764571505
1728331567284156700,2.94015673828125,-0.861601710319519,0.1165345087647438,-0.25389087200164795,-0.3727460503578186,0.19340483844280243,-0.9075543880462646,0.059895098209381104,-0.1529080867767334,0.19417548179626465,0.920724189096884,-0.029718654131414404,-0.2129310071750068,0.32564413664652453
1728331567294188500,2.9501884765625,-0.7619667649269104,0.05663628876209259,-0.1660262644290924,-0.3723546862602234,0.2001630961894989,-0.9062486886978149,0.09296625852584839,-0.019682198762893677,0.24540579319000244,0.9210247253781438,-0.03346455435000346,-0.2139059949688999,0.32378645217236357
1728331567304219400,2.960219482421875,-0.5171940326690674,0.07131616771221161,-0.11476414650678635,-0.3720913529396057,0.20541980862617493,-0.9051799178123474,0.06148344278335571,0.0889221578836441,0.1261882185935974,0.9212115603590848,-0.03635502379358225,-0.21468197394824567,0.3224268662518698
1728331567314250800,2.970250732421875,-0.4926230311393738,0.135428786277771,0.02020326256752014,-0.371199369430542,0.20978234708309174,-0.9045453667640686,-0.01384088397026062,0.1233932375907898,0.05188429355621338,0.9213102002658882,-0.03879012083743417,-0.21499448455086306,0.32165214955999283
1728331567324281600,2.980281494140625,-0.46200573444366455,0.12408691644668579,0.06080315634608269,-0.36988332867622375,0.2142273336648941,-0.9040425419807434,-0.0004779994487762451,0.10498647391796112,-0.011988341808319092,0.9212797516015342,-0.04122906711900714,-0.21512528032156042,0.32134839688865474
1728331567334312700,2.990312744140625,-0.5363278985023499,0.09824323654174805,0.004240276757627726,-0.36876556277275085,0.21886906027793884,-0.9033871293067932,0.0031497180461883545,0.040789663791656494,0.0018215179443359375,0.9212421127233655,-0.04375226539932991,-0.21538844841084406,0.3209461988141252
1728331567344343600,3.000343505859375,-0.6853613257408142,0.04926583543419838,-0.03437449410557747,-0.3681533634662628,0.22424611449241638,-0.9023174047470093,-0.00019377470016479492,-0.01564331352710724,0.023594319820404053,0.9212190009779021,-0.046630009075696505,-0.21602529283404157,0.32017829640300605
1728331567354374700,3.010374755859375,-0.7841795086860657,0.01775488629937172,-0.018750792369246483,-0.36789825558662415,0.23091213405132294,-0.9007388353347778,0.008965760469436646,-0.0445108562707901,0.05326569080352783,0.9211175155330976,-0.05011248462039473,-0.21706986905109496,0.31923630126936703
1728331567364405800,3.02040576171875,-0.6658552885055542,0.005708076059818268,-0.04446707293391228,-0.367866188287735,0.23743936419487,-0.8990533947944641,0.01462528109550476,-0.04322558641433716,0.02087956666946411,0.9209819107660175,-0.053491508820212676,-0.21820166654050105,0.3183063387528727
1728331567374436600,3.0304365234375,-0.4825075566768646,0.01135680079460144,-0.0796855166554451,-0.36790305376052856,0.24241086840629578,-0.8977106213569641,-0.017427116632461548,-0.000009819865226745605,-0.012415111064910889,0.9209439959901456,-0.056114469252133946,-0.2190795900263955,0.3173602404678654
1728331567384467700,3.0404677734375,-0.22308611869812012,-0.008119428530335426,-0.05875919386744499,-0.3680577874183655,0.24528859555721283,-0.8968650698661804,-0.03889411687850952,0.0764429122209549,-0.06198197603225708,0.9209607967963351,-0.057651796485876906,-0.21964455662263713,0.3166445423805045
1728331567394498600,3.05049853515625,-0.04125380516052246,-0.03546801954507828,-0.02975204586982727,-0.3683624565601349,0.24627940356731415,-0.8964684009552002,-0.03590390086174011,0.11915326118469238,-0.13078385591506958,0.9209705334019406,-0.05816178225539087,-0.21996139995783415,0.31630282766888423
1728331567404529700,3.06052978515625,0.038758739829063416,-0.02843380905687809,-0.021883469074964523,-0.36872434616088867,0.24608834087848663,-0.8963720798492432,-0.03767824172973633,0.1037498414516449,-0.12865233421325684,0.9209782200157256,-0.05803171391853352,-0.22010515737161068,0.31620443900122697
1728331567414560500,3.070560546875,-0.0629129558801651,-0.01925831474363804,0.013722460716962814,-0.3689354956150055,0.24612358212471008,-0.896275520324707,-0.04198366403579712,0.05157528817653656,-0.05121898651123047,0.9209609543668762,-0.05801943934064083,-0.2202180583559618,0.31617821406864843
1728331567424591600,3.080591552734375,-0.20083166658878326,-0.07204988598823547,0.04817870631814003,-0.3692343235015869,0.2474072426557541,-0.8957988619804382,-0.021070241928100586,-0.0029920339584350586,0.03871268033981323,0.9208199542547143,-0.05858283552987468,-0.2206096302468764,0.3162118337825394
1728331567434622500,3.09062255859375,-0.3645203411579132,-0.09356124699115753,0.03192996233701706,-0.36988604068756104,0.25011566281318665,-0.8947772979736328,0.012632012367248535,-0.04322183132171631,0.04443550109863281,0.9205710503271696,-0.05980522016621177,-0.22143773991227475,0.3161289079689284
1728331567444654600,3.100654541015625,-0.4103991389274597,-0.10271640121936798,-0.017613889649510384,-0.37072280049324036,0.2536951005458832,-0.8934223055839539,0.028163015842437744,-0.04258987307548523,0.025517642498016357,0.9203350527094315,-0.06149229440509622,-0.2225029217153177,0.3157443394131772
1728331567454685700,3.110685791015625,-0.32532501220703125,-0.15297625958919525,-0.04461168497800827,-0.37192684412002563,0.2568800747394562,-0.8920106887817383,0.022409021854400635,-0.01321256160736084,0.037609994411468506,0.920134410541141,-0.06296414600127252,-0.2236742820326216,0.3152108493414977
1728331567464716800,3.120716796875,-0.2561134397983551,-0.15358640253543854,-0.04602954909205437,-0.37344327569007874,0.2592932879924774,-0.8906778693199158,0.014312446117401123,0.01779097318649292,-0.008461534976959229,0.9199390619725275,-0.0639996080528168,-0.22486688285292616,0.3147235824373302
1728331567474747600,3.13074755859375,-0.10658560693264008,-0.09910637885332108,-0.015710528939962387,-0.3746873438358307,0.26083648204803467,-0.8897042870521545,-0.012763798236846924,0.04911521077156067,-0.03116363286972046,0.919785488082345,-0.06461979857388751,-0.22577010830181726,0.31439894007192676
1728331567484778800,3.14077880859375,0.017027411609888077,-0.060411445796489716,0.0008849599398672581,-0.37536078691482544,0.2611936628818512,-0.8893155455589294,-0.03438347578048706,0.06160593032836914,-0.03168970346450806,0.9196938484885788,-0.06469039380791132,-0.22617997524071723,0.3143579818866461
1728331567494809600,3.1508095703125,0.07833138108253479,-0.044311732053756714,0.008670443668961525,-0.37580397725105286,0.2607378363609314,-0.8892621397972107,-0.043965309858322144,0.06787535548210144,-0.016377508640289307,0.9196446768860349,-0.06436957806939927,-0.22633046749575492,0.31445953604823856
1728331567504840700,3.1608408203125,0.030527375638484955,-0.03255414217710495,0.042252641171216965,-0.3760870397090912,0.26028597354888916,-0.8892748355865479,-0.037868648767471313,0.05087116360664368,0.01906609535217285,0.919582644455459,-0.06405542809899284,-0.22640555770693319,0.3146509501545121
1728331567514871600,3.17087158203125,-0.056529562920331955,-0.027638427913188934,0.043146129697561264,-0.37618380784988403,0.2606104016304016,-0.8891388773918152,-0.014868438243865967,0.004480451345443726,0.047418296337127686,0.9194767813683491,-0.06414715347053437,-0.22652967678221825,0.31485225857499305
1728331567524902700,3.180902587890625,-0.1324530988931656,-0.042679429054260254,-0.0070081171579658985,-0.37621960043907166,0.26093363761901855,-0.8890289068222046,-0.0017406046390533447,-0.03926929831504822,0.02210080623626709,0.9194529331557676,-0.06430249024938237,-0.22660697707936037,0.3148345626597083
1728331567534933500,3.19093359375,-0.19660231471061707,-0.04696536064147949,-0.052398234605789185,-0.3765471279621124,0.26218196749687195,-0.8885228633880615,-0.0020539462566375732,-0.04637700319290161,-0.023098230361938477,0.9194218835105753,-0.06493066026065722,-0.22698585903546725,0.3145231949154616
1728331567544964600,3.200964599609375,-0.22829952836036682,-0.04502018913626671,-0.027864130213856697,-0.3768027424812317,0.26412826776504517,-0.8878377676010132,-0.009793907403945923,-0.009794861078262329,0.0004476308822631836,0.9193743999384059,-0.06593392471254884,-0.22745070424131034,0.31411718106714387
1728331567554995500,3.210995361328125,-0.16682538390159607,-0.04818018525838852,0.006452830974012613,-0.3770958185195923,0.26665449142456055,-0.8869577646255493,-0.009943366050720215,0.02643623948097229,0.0005136728286743164,0.9192044673331338,-0.06716334031754868,-0.22805743597012584,0.3139139123385424
1728331567565026600,3.221026611328125,0.07512786239385605,-0.003417510539293289,-0.016613606363534927,-0.37761279940605164,0.26813170313835144,-0.8862922191619873,-0.013286858797073364,0.030162274837493896,-0.024535417556762695,0.9190277790123559,-0.0677983073754577,-0.2285984888298645,0.3139011256030687
1728331567575058700,3.23105859375,0.19236640632152557,0.05692897364497185,-0.0393170528113842,-0.3779875934123993,0.26787132024765015,-0.8862112164497375,-0.029773026704788208,0.03530547022819519,-0.02515047788619995,0.918992183915101,-0.06759890906002186,-0.2287460860453052,0.31394106738524785
1728331567585089800,3.24108984375,0.23140649497509003,0.07806248962879181,0.00804060697555542,-0.3780631422996521,0.26687270402908325,-0.8864802122116089,-0.0396156907081604,0.07400855422019958,0.028661608695983887,0.9190226429662861,-0.0670694928818233,-0.22860789116804742,0.3140660421597195
1728331567595120600,3.25112060546875,0.33194807171821594,0.06565503031015396,0.017885779961943626,-0.3779841363430023,0.2646279036998749,-0.887186586856842,-0.01421251893043518,0.06621310114860535,0.01877838373184204,0.9190931375172855,-0.06590294286342563,-0.22817426405597466,0.3144219970976179
1728331567605151700,3.26115185546875,0.2505296468734741,0.10011234134435654,-0.03470152989029884,-0.37758228182792664,0.26091820001602173,-0.8884555697441101,-0.0067560672760009766,-0.001976609230041504,-0.020281612873077393,0.9193716223182185,-0.0641196601394511,-0.22729030429730446,0.31461658195616155
1728331567615182600,3.2711826171875,0.1051686555147171,0.0756232962012291,-0.041876085102558136,-0.376821905374527,0.25799524784088135,-0.8896312117576599,-0.027688592672348022,-0.03234833478927612,0.03498643636703491,0.919727134249912,-0.06285374833380361,-0.22634885280876005,0.3145115171950756
1728331567625213700,3.281213623046875,0.05342689901590347,0.016234273090958595,-0.011824976652860641,-0.3766885995864868,0.25714051723480225,-0.8899350762367249,-0.007680296897888184,-0.03269907832145691,0.041973650455474854,0.9198289861398711,-0.062474937139110606,-0.22611797828990005,0.31445532620444844
1728331567635244500,3.29124462890625,-0.04659577086567879,0.04079831391572952,-0.021425139158964157,-0.37665754556655884,0.2577243447303772,-0.8897793292999268,0.006967633962631226,-0.02251020073890686,0.0018550753593444824,0.9198026221231624,-0.06277516124311504,-0.22620703464720376,0.31440850493141553
1728331567645275600,3.301275634765625,-0.09831782430410385,0.038877107203006744,-0.00130069674924016,-0.37632137537002563,0.25908783078193665,-0.8895255327224731,-0.016638219356536865,0.009039521217346191,0.038207173347473145,0.9197748199925685,-0.0635234610356073,-0.22627858197562495,0.31428799335815316
1728331567655306500,3.311306396484375,-0.014119123108685017,0.03526186943054199,0.013835113495588303,-0.3763173818588257,0.2604231834411621,-0.8891372084617615,-0.006998628377914429,0.017347723245620728,0.030357301235198975,0.9196761306794318,-0.06417767720128807,-0.22652288988303487,0.31426810153623114
1728331567665337600,3.321337646484375,0.02638542838394642,0.05677541345357895,-0.011260120198130608,-0.37684595584869385,0.26240748167037964,-0.8883295655250549,0.00044214725494384766,0.0039040744304656982,0.01802927255630493,0.9194404653622772,-0.06504140312104031,-0.2271669517573335,0.3143152762800174
1728331567675368400,3.331368408203125,0.0009178840555250645,0.07597669959068298,0.0100928395986557,-0.37658798694610596,0.2640352249145508,-0.8879565596580505,-0.014601588249206543,0.010836541652679443,0.05305665731430054,0.9193211918538767,-0.06586286805260695,-0.22734069430821688,0.3143672921359607
1728331567685399600,3.341399658203125,0.024688459932804108,0.05912182107567787,0.032498545944690704,-0.3758893311023712,0.26374271512031555,-0.8883394598960876,-0.004420727491378784,0.018102288246154785,0.049075543880462646,0.9193952651467697,-0.06581623090257492,-0.22693279584149814,0.3144553434553422
1728331567695430400,3.351430419921875,-0.061655350029468536,0.07918708771467209,-0.0058965133503079414,-0.3765725791454315,0.2628336548805237,-0.8883195519447327,0.010041207075119019,-0.008088260889053345,0.04849100112915039,0.9194472991699275,-0.06530128562350082,-0.22710345469816684,0.31428733525501007
1728331567705461500,3.36146142578125,-0.15445107221603394,0.0852055624127388,-0.017263418063521385,-0.3764650821685791,0.2629408538341522,-0.8883333206176758,-0.0060727596282958984,-0.024766504764556885,0.10712909698486328,0.9195687695108481,-0.06545656357513878,-0.22704353178067915,0.3139425378877991
1728331567715493600,3.37149365234375,-0.23479783535003662,0.046740517020225525,-0.030266035348176956,-0.37599876523017883,0.26409733295440674,-0.8881877660751343,0.005393296480178833,-0.051649272441864014,0.16167104244232178,0.9196597533672181,-0.06619127084416271,-0.22699080590690773,0.31355991568596314
1728331567725524700,3.381524658203125,-0.3412265479564667,0.07882707566022873,0.02182486280798912,-0.37567025423049927,0.26671573519706726,-0.8875441551208496,0.006727993488311768,-0.08579233288764954,0.2081007957458496,0.9196204244504365,-0.06761777429160262,-0.22727903722944648,0.31316208993381145
1728331567735555600,3.3915556640625,-0.46521231532096863,0.06686969846487045,0.07715016603469849,-0.3750357925891876,0.27067649364471436,-0.8866128325462341,0.022374659776687622,-0.07858365774154663,0.19226163625717163,0.9194552329532983,-0.0697148967962235,-0.22766950447435286,0.31290321437624047
1728331567745586700,3.401586669921875,-0.42797306180000305,0.0701507180929184,0.11100161075592041,-0.3741277754306793,0.2750348150730133,-0.8856546878814697,0.03149166703224182,-0.05575084686279297,0.08465981483459473,0.9192262759856467,-0.0720111139198205,-0.228006671885398,0.3128105873816689
1728331567755617500,3.411617431640625,-0.2659977674484253,0.05558018758893013,-0.010136266238987446,-0.3736656606197357,0.27867257595062256,-0.8847121596336365,0.03160938620567322,-0.019181668758392334,-0.1242142915725708,0.9190308653329113,-0.07390471249993456,-0.22843384728091398,0.312631317271388
1728331567765648600,3.421648681640625,-0.10050680488348007,0.029599986970424652,-0.20218585431575775,-0.37361887097358704,0.2795408070087433,-0.8844579458236694,-0.015953272581100464,0.02084365487098694,-0.24145758152008057,0.9192128506041967,-0.07451937217299164,-0.22851231122819524,0.31189233204992584
1728331567775679500,3.431679443359375,-0.0023122639395296574,0.05971042811870575,-0.15529797971248627,-0.37366920709609985,0.2794608771800995,-0.8844619393348694,-0.07141441106796265,0.10220715403556824,-0.17777866125106812,0.9195488459587098,-0.07471781463347789,-0.22844314272975288,0.31090341937873184
1728331567785710600,3.441710693359375,0.10145781189203262,0.017943542450666428,-0.03357474505901337,-0.37364667654037476,0.2785465121269226,-0.8847598433494568,-0.060404837131500244,0.14052078127861023,-0.08006864786148071,0.9197448697715864,-0.07436011933016558,-0.22823375319787462,0.31056284860263017
1728331567795741400,3.451741455078125,-0.005178491119295359,0.16789458692073822,0.012318441644310951,-0.37285086512565613,0.278017520904541,-0.8852617740631104,-0.05761483311653137,0.06274166703224182,-0.013923406600952148,0.919885866161527,-0.07423685866972791,-0.2277234928866019,0.3105491168549674
1728331567805772500,3.4617724609375,-0.06514967978000641,0.2271786779165268,0.038458168506622314,-0.37090468406677246,0.27840927243232727,-0.8859559893608093,-0.07018110156059265,-0.03362789750099182,0.11009234189987183,0.9200683463073123,-0.07474442398995758,-0.2267934957175685,0.31056735669749985
1728331567815803600,3.4718037109375,-0.20867149531841278,0.240017831325531,0.034009359776973724,-0.3687363862991333,0.27970266342163086,-0.8864535093307495,-0.010856479406356812,-0.09023436903953552,0.156427264213562,0.9202328671440885,-0.07575385877418925,-0.22590835867792478,0.31048052421524164
1728331567825834500,3.48183447265625,-0.33697646856307983,0.2012733668088913,0.08759668469429016,-0.36647680401802063,0.28248149156570435,-0.8865094184875488,0.02890661358833313,-0.05935230851173401,0.16301393508911133,0.9202869374425947,-0.07750951275260382,-0.22525001793199625,0.310365135981489
1728331567835865600,3.491865478515625,-0.24123236536979675,0.14524535834789276,-0.019912198185920715,-0.3648616671562195,0.2852588891983032,-0.8862862586975098,0.06337851285934448,-0.014095008373260498,0.036158084869384766,0.9202887668063613,-0.07917555047742005,-0.22491799472148194,0.31018003755798346
1728331567845896400,3.501896484375,-0.2206980586051941,0.11633621156215668,-0.12521278858184814,-0.3639311194419861,0.2869163155555725,-0.8861338496208191,0.023293912410736084,0.003519386053085327,-0.053151488304138184,0.920479840584542,-0.08030597703838047,-0.22468652316582613,0.30948953456801503
1728331567855927800,3.511927734375,-0.2435702234506607,0.1345295011997223,-0.03672872856259346,-0.3630695641040802,0.28866246342658997,-0.8859201073646545,-0.0222758948802948,0.04153767228126526,-0.02521270513534546,0.9206662153719799,-0.08147736710846995,-0.22450251054459522,0.30876170317841
1728331567865959700,3.521959716796875,-0.25842854380607605,0.11441703140735626,0.022866424173116684,-0.36196085810661316,0.2907935678958893,-0.8856768012046814,-0.004738360643386841,0.049690961837768555,-0.019108355045318604,0.9207040967045712,-0.08277533190649765,-0.22429854388636222,0.30845137234667697
1728331567875990500,3.531990478515625,-0.29013365507125854,0.20223790407180786,-0.0007816464640200138,-0.360495001077652,0.29336774349212646,-0.8854257464408875,-0.028573572635650635,0.022840052843093872,-0.03178006410598755,0.920749696000612,-0.08435523488823356,-0.22398957994703295,0.3081117001477191
1728331567886021600,3.542021728515625,-0.15559422969818115,0.18650475144386292,-0.0027089761570096016,-0.3587488532066345,0.29529446363449097,-0.8854944705963135,-0.05284172296524048,0.01439782977104187,-0.0603216290473938,0.9208823225059959,-0.08566396993201839,-0.22341542992107258,0.30777104427756957
1728331567896052500,3.552052490234375,-0.15441904962062836,0.2350502908229828,0.03897428885102272,-0.3568277955055237,0.29673507809638977,-0.8857890367507935,-0.02404683828353882,0.030443787574768066,-0.08463943004608154,0.9210247001081816,-0.08672534637335307,-0.2226750839494291,0.3075842712556626
1728331567906083600,3.56208349609375,0.08263638615608215,0.23895154893398285,-0.03102210722863674,-0.35462290048599243,0.2971465289592743,-0.8865362405776978,-0.009604394435882568,0.06076356768608093,-0.044478774070739746,0.9212533017524396,-0.08730189626113681,-0.22160832132657754,0.3075069771216886
1728331567916114700,3.57211474609375,0.13419277966022491,0.2922000288963318,-0.08795277029275894,-0.352493554353714,0.2957782745361328,-0.887842059135437,-0.03694126009941101,0.039808183908462524,-0.09346592426300049,0.9217121128908854,-0.08705104681617398,-0.22022961747897715,0.30719360665843143
1728331567926145500,3.5821455078125,0.08243478089570999,0.3012172281742096,-0.012888110242784023,-0.34990596771240234,0.2945915162563324,-0.8892590403556824,-0.06424808502197266,0.04621347784996033,0.019401252269744873,0.9221854868279699,-0.08695090077224456,-0.21865500733059076,0.3069259387880056
1728331567936176600,3.5921767578125,-0.18818286061286926,0.22737395763397217,0.02266908437013626,-0.3475000560283661,0.294913649559021,-0.8900952935218811,-0.01814630627632141,0.02578023076057434,0.1001783013343811,0.9224510733148344,-0.0875232518224243,-0.2174672995546762,0.30680892070685273
1728331567946207500,3.60220751953125,-0.5622906684875488,0.16451482474803925,0.1305588036775589,-0.3455336391925812,0.29853054881095886,-0.8896549940109253,-0.0011460483074188232,-0.03623202443122864,0.1433323621749878,0.922393545527155,-0.08965344760597188,-0.21710540661742372,0.3066229797794742
1728331567956238600,3.612238525390625,-0.6539668440818787,0.1806349903345108,0.22469595074653625,-0.343430757522583,0.30497029423713684,-0.8882839679718018,0.04914975166320801,-0.0681692361831665,0.08438992500305176,0.9219924994978057,-0.09312489400687274,-0.21722283932491526,0.30671127996499664
1728331567966269400,3.62226953125,-0.27983561158180237,0.18073245882987976,0.13288933038711548,-0.34123000502586365,0.3098171651363373,-0.8874544501304626,0.06886062026023865,0.0019350945949554443,-0.15388160943984985,0.9216862794304237,-0.09579665435179867,-0.21701559859624253,0.30695544288826276
1728331567976300500,3.632300537109375,0.09168999642133713,0.19082051515579224,0.11270443350076675,-0.3391619622707367,0.3109935522079468,-0.887835681438446,-0.036387354135513306,0.12684208154678345,-0.25249940156936646,0.9216774798072871,-0.09662590423679959,-0.21620728385276486,0.3072923707183366
1728331567986331600,3.64233154296875,0.4153226613998413,0.1319872885942459,0.20115254819393158,-0.3372039794921875,0.309238076210022,-0.889193594455719,-0.0596160888671875,0.25021010637283325,-0.128476083278656,0.9217355190709552,-0.09586216398985778,-0.21497356492951944,0.3082214870033713
1728331567996362800,3.65236279296875,0.7348912358283997,0.0886562168598175,0.22850054502487183,-0.33553212881088257,0.3047872483730316,-0.8913601636886597,-0.02626901865005493,0.2550881803035736,-0.028012394905090332,0.9217902749674417,-0.09358256563400062,-0.2134530864939357,0.309811034856498
1728331568006394600,3.66239453125,1.078127384185791,0.12446162104606628,0.24522466957569122,-0.3339012563228607,0.2974792718887329,-0.8944361805915833,-0.03812327980995178,0.17160633206367493,0.029552698135375977,0.9219473134316897,-0.08981215902221493,-0.21146086827398622,0.31181921499410153
1728331568016425700,3.67242578125,1.18905770778656,0.16191142797470093,0.29062169790267944,-0.3318096995353699,0.28795602917671204,-0.8983227014541626,-0.06064635515213013,0.1271897852420807,0.0626751184463501,0.9221956695706526,-0.0849696842737258,-0.2088511549051091,0.3141918699424037
1728331568026456600,3.68245654296875,1.165984869003296,0.16601721942424774,0.35858795046806335,-0.32930079102516174,0.2783796787261963,-0.9022558927536011,-0.07064732909202576,0.11572426557540894,0.07272708415985107,0.9223475125432071,-0.08012547281714076,-0.20603871460855958,0.3168642977034239
1728331568036487700,3.69248779296875,0.9752936959266663,0.10878439247608185,0.3151438236236572,-0.327118843793869,0.2695810794830322,-0.9057148098945618,-0.03394988179206848,0.03188672661781311,-0.04551810026168823,0.9223712064699697,-0.07563301506305618,-0.2035245456760369,0.31951340971822184
1728331568046519000,3.70251904296875,0.7849376201629639,0.031681351363658905,0.20260369777679443,-0.32571667432785034,0.262599378824234,-0.9082676768302917,0.013186156749725342,-0.07795286178588867,-0.15661269426345825,0.9223483703820692,-0.07203780816175642,-0.20168467053329792,0.3215699837249396
1728331568056550100,3.712550048828125,0.8986586928367615,-0.059044767171144485,0.08538439869880676,-0.3255058526992798,0.25549957156181335,-0.9103658199310303,0.06989064812660217,-0.1059025228023529,-0.16374611854553223,0.9223865532704466,-0.06831275124748785,-0.20037581340676114,0.32308800132118715
1728331568066581200,3.722581298828125,0.8983122110366821,-0.08628758043050766,-0.014860447496175766,-0.32608330249786377,0.24710790812969208,-0.912473201751709,0.08456718921661377,-0.08069564402103424,-0.16240167617797852,0.9225751986771806,-0.0639311111473018,-0.19918888167233428,0.3241782231813775
1728331568076612400,3.7326123046875,0.6606631278991699,-0.12565714120864868,-0.008643297478556633,-0.32706591486930847,0.23992088437080383,-0.9140382409095764,0.05887743830680847,-0.004462599754333496,0.01663827896118164,0.9227452245789696,-0.06014612562296706,-0.19840195728581209,0.3249004951015333
1728331568086643200,3.742643310546875,0.6199777722358704,-0.16064947843551636,0.04066113755106926,-0.3283006250858307,0.23415037989616394,-0.9150913953781128,0.05402389168739319,0.03982110321521759,0.1634587049484253,0.9227670264477622,-0.05699770038906897,-0.19800392870334826,0.3256480505614768
1728331568096674300,3.75267431640625,0.6193109750747681,-0.14372003078460693,0.03284742310643196,-0.32968857884407043,0.228641077876091,-0.915985107421875,0.036063700914382935,-0.020236626267433167,0.087005615234375,0.9227074748278951,-0.053927804557462475,-0.19773528593349973,0.32650193732178767
1728331568106705200,3.762705078125,0.5868433117866516,-0.0595494881272316,-0.025463024154305458,-0.33055341243743896,0.22301247715950012,-0.9170604348182678,-0.013196587562561035,-0.05701218545436859,0.05762439966201782,0.9227654290069823,-0.050934285565179815,-0.1971686417468824,0.3271607554832531
1728331568116736300,3.772736328125,0.6066589951515198,-0.03526391088962555,-0.02974911592900753,-0.33101755380630493,0.21750549972057343,-0.9182149767875671,-0.05292406678199768,0.0003899186849594116,0.04379481077194214,0.9229311468457997,-0.04812259404083002,-0.19640960700663654,0.3275751534656789
1728331568126767000,3.78276708984375,0.9146996140480042,-0.05558249354362488,0.006758828181773424,-0.3314555883407593,0.21056601405143738,-0.9196733832359314,-0.04522287845611572,0.06120818853378296,-0.019657671451568604,0.9230731026071026,-0.04456753017014906,-0.19538946009666538,0.3282875011611566
1728331568136798200,3.792798095703125,1.0738816261291504,-0.04256235808134079,-0.019083421677350998,-0.33191320300102234,0.20117701590061188,-0.9216080904006958,-0.018825292587280273,0.08550500869750977,-0.0810011625289917,0.9232518031108471,-0.03978559245188621,-0.19394090560574,0.32925692753792346
1728331568146830000,3.802830078125,1.1917792558670044,-0.09647645801305771,0.03504079952836037,-0.3325249254703522,0.1907598227262497,-0.9236004948616028,-0.024561256170272827,0.14790891110897064,-0.002058684825897217,0.9233919688517725,-0.03446049273830868,-0.1923856245583648,0.3303748460905679
1728331568156861200,3.812861083984375,1.3833180665969849,-0.12101221084594727,0.03929653391242027,-0.33345600962638855,0.1789669245481491,-0.9256229996681213,0.02603718638420105,0.13363979756832123,0.03196150064468384,0.9234175112482973,-0.02835980515849215,-0.19074650016747358,0.33183057502846647
1728331568166892000,3.82289208984375,1.4401136636734009,-0.09852740913629532,-0.014257507398724556,-0.33445239067077637,0.16570551693439484,-0.9277302026748657,0.03663134574890137,0.0936022698879242,-0.005329489707946777,0.9234780437539424,-0.021564319096874784,-0.18886473943483467,0.3332468783140934
1728331568176923100,3.832923095703125,1.4759414196014404,-0.13377194106578827,0.04018469527363777,-0.33539649844169617,0.1522645354270935,-0.9296906590461731,0.029869765043258667,0.12610147893428802,0.055835068225860596,0.9234950796569277,-0.014701486681502406,-0.18691853729643607,0.334667258852409
1728331568186954000,3.8429541015625,1.476711630821228,-0.15578803420066833,0.08263814449310303,-0.3366675078868866,0.13854824006557465,-0.9313749670982361,0.0913214385509491,0.13304287195205688,0.08263534307479858,0.9233359674059142,-0.007603374354879058,-0.18508022717927353,0.3363603659742907
1728331568196985300,3.8529853515625,1.355517864227295,-0.20174886286258698,0.10956057161092758,-0.3381844162940979,0.1255929321050644,-0.9326616525650024,0.1216011643409729,0.10246485471725464,0.07563650608062744,0.923040862798066,-0.0008174254997029625,-0.18348981511885426,0.3381220436148073
1728331568207016200,3.86301611328125,1.2018135786056519,-0.20734895765781403,0.1257139891386032,-0.33994728326797485,0.1140093058347702,-0.9335082769393921,0.12899452447891235,0.05177736282348633,0.08467710018157959,0.9226353900250671,0.005348909063014897,-0.18225597884799638,0.3398502855220511
1728331568217047300,3.87304736328125,0.9942528605461121,-0.17694178223609924,0.09802668541669846,-0.3416087031364441,0.1040961891412735,-0.9340596795082092,0.11933395266532898,-0.0017250403761863708,0.14896446466445923,0.9222228512792563,0.010659355942429347,-0.18126372582645256,0.3413721895711872
1728331568227078100,3.883078125,0.8310554027557373,-0.1463143676519394,0.04301696643233299,-0.3430328667163849,0.09580433368682861,-0.9344249367713928,0.06837466359138489,-0.0012304335832595825,0.19908863306045532,0.9219004713543668,0.015079164500420428,-0.1804443122288727,0.34250820542854477
1728331568237109200,3.893109130859375,0.7029171586036682,-0.12545809149742126,0.049774739891290665,-0.3442832827568054,0.088698610663414,-0.9346665740013123,0.006453722715377808,0.007782630622386932,0.16783612966537476,0.9216374655287354,0.018853847210431818,-0.17975332444572098,0.3433912396260987
1728331568247140000,3.90314013671875,0.4586440324783325,-0.06755217909812927,0.0953289046883583,-0.34511253237724304,0.08340442925691605,-0.9348481297492981,-0.03626564145088196,-0.03437800705432892,0.049762070178985596,0.9213701013766032,0.021683958632561066,-0.17918074332156675,0.3442399258754488
1728331568257171200,3.913171142578125,0.24591559171676636,-0.06982220709323883,0.10902687162160873,-0.34558287262916565,0.08051233738660812,-0.9349279403686523,-0.07507142424583435,-0.09784639626741409,0.057608604431152344,0.921091527191307,0.023298828615882686,-0.17886643296457413,0.34504250968502265
1728331568267202000,3.9232021484375,-0.05831734463572502,-0.12623557448387146,0.03983369097113609,-0.3463858366012573,0.07976064085960388,-0.9346951842308044,-0.10962304472923279,-0.14329829812049866,0.08355993032455444,0.9208618749467339,0.023891652724358788,-0.17911338277440092,0.34548636030007157
1728331568277233200,3.933233154296875,-0.5862034559249878,-0.215791717171669,0.021013930439949036,-0.34799501299858093,0.08276218920946121,-0.9338361024856567,-0.14965513348579407,-0.16697552800178528,0.13302433490753174,0.9206999638644444,0.022733184362351413,-0.1804581592210581,0.34529632036908336
1728331568287265000,3.94326513671875,-1.272392988204956,-0.2212221771478653,0.03939560055732727,-0.3499516248703003,0.09126557409763336,-0.9323113560676575,-0.1804591417312622,-0.25426003336906433,0.18518000841140747,0.9205577201352447,0.0189244400520897,-0.1829923212668124,0.34457088745984166
1728331568297296100,3.953296142578125,-1.7665164470672607,-0.18965592980384827,0.13865694403648376,-0.351780503988266,0.10596732050180435,-0.9300652742385864,-0.225673109292984,-0.3654736280441284,0.23849117755889893,0.9203242158589064,0.012090061791045733,-0.1866043969787366,0.343563382990094
1728331568307327000,3.963326904296875,-2.369513988494873,-0.10841754078865051,0.13570615649223328,-0.3531379699707031,0.12555228173732758,-0.9271085262298584,-0.2610740661621094,-0.43887633085250854,0.2507779598236084,0.9200037025951224,0.0027809703036535257,-0.1908874419506172,0.34226790096505466
1728331568317358000,3.973358154296875,-2.4040987491607666,-0.14764142036437988,0.125954732298851,-0.35392317175865173,0.14888590574264526,-0.9233478903770447,-0.3040510416030884,-0.3787291646003723,0.22753190994262695,0.9196446957518062,-0.008536124473857973,-0.1955842050091145,0.340481245442438
1728331568327389200,3.98338916015625,-1.79573655128479,-0.2646673917770386,0.11107564717531204,-0.3556593656539917,0.1685904562473297,-0.9192843437194824,-0.2973099648952484,-0.2696037292480469,-0.12418794631958008,0.9190980949360563,-0.017919846104807614,-0.20009177844109838,0.3389701110607956
1728331568337420300,3.993420166015625,-1.2816814184188843,-0.4378722310066223,0.07941704988479614,-0.35866814851760864,0.183309867978096,-0.9152894020080566,-0.23967474699020386,-0.10224001109600067,-0.48150020837783813,0.9184168449517907,-0.02462926306656402,-0.20432500813276017,0.33786860584642675
1728331568347451100,4.003451171875,-0.4420740604400635,-0.4925557076931,0.030396511778235435,-0.3629496693611145,0.19131715595722198,-0.9119568467140198,-0.126109778881073,0.18220265209674835,-0.5431212782859802,0.9177180893886097,-0.02779976092051704,-0.20796334120384694,0.3373009662810238
1728331568357482200,4.013482177734375,0.11657684296369553,-0.394134521484375,0.02712162397801876,-0.36698246002197266,0.19267237186431885,-0.9100556373596191,-0.0021581649780273438,0.3998416066169739,-0.5008177757263184,0.917186397496709,-0.027705652072168976,-0.21024886937172474,0.3373380245918737
1728331568367513000,4.02351318359375,0.23887158930301666,-0.2969973087310791,0.07840930670499802,-0.3699553608894348,0.19090703129768372,-0.9092235565185547,0.1238311231136322,0.4686387777328491,-0.20991700887680054,0.9167834975334958,-0.0262114546871699,-0.21142650865698723,0.33781614084508976
1728331568377544200,4.033544189453125,-0.10708987712860107,-0.2844906151294708,0.18293413519859314,-0.3723118007183075,0.19053485989570618,-0.9083393812179565,0.262860506772995,0.31378328800201416,0.05522042512893677,0.9162677387398265,-0.025430995226544725,-0.21256430869701126,0.33856027242266584
1728331568387575000,4.043574951171875,-0.8527406454086304,-0.3268631100654602,0.213467538356781,-0.3746013045310974,0.19559627771377563,-0.9063200354576111,0.3825511336326599,0.053930625319480896,0.2549527883529663,0.9155361231243281,-0.027313145282897595,-0.21469510525956056,0.33904809343640824
1728331568397606100,4.053606201171875,-1.2302590608596802,-0.41352328658103943,0.016492148861289024,-0.37774088978767395,0.20586252212524414,-0.9027360677719116,0.41654399037361145,-0.1468416154384613,0.3454393148422241,0.9147453941580388,-0.031760415843695045,-0.21822749354984858,0.33853923375752004
1728331568407637000,4.063636962890625,-1.0590252876281738,-0.4063921272754669,-0.3117499053478241,-0.3818040192127228,0.2159045785665512,-0.8986717462539673,0.29456955194473267,-0.17897838354110718,0.2661186456680298,0.9143433354855226,-0.036282505624757454,-0.2221434504164556,0.3366186327059727
1728331568417668000,4.073668212890625,-0.590049147605896,-0.2149086594581604,-0.36283841729164124,-0.38545921444892883,0.22200597822666168,-0.8956196308135986,0.029792100191116333,0.047128453850746155,0.16884350776672363,0.9144525978357814,-0.03917087738750117,-0.22506847831099097,0.3340453589124712
1728331568427700000,4.083699951171875,-0.0035896492190659046,0.014170856215059757,0.03867734596133232,-0.38674357533454895,0.22387637197971344,-0.8945997953414917,-0.16957661509513855,0.3029179871082306,0.1665877103805542,0.9145806105539482,-0.04011110182079727,-0.22603362915209257,0.3329298682694591
1728331568437731000,4.09373095703125,0.2278893142938614,0.21519573032855988,0.4197993874549866,-0.3850727081298828,0.2236728072166443,-0.89537113904953,-0.2009868621826172,0.30388450622558594,0.08177250623703003,0.9143347986804228,-0.04000671300301976,-0.22519744458167587,0.3341817282544474
1728331568447762200,4.10376220703125,0.16633887588977814,0.2648836374282837,0.3484780788421631,-0.3819425702095032,0.22320663928985596,-0.896826982498169,-0.16217058897018433,0.08549384772777557,-0.25077128410339355,0.9139566441934257,-0.039832029272691805,-0.2236066076204889,0.3362985229418481
1728331568457793300,4.113793212890625,-0.09776447713375092,0.25519683957099915,0.035330019891262054,-0.37905633449554443,0.22370222210884094,-0.8979274034500122,-0.12033328413963318,-0.1102684736251831,-0.2922276258468628,0.9139505899321188,-0.040391878111607375,-0.22227192305650464,0.3371317780498249
1728331568467824000,4.12382421875,-0.23542088270187378,0.07754828035831451,-0.08596339076757431,-0.3776334822177887,0.22501006722450256,-0.8982000946998596,-0.0635133683681488,-0.12231849133968353,-0.17125791311264038,0.9141742336367402,-0.04137541265634336,-0.221783749317161,0.3367275321688901
1728331568477855200,4.133855224609375,-0.2715754806995392,0.025918006896972656,-0.015882834792137146,-0.3773733377456665,0.227156400680542,-0.8977690935134888,0.010780930519104004,-0.08749279379844666,-0.020245492458343506,0.9142603036303345,-0.04258539016463545,-0.22204042421312534,0.3361733283696283
1728331568487886000,4.143885986328125,-0.10115555673837662,0.14984580874443054,0.014986930415034294,-0.3766801059246063,0.22890791296958923,-0.8976153135299683,0.006776541471481323,-0.024608075618743896,0.07498347759246826,0.9142882037973163,-0.04359665246560373,-0.22201729569435727,0.3359830700791376
1728331568497917200,4.153917236328125,0.05053577199578285,0.34837284684181213,0.009313598275184631,-0.37434008717536926,0.2291298657655716,-0.8985371589660645,-0.05678170919418335,0.04558928310871124,0.13648265600204468,0.9145633950544348,-0.04414208841979313,-0.22086852611875496,0.3359201777877999
1728331568507948300,4.1639482421875,0.20737332105636597,0.36117732524871826,0.0723884329199791,-0.3709624409675598,0.22803844511508942,-0.9002140760421753,-0.056451499462127686,0.09888103604316711,0.1677006483078003,0.9149275591267385,-0.04416859099633879,-0.21895685581914157,0.3361765566415249
1728331568517979100,4.173979248046875,0.11920864135026932,0.32259833812713623,0.09419386833906174,-0.3676286041736603,0.226694718003273,-0.9019194841384888,0.02668622136116028,0.06221511960029602,0.14183342456817627,0.9152069634730434,-0.04400709612089735,-0.21703372827406137,0.33668386808107603
1728331568528010200,4.18401025390625,-0.23112033307552338,0.19773471355438232,0.20215362310409546,-0.3648849129676819,0.22768671810626984,-0.9027833342552185,0.07144314050674438,0.009495824575424194,0.1635865569114685,0.9152359485551393,-0.04484540013839475,-0.21586388217891408,0.33724602678907106
1728331568538041000,4.194041015625,-0.38739684224128723,0.07725794613361359,0.13264939188957214,-0.3632562756538391,0.2313484251499176,-0.9025091528892517,0.11997014284133911,-0.038050174713134766,0.04870361089706421,0.9149887527501611,-0.04678282398679382,-0.21577020978021483,0.3377132433959347
