time,seconds_elapsed,rotationRateX,rotationRateY,rotationRateZ,gravityX,gravityY,gravityZ,accelerationX,accelerationY,accelerationZ,quaternionW,quaternionX,quaternionY,quaternionZ
1728332377570920000,0.125919921875,-0.135431706905365,0.003196342848241329,-0.06345061957836151,-0.1133129671216011,-0.2879508137702942,-0.9509177207946777,-0.03674193471670151,0.005113959312438965,-0.017954349517822266,0.9876532324945629,0.14577525319120424,-0.05736475330960643,1.7573630784701384e-17
1728332377580951000,0.135950927734375,-0.10364767163991928,-0.03664294630289078,-0.05902577564120293,-0.11276555061340332,-0.2875377833843231,-0.9511077404022217,-0.001904219388961792,0.017655640840530396,-0.03508305549621582,0.9877012041891414,0.14553564417431178,-0.05714455685804083,-0.00040519793918994846
1728332377590982000,0.14598193359375,-0.07630506902933121,-0.05889483168721199,-0.04585644602775574,-0.11236235499382019,-0.2865470051765442,-0.9514544010162354,0.007091991603374481,0.032289862632751465,-0.06240057945251465,0.9877887176001238,0.1450001606431015,-0.056988981317191274,-0.0007716935269149316
1728332377601013000,0.156012939453125,-0.0728483498096466,-0.07332256436347961,-0.041859306395053864,-0.11247400939464569,-0.2856087386608124,-0.9517232775688171,-0.0034927576780319214,0.04375699162483215,-0.08021336793899536,0.9878565010257979,0.14449823465980552,-0.05708423851451387,-0.0010659666324901859
1728332377611043000,0.16604296875,-0.07435277104377747,-0.10325968265533447,-0.02807292342185974,-0.11301267892122269,-0.28461310267448425,-0.9519577026367188,-0.015298448503017426,0.046331942081451416,-0.09740447998046875,0.9879155161642375,0.14397002048225502,-0.05739139208161193,-0.0013301828263650292
1728332377621074000,0.176073974609375,-0.03131302446126938,-0.14308427274227142,-0.019367847591638565,-0.11402978748083115,-0.28374749422073364,-0.9520948529243469,-0.00947481393814087,0.050425440073013306,-0.10622423887252808,0.9879499013523783,0.14351355862822368,-0.05793480535043379,-0.0015454284542638966
1728332377631105000,0.18610498046875,-0.002079503843560815,-0.17582544684410095,-0.04340633749961853,-0.11561698466539383,-0.28355908393859863,-0.9519595503807068,-0.00619390606880188,0.056508392095565796,-0.11417210102081299,0.9879152187980612,0.14340672661283835,-0.058777063898888655,-0.0018009294264181963
1728332377641135900,0.196135986328125,0.015408276580274105,-0.22057977318763733,-0.05707847326993942,-0.11767439544200897,-0.2836649417877197,-0.9516758322715759,-0.02046339213848114,0.062671959400177,-0.11132770776748657,0.9878426979182839,0.14344619751490834,-0.05987704313649296,-0.0021743526968031426
1728332377651167000,0.2061669921875,0.04367426782846451,-0.2545723617076874,-0.06766293942928314,-0.11991605907678604,-0.2839648425579071,-0.9513065218925476,-0.01770292967557907,0.06091192364692688,-0.09041100740432739,0.9877482166639319,0.14358152489956477,-0.06108255182837137,-0.0026197834424823273
1728332377661197000,0.216197021484375,0.040624748915433884,-0.2716014087200165,-0.11305385828018188,-0.12213499844074249,-0.284389853477478,-0.950897216796875,-0.02204526960849762,0.0380215048789978,-0.07154852151870728,0.9876426977516181,0.1437691155749345,-0.0623044630922282,-0.0032485997432511182
1728332377671228000,0.226227783203125,0.01865500397980213,-0.3000018894672394,-0.1121920645236969,-0.12441591173410416,-0.28461360931396484,-0.950534462928772,-0.046665601432323456,0.01050478219985962,-0.05102193355560303,0.9875480721853286,0.1438425511301563,-0.06357739010473405,-0.0040166984987943365
1728332377681259000,0.236259033203125,0.013312235474586487,-0.3082048296928406,-0.1277148276567459,-0.12693104147911072,-0.2846504747867584,-0.9501908421516418,-0.040473103523254395,0.007657736539840698,-0.03517603874206543,0.9874574472641622,0.14381584461733427,-0.06497372787998533,-0.004820527234675447
1728332377691289900,0.246289794921875,0.014375103637576103,-0.31361985206604004,-0.15805594623088837,-0.12942197918891907,-0.28470224142074585,-0.9498392343521118,-0.046679675579071045,0.015766143798828125,-0.050877928733825684,0.9873634695667863,0.14378650235566914,-0.06637634631882944,-0.00574870641683739
1728332377701321000,0.256321044921875,0.019154611974954605,-0.3277726173400879,-0.17846082150936127,-0.13191890716552734,-0.2847983241081238,-0.9494668245315552,-0.058556511998176575,0.017861157655715942,-0.05669766664505005,0.9872623579081621,0.14376883400231832,-0.06780188629121897,-0.006808117645529588
1728332377711351800,0.266351806640625,0.029192863032221794,-0.34544989466667175,-0.15867912769317627,-0.13456299901008606,-0.2849620282649994,-0.9490466117858887,-0.05633968114852905,0.014164358377456665,-0.054066240787506104,0.9871481034671422,0.14378319091211664,-0.06930436019970138,-0.007874120520732539
1728332377721382000,0.2763818359375,0.024724414572119713,-0.36072248220443726,-0.14826802909374237,-0.1374541074037552,-0.2851119041442871,-0.94858717918396,-0.043637171387672424,0.013917505741119385,-0.045980751514434814,0.9870233311110945,0.1437930670450062,-0.07092234078826996,-0.008866549082064018
1728332377731413000,0.2864130859375,0.030526908114552498,-0.3823132812976837,-0.14005698263645172,-0.14054349064826965,-0.2852647602558136,-0.9480883479118347,-0.03546661138534546,0.010118365287780762,-0.03155642747879028,0.9868878090742265,0.1438037949725067,-0.07263805233019995,-0.009831899151927606
1728332377741443800,0.29644384765625,0.048412833362817764,-0.38332685828208923,-0.16337640583515167,-0.14373980462551117,-0.2858619689941406,-0.9474290609359741,-0.03384193778038025,0.003482908010482788,-0.012165665626525879,0.9867102963064255,0.1440388310429176,-0.07441967346968273,-0.010835648774792034
1728332377751475000,0.306474853515625,-0.001877236645668745,-0.3622990846633911,-0.2036426067352295,-0.1467178463935852,-0.2864055633544922,-0.9468081593513489,-0.0517532080411911,-0.003908067941665649,0.001037895679473877,0.9865392856188855,0.14422927725206347,-0.07611716872732019,-0.012020134861711234
1728332377761505800,0.316505859375,-0.09110971540212631,-0.3479079604148865,-0.2052980363368988,-0.14943861961364746,-0.28624749183654785,-0.9464303851127625,-0.06781598925590515,-0.001197516918182373,0.00018709897994995117,0.9864267746692346,0.1440436855034337,-0.07769312396053063,-0.013324182136856311
1728332377771536000,0.326535888671875,-0.13634084165096283,-0.36056196689605713,-0.1758250892162323,-0.15220098197460175,-0.28541767597198486,-0.9462407827377319,-0.04880301654338837,0.006715953350067139,-0.0020776987075805664,0.9863611545073044,0.14351169161383182,-0.07927171317402137,-0.014563585216262734
1728332377781567000,0.33656689453125,-0.17790360748767853,-0.3864682614803314,-0.17067134380340576,-0.15521948039531708,-0.2841890752315521,-0.9461202025413513,-0.02300316095352173,0.0169772207736969,-0.02404886484146118,0.9863123693278654,0.14277352885482505,-0.0809666912708351,-0.01575018939561978
1728332377791597800,0.346597900390625,-0.19505435228347778,-0.4340437948703766,-0.19201897084712982,-0.15852417051792145,-0.2826539874076843,-0.9460321664810181,-0.010970428586006165,0.04591396450996399,-0.05628722906112671,0.9862690721808266,0.14186611251927353,-0.08281266181539225,-0.01701237750678974
1728332377801629000,0.35662890625,-0.1314755082130432,-0.5396047830581665,-0.19369304180145264,-0.16254322230815887,-0.28135207295417786,-0.9457381963729858,0.011496484279632568,0.08397969603538513,-0.08145296573638916,0.9861702363496226,0.14106486993108083,-0.08503885458799336,-0.018368710577696845
1728332377811660000,0.366659912109375,-0.08832857012748718,-0.5724298357963562,-0.2319972813129425,-0.16718034446239471,-0.2806738018989563,-0.9451311826705933,0.03632098436355591,0.11020269989967346,-0.10227787494659424,0.9859875800996172,0.14056736315488827,-0.08760835883671907,-0.019852295240272398
1728332377821691100,0.376691162109375,-0.0801558643579483,-0.6162210702896118,-0.2526722252368927,-0.1720740795135498,-0.28027746081352234,-0.9443702101707458,0.010712414979934692,0.107868492603302,-0.09769827127456665,0.9857594333309847,0.14019003646395925,-0.0903418698262708,-0.021530160918631188
1728332377831720700,0.386720703125,-0.00852987915277481,-0.6765826940536499,-0.2434113323688507,-0.17747074365615845,-0.2802160978317261,-0.9433891773223877,0.005244821310043335,0.09332650899887085,-0.07498246431350708,0.9854721367191477,0.1399736702970282,-0.09334235183382951,-0.023225170262491407
1728332377841752000,0.396751953125,-0.052360717207193375,-0.7393790483474731,-0.2452813982963562,-0.18332839012145996,-0.28033915162086487,-0.9422317743301392,0.003564611077308655,0.060109108686447144,-0.057981908321380615,0.9851340836116319,0.13982970203185865,-0.0966011307735332,-0.02503668170390943
1728332377851783000,0.406782958984375,-0.06479555368423462,-0.7390682697296143,-0.157260462641716,-0.18972356617450714,-0.28011563420295715,-0.9410314559936523,-0.0018962770700454712,0.042963624000549316,-0.033211708068847656,0.9847888377292617,0.13951905404716938,-0.1000934806407466,-0.026585314058672555
1728332377861814000,0.41681396484375,-0.05052280053496361,-0.744719386100769,-0.10172531008720398,-0.1963476836681366,-0.27978548407554626,-0.9397700428962708,0.0031409114599227905,0.06971779465675354,-0.03219962120056152,0.9844368318517511,0.1391840262996991,-0.10364745803581225,-0.027736894587614795
1728332377871845000,0.42684521484375,-0.08382456749677658,-0.7674741744995117,-0.18602339923381805,-0.2029724270105362,-0.27942341566085815,-0.9384693503379822,0.0036621391773223877,0.08292081952095032,-0.04682117700576782,0.9840703280515162,0.1388146493271602,-0.10721848744341844,-0.02899059999797629
1728332377881875000,0.436875,-0.11161112040281296,-0.7927575707435608,-0.23457202315330505,-0.20970505475997925,-0.27893996238708496,-0.937131941318512,0.003467276692390442,0.08484822511672974,-0.024232804775238037,0.9836797042456308,0.13832679571620532,-0.11090410305953076,-0.030663541102695334
1728332377891906000,0.446906005859375,-0.1876251995563507,-0.7486758828163147,-0.2303871363401413,-0.21626463532447815,-0.2780495882034302,-0.9359049201011658,0.015474244952201843,0.06764620542526245,0.0072550177574157715,0.9833108929220463,0.13760708424173915,-0.11450688485464736,-0.03243691659135369
1728332377901937000,0.45693701171875,-0.419992059469223,-0.5658606290817261,-0.3289904296398163,-0.22181221842765808,-0.27591750025749207,-0.9352373480796814,0.01978588104248047,0.03208214044570923,0.028483808040618896,0.9830752008885981,0.1362224345324475,-0.11757885307197485,-0.034375718726340154
1728332377911968000,0.466968017578125,-1.3034768104553223,-0.17966604232788086,-0.2603386640548706,-0.222873717546463,-0.26779770851135254,-0.9373428821563721,0.0137215256690979,-0.029046684503555298,0.05099034309387207,0.9835475266231855,0.1317981488545683,-0.11814314623778972,-0.03613508192820704
1728332377921999000,0.4769990234375,-1.193212866783142,-0.8321468830108643,-0.42953699827194214,-0.2276345193386078,-0.25690943002700806,-0.9392443895339966,0.22412501275539398,-0.17581447958946228,0.16649353504180908,0.9839205857412604,0.1257687625758729,-0.12066486914991355,-0.039019164449421696
1728332377932029000,0.48702880859375,-1.2554575204849243,-0.9807651042938232,-0.5939493775367737,-0.23492060601711273,-0.2465764284133911,-0.9402193427085876,0.17483152449131012,-0.20441225171089172,0.028750836849212646,0.9840054944282965,0.11985641668749861,-0.12459846122525933,-0.0429286152776674
1728332377942060000,0.49706005859375,-1.082431674003601,-0.6975701451301575,-0.4370281994342804,-0.24164551496505737,-0.23662154376506805,-0.9410726428031921,-0.04344968497753143,0.03866934776306152,0.03613483905792236,0.9840395630835236,0.114114423708626,-0.12822474114940932,-0.04693062762751739
1728332377952091000,0.5070908203125,-0.647420346736908,-0.5092649459838867,-0.0563381128013134,-0.24682562053203583,-0.22889861464500427,-0.9416382312774658,-0.13272148370742798,0.19922034442424774,0.04970097541809082,0.9840772638207805,0.1097701392106317,-0.13088698759711118,-0.04910348804647282
1728332377962122000,0.5171220703125,-0.2312597632408142,-0.2666703164577484,0.145193412899971,-0.2504020631313324,-0.22476591169834137,-0.9416894912719727,-0.043253302574157715,0.20109960436820984,0.005791664123535156,0.9840808179411458,0.10755819845518884,-0.13261405478507513,-0.04929341259979346
1728332377972152800,0.52715283203125,-0.1342328041791916,-0.2286619246006012,0.1072944849729538,-0.25294214487075806,-0.2228645384311676,-0.941462516784668,0.004086583852767944,0.11184167861938477,0.01685619354248047,0.9840438641918933,0.10659248532291234,-0.13381622515179328,-0.04887739556094369
1728332377982184000,0.537183837890625,-0.2401646375656128,-0.24004825949668884,0.01051308587193489,-0.25520068407058716,-0.2209809273481369,-0.9412969946861267,0.047543853521347046,-0.014843583106994629,0.10329955816268921,0.9840038014145394,0.10559065553278031,-0.13491520896034073,-0.048837029871516315
1728332377992214000,0.547214111328125,-0.35943856835365295,-0.2566048800945282,-0.029611431062221527,-0.2575089931488037,-0.2181660532951355,-0.9413249492645264,0.09654402732849121,-0.13429662585258484,0.10911059379577637,0.9839901743996587,0.1040475647404693,-0.1360574127763945,-0.04925308317087543
1728332378002244900,0.557244873046875,-0.49296480417251587,-0.2516747713088989,-0.021659497171640396,-0.2597367763519287,-0.21420405805110931,-0.941622793674469,0.1099412739276886,-0.22045773267745972,0.09425640106201172,0.9840387294241872,0.10190034955064756,-0.1371310766983091,-0.049792776704267086
1728332378012276000,0.56727587890625,-0.5910258293151855,-0.18929423391819,0.019203778356313705,-0.26169702410697937,-0.2089966982603073,-0.9422500133514404,0.08863183856010437,-0.2263975292444229,0.08211207389831543,0.9841726370263266,0.09912585657860282,-0.13801833466010102,-0.05029325056398748
1728332378022306800,0.577306884765625,-0.5248817205429077,-0.18515487015247345,0.05818499997258186,-0.26350137591362,-0.20348422229290009,-0.9429534673690796,0.06014752388000488,-0.18170857429504395,0.02196347713470459,0.9843366472122402,0.09622954386796015,-0.13879175281840903,-0.05057824693911367
1728332378032338000,0.587337890625,-0.4995103180408478,-0.17931589484214783,-0.015760861337184906,-0.265003502368927,-0.1987103968858719,-0.9435504078865051,0.04436144232749939,-0.16109175980091095,-0.04889655113220215,0.9844746103370612,0.0937212257870498,-0.1394314977505767,-0.05084240740684203
1728332378042368000,0.597367919921875,-0.4871431291103363,-0.1929805725812912,-0.03287859633564949,-0.2667856216430664,-0.19410626590251923,-0.9440064430236816,0.049241065979003906,-0.1484229564666748,-0.13153982162475586,0.9845572752108578,0.09124152469195414,-0.14025601783677685,-0.051481772400153586
1728332378052398800,0.60739892578125,-0.6064679026603699,-0.1692430078983307,0.1454956829547882,-0.2683798670768738,-0.18888485431671143,-0.9446135759353638,0.03264683485031128,-0.0917242169380188,-0.0999268889427185,0.9847018341782356,0.08851621780904684,-0.14091877324579044,-0.05166339279547604
1728332378062430000,0.617429931640625,-0.5150818228721619,-0.3704187870025635,-0.05490400269627571,-0.27177944779396057,-0.18338719010353088,-0.9447248578071594,0.11304229497909546,-0.04767657816410065,-0.10875719785690308,0.9847101450435074,0.08558502568178153,-0.14252288523941495,-0.05204183411640306
1728332378072460800,0.627460693359375,-0.6919740438461304,-0.018621603026986122,0.4868897497653961,-0.27245408296585083,-0.17679601907730103,-0.9457864165306091,-0.05077281594276428,-0.059715136885643005,-0.12013155221939087,0.9850298029058114,0.08234783987428437,-0.1425679663761858,-0.05108392820428454
1728332378082492000,0.637491943359375,-0.6182496547698975,-0.6160879731178284,0.007000643294304609,-0.27664193511009216,-0.17001159489154816,-0.9458146095275879,0.23681652545928955,-0.06517203152179718,-0.10345602035522461,0.9850726237835055,0.07890452444888367,-0.14445334106266505,-0.050390743057211224
1728332378092522800,0.647522705078125,-0.6501441597938538,-0.7734810709953308,-0.2544141709804535,-0.28299999237060547,-0.16433650255203247,-0.9449362754821777,0.23935985565185547,-0.06730709969997406,-0.12359100580215454,0.9847715910190594,0.07565691663103141,-0.14767499779104745,-0.05189415827853766
1728332378102552800,0.657552734375,-0.48934558033943176,-0.6335231065750122,-0.1305452287197113,-0.28959816694259644,-0.15951092541217804,-0.9437633156776428,0.011705160140991211,-0.017658784985542297,-0.12392467260360718,0.9843772961467636,0.07278129582223976,-0.15106699386366315,-0.05369280310742931
1728332378112584000,0.667583984375,-0.3545171916484833,-0.3008272051811218,0.04655018448829651,-0.2937410771846771,-0.1556333601474762,-0.9431301355361938,-0.12323582172393799,0.035317882895469666,-0.12301677465438843,0.9841811188770822,0.0706130497760997,-0.15312980419214797,-0.05433722470089342
1728332378122614800,0.67761474609375,-0.2381993681192398,-0.256669819355011,0.04578213021159172,-0.29626816511154175,-0.15267673134803772,-0.9428228735923767,-0.13985851407051086,0.05473063886165619,-0.12091308832168579,0.9840974202492395,0.0690335113877838,-0.15434679554417438,-0.05444015338221877
1728332378132646000,0.68764599609375,-0.22027257084846497,-0.3069758415222168,0.06022791191935539,-0.2989178001880646,-0.15046320855617523,-0.9423422813415527,-0.07766911387443542,0.0388757586479187,-0.09983301162719727,0.9839743190885293,0.06784228351557349,-0.15564792984439638,-0.05445971312820213
1728332378142676700,0.6976767578125,-0.3377400040626526,-0.3441954255104065,0.07958083599805832,-0.30204230546951294,-0.14765240252017975,-0.9417904019355774,-0.014272361993789673,-0.0016700327396392822,-0.10221594572067261,0.9838348462730013,0.06634128020743493,-0.1571738513942475,-0.054445065555318285
1728332378152708000,0.7077080078125,-0.4826894700527191,-0.37503165006637573,0.10743856430053711,-0.30553269386291504,-0.14349839091300964,-0.9413065314292908,0.01959824562072754,-0.0862836241722107,-0.07633262872695923,0.9837128027379929,0.06414823286078293,-0.15884499792661402,-0.054428908501373885
1728332378162738000,0.717738037109375,-0.7157806754112244,-0.40164101123809814,0.07664203643798828,-0.3092474639415741,-0.13759563863277435,-0.9409747123718262,0.020139217376708984,-0.18740123510360718,-0.08787965774536133,0.9836223028114592,0.06103935331702235,-0.16058278353059946,-0.05453977280337505
1728332378172768800,0.727768798828125,-0.9463641047477722,-0.42644646763801575,-0.010782082565128803,-0.3131479024887085,-0.1295590102672577,-0.9408256411552429,-0.0064473748207092285,-0.24786704778671265,-0.07324296236038208,0.9835489935835546,0.05675402585024778,-0.16237661834300965,-0.055175049130955514
1728332378182800100,0.737800048828125,-1.1180200576782227,-0.4345523416996002,-0.0699830874800682,-0.3170798420906067,-0.1198929101228714,-0.9407901167869568,-0.04113548994064331,-0.24993428587913513,-0.07271391153335571,0.9834722133545623,0.05154471983195414,-0.16415868466175815,-0.0563701817924853
1728332378192831000,0.7478310546875,-1.0886986255645752,-0.46370649337768555,-0.048001889139413834,-0.3211750090122223,-0.10950464010238647,-0.9406675100326538,-0.05664783716201782,-0.20981594920158386,-0.07285177707672119,0.9833635711757741,0.04593725601880912,-0.16600003614536676,-0.05770658872704133
1728332378202862000,0.757862060546875,-0.9604684114456177,-0.481844425201416,-0.0101863332092762,-0.3255321979522705,-0.09988495707511902,-0.9402402639389038,-0.052763670682907104,-0.1569661647081375,-0.09972250461578369,0.9831882600559998,0.04074460132057133,-0.16798730721843905,-0.05883102780670646
1728332378212892200,0.76789208984375,-0.7691380977630615,-0.4896901249885559,0.057790856808423996,-0.3300681412220001,-0.09157493710517883,-0.9395046830177307,-0.06084677577018738,-0.0988241508603096,-0.08504670858383179,0.9829583011364239,0.03627784711843412,-0.17009283240533696,-0.059543112804700135
1728332378222923000,0.777923095703125,-0.6094108819961548,-0.44787612557411194,0.10786360502243042,-0.33450600504875183,-0.0848788172006607,-0.9385634660720825,-0.06722739338874817,-0.07794764637947083,-0.09082502126693726,0.9827040317476786,0.03271045465004833,-0.17218683585087796,-0.05978804259514072
1728332378232954000,0.7879541015625,-0.5718597769737244,-0.4021565914154053,0.1429281234741211,-0.33850452303886414,-0.07889977097511292,-0.9376510381698608,-0.08132576942443848,-0.09917021542787552,-0.11082613468170166,0.9824736986183308,0.029566243852426462,-0.17406984872491324,-0.05975663120792973
1728332378242985000,0.79798486328125,-0.6717268228530884,-0.35120636224746704,0.19155584275722504,-0.3420730531215668,-0.07257650047540665,-0.9368664026260376,-0.07800137996673584,-0.1689395308494568,-0.08445006608963013,0.9822890561273262,0.026297432737430772,-0.17571351935467805,-0.05950918607414592
1728332378253016000,0.80801611328125,-0.9419801235198975,-0.324238657951355,0.23302046954631805,-0.34526902437210083,-0.06428615748882294,-0.9362994432449341,-0.05538097023963928,-0.2584218680858612,-0.11970031261444092,0.9821631088022543,0.02205103572271024,-0.1770989644012051,-0.059206246231061674
1728332378263047000,0.818046875,-1.179787516593933,-0.35421013832092285,0.2261335253715515,-0.34845131635665894,-0.05339838191866875,-0.9358046054840088,-0.024397164583206177,-0.3350140154361725,-0.09349226951599121,0.9820470350562065,0.016461607161497516,-0.17840040825717657,-0.05904201304450452
1728332378273077000,0.828076904296875,-1.0185214281082153,-0.44726046919822693,0.16621240973472595,-0.35215649008750916,-0.04219764471054077,-0.9349893927574158,0.010451167821884155,-0.36400648951530457,-0.07827049493789673,0.9818363839563662,0.010656749812029473,-0.17997703281107888,-0.05909441630018833
1728332378283108000,0.838108154296875,-0.6817749738693237,-0.5478519201278687,0.0782093033194542,-0.35682231187820435,-0.033723216503858566,-0.9335633516311646,0.03721174597740173,-0.30877548456192017,-0.09367358684539795,0.9814615133326253,0.006176581758419101,-0.18215421879174332,-0.059287846305428576
1728332378293139000,0.848138916015625,-0.299248605966568,-0.47276780009269714,-0.012201547622680664,-0.36158594489097595,-0.028957029804587364,-0.931888997554779,0.03616175055503845,-0.14247538149356842,-0.05822330713272095,0.9810167811226131,0.003551520307827956,-0.18450713820774756,-0.059588014984093864
1728332378303170000,0.858170166015625,0.2814047932624817,-0.4505319595336914,0.05222511291503906,-0.3657843768596649,-0.028732238337397575,-0.9302560091018677,0.015061110258102417,0.03619387000799179,-0.009517550468444824,0.9806018023565684,0.003308500770151025,-0.18671112063441164,-0.05956686993984664
1728332378313201000,0.868200927734375,0.8428806662559509,-0.41566798090934753,0.25716865062713623,-0.36968621611595154,-0.033463846892118454,-0.9285538792610168,0.038585782051086426,0.13664385676383972,-0.037434279918670654,0.9802431116907635,0.005830677524852673,-0.1889155073908362,-0.058314124417557234
1728332378323231000,0.87823095703125,1.291330337524414,-0.4583238959312439,0.501427412033081,-0.3737331032752991,-0.0419868528842926,-0.9265854954719543,0.09272724390029907,0.15365076065063477,-0.08809345960617065,0.9799085307455474,0.010603477359515985,-0.19129771446073765,-0.0554266346785206
1728332378333262000,0.888261962890625,1.428219199180603,-0.431644082069397,0.6037895083427429,-0.37802422046661377,-0.05274442955851555,-0.9242920279502869,0.13461601734161377,0.07546484470367432,-0.10575252771377563,0.9795460773651246,0.016763752563354783,-0.19383746808241606,-0.05133861220645312
1728332378343292700,0.898292724609375,1.205064296722412,-0.41117429733276367,0.5849518775939941,-0.38206663727760315,-0.06275440007448196,-0.9220016002655029,0.14009276032447815,-0.00403323769569397,-0.09052586555480957,0.9791716227400593,0.022596054194721216,-0.19618512775177044,-0.04715844767699018
1728332378353323800,0.90832373046875,0.9498647451400757,-0.5113816261291504,0.641294538974762,-0.38652852177619934,-0.07029648125171661,-0.9195945262908936,0.15229085087776184,-0.06913825124502182,0.023949384689331055,0.9787404531826911,0.02714771282077138,-0.19865985530694763,-0.04317769569755974
1728332378363355000,0.91835498046875,0.7628095149993896,-0.6229203343391418,0.7525385022163391,-0.3921445310115814,-0.07541342824697495,-0.916807234287262,0.2113737165927887,-0.1531326174736023,0.08177000284194946,0.9782049371658839,0.03051312093113424,-0.20165649104486813,-0.038970373091080986
1728332378373384700,0.928384765625,0.7123236656188965,-0.6785004734992981,0.8199223279953003,-0.3986440598964691,-0.07891695946455002,-0.9137040376663208,0.246163010597229,-0.17662188410758972,0.1210252046585083,0.9775808490882155,0.03313446585038282,-0.2050612093766752,-0.03446219886634695
1728332378383415800,0.938415771484375,0.9021473526954651,-0.6955532431602478,0.8719333410263062,-0.40553349256515503,-0.08281346410512924,-0.9103211164474487,0.22680732607841492,-0.11515398323535919,0.18914490938186646,0.9768744333484467,0.03606192500715816,-0.2086599832613555,-0.02961160870231177
1728332378393447000,0.948447021484375,1.1606827974319458,-0.6550841331481934,0.9399584531784058,-0.41240766644477844,-0.08847121149301529,-0.9066932797431946,0.20108872652053833,0.012802958488464355,0.20448380708694458,0.9760941994497416,0.0400517332441968,-0.21224797981525845,-0.02422328170584897
1728332378403478000,0.95847802734375,1.5464730262756348,-0.5544708967208862,1.0513718128204346,-0.4187476933002472,-0.09652689099311829,-0.9029579162597656,0.1790473759174347,0.14459215104579926,0.21013253927230835,0.9752708611642242,0.04549830228815736,-0.2155248416571234,-0.018050245014394214
1728332378413508900,0.9685087890625,1.9950119256973267,-0.48840078711509705,1.1886204481124878,-0.42453229427337646,-0.10784726589918137,-0.8989667892456055,0.17283856868743896,0.19868293404579163,0.20794200897216797,0.9743550341006048,0.05292981055673519,-0.21843769695951373,-0.010763740339058197
1728332378423540000,0.9785400390625,2.2523348331451416,-0.44930118322372437,1.2772467136383057,-0.4300929605960846,-0.1218155175447464,-0.8945283889770508,0.1722499430179596,0.16101543605327606,0.23452472686767578,0.9732717641694878,0.06201290545796381,-0.2211113027532965,-0.002498060343014637
1728332378433569800,0.98856982421875,2.191815137863159,-0.3982696831226349,1.2971270084381104,-0.4355277419090271,-0.13630466163158417,-0.8897958397865295,0.1535453498363495,0.09286296367645264,0.30683380365371704,0.9720392189654519,0.07152586812189556,-0.22357578403683676,0.006143869343582788
1728332378443601000,0.998600830078125,1.8824330568313599,-0.2976486086845398,1.3445677757263184,-0.44042426347732544,-0.14869096875190735,-0.885391116142273,0.13141852617263794,0.04812036454677582,0.32147204875946045,0.9708134229487833,0.08000283627400812,-0.2256190986137136,0.014725449327710746
1728332378453632000,1.008632080078125,1.628614902496338,-0.2637902498245239,1.421867847442627,-0.444980263710022,-0.15801355242729187,-0.8814898133277893,0.12764325737953186,0.012032762169837952,0.3337145447731018,0.9696394121006019,0.08695161319711464,-0.22736426827573675,0.02333233110095863
1728332378463662800,1.018662841796875,1.3761800527572632,-0.18791821599006653,1.413806676864624,-0.4492846429347992,-0.1649363785982132,-0.8780314922332764,0.12970459461212158,-0.04204903542995453,0.29458117485046387,0.968503969753349,0.09268303708684485,-0.22889758637423802,0.031873198443136797
1728332378473694000,1.02869384765625,1.0896880626678467,-0.09955799579620361,1.350160837173462,-0.4527927339076996,-0.16952277719974518,-0.8753518462181091,0.10313758254051208,-0.03715744614601135,0.23823630809783936,0.9675136403567608,0.09709630833175728,-0.22999216905017345,0.039917079247435185
1728332378483724800,1.038724853515625,0.9209904074668884,-0.08218007534742355,1.3417428731918335,-0.45583289861679077,-0.17213378846645355,-0.8732619285583496,0.08306071162223816,-0.00030572712421417236,0.27009719610214233,0.96662946345932,0.10038797326687461,-0.2308490807175711,0.04752488218095922
1728332378493755000,1.0487548828125,0.8972514867782593,-0.08110761642456055,1.3651126623153687,-0.4588451087474823,-0.17387960851192474,-0.8713364005088806,0.0903148353099823,0.02249722182750702,0.28631436824798584,0.965729776525992,0.10323958096808493,-0.23167519953478555,0.05508458361011586
1728332378503785700,1.05878564453125,0.8572884798049927,-0.049921900033950806,1.4026683568954468,-0.4618322551250458,-0.1751723289489746,-0.8694973587989807,0.08497071266174316,0.03376922011375427,0.30177879333496094,0.9647855154907844,0.10590227592378859,-0.23245652690694868,0.06275072220774883
1728332378513816800,1.06881689453125,0.8452861309051514,0.03136097639799118,1.4638458490371704,-0.46440231800079346,-0.17596480250358582,-0.8679671287536621,0.06471362709999084,0.017014071345329285,0.34802383184432983,0.9638419244248534,0.10836141930138207,-0.23296834548639903,0.07065713097307633
1728332378523848000,1.078847900390625,0.7075104117393494,0.11827430129051208,1.5295356512069702,-0.4663779139518738,-0.17582818865776062,-0.8669348955154419,0.05057594180107117,-0.025480955839157104,0.3318853974342346,0.9629382686880678,0.11038717925744806,-0.23312492538843693,0.07885017985077883
1728332378533878800,1.088878662109375,0.47220632433891296,0.1890624612569809,1.5681403875350952,-0.4676951467990875,-0.1737457513809204,-0.8666450381278992,0.04243272542953491,-0.06456594169139862,0.30882948637008667,0.9621516882679366,0.11137992200488782,-0.23296347187325625,0.08710165140274725
1728332378543908900,1.098908935546875,0.23308014869689941,0.19228343665599823,1.6012765169143677,-0.46873241662979126,-0.1693425178527832,-0.8669561743736267,0.04112014174461365,-0.08892768621444702,0.3136572241783142,0.9614590450711026,0.11112631131799904,-0.23275060064857014,0.09526137364119931
1728332378553939700,1.108939697265625,0.057688888162374496,0.16344459354877472,1.6054917573928833,-0.46980974078178406,-0.16300375759601593,-0.8675878047943115,0.06148454546928406,-0.0923367589712143,0.2731359004974365,0.9607964678598158,0.10983653493963277,-0.23268439719551326,0.10326724572115009
1728332378563970800,1.118970703125,-0.013316445983946323,0.12945351004600525,1.5648009777069092,-0.47105643153190613,-0.15561729669570923,-0.8682678937911987,0.07942438125610352,-0.0718759149312973,0.23620301485061646,0.9601109231665002,0.10795938316882547,-0.2328322030254992,0.1109998251132544
1728332378574001700,1.129001708984375,0.09713709354400635,0.10935196280479431,1.5518394708633423,-0.472404420375824,-0.1485825926065445,-0.8687676787376404,0.08470916748046875,-0.047157078981399536,0.2265099287033081,0.9593333569243021,0.10625298380320683,-0.23308039451935317,0.11858885166775572
1728332378584032800,1.13903271484375,0.13667285442352295,0.10929332673549652,1.5176599025726318,-0.47373655438423157,-0.14243441820144653,-0.8690720200538635,0.07943421602249146,-0.026037797331809998,0.20815277099609375,0.958442897331668,0.10502270796253109,-0.23331144687194053,0.12618779895003807
1728332378594064000,1.14906396484375,0.20445482432842255,0.12538494169712067,1.5564091205596924,-0.474744588136673,-0.1365676373243332,-0.8694635629653931,0.05145055055618286,0.039399728178977966,0.2043786644935608,0.957514519888446,0.10392178585201634,-0.2333848544011154,0.1337824619246647
1728332378604093700,1.15909375,0.3758513927459717,0.11824943125247955,1.6544486284255981,-0.4758835732936859,-0.13146711885929108,-0.869627058506012,0.03403487801551819,0.08764396607875824,0.18633848428726196,0.956387417793915,0.10336990538863536,-0.23345477187251346,0.14190379105696227
1728332378614124800,1.169124755859375,0.3705357313156128,0.16536954045295715,1.7098069190979004,-0.47680914402008057,-0.12681283056735992,-0.8698112368583679,0.03418225049972534,0.1393403559923172,0.10458290576934814,0.95512385188297,0.10315050331168502,-0.23335459537056583,0.15047952929175562
1728332378624155600,1.17915576171875,0.3804335296154022,0.13368846476078033,1.7951698303222656,-0.47759729623794556,-0.12166187912225723,-0.8701145052909851,0.021710515022277832,0.2326238453388214,0.09487640857696533,0.9537616057920706,0.10274614936214792,-0.23320803324250985,0.15936154100158617
1728332378634186800,1.189186767578125,0.43453750014305115,0.06637360900640488,1.8469016551971436,-0.47888466715812683,-0.1165047362446785,-0.8701127171516418,0.04320049285888672,0.2560158967971802,0.06292271614074707,0.9521661448588952,0.10249979326148156,-0.23331830033304726,0.16863000359554942
1728332378644217900,1.1992177734375,0.35171017050743103,-0.008664418943226337,1.8542243242263794,-0.480629026889801,-0.11114506423473358,-0.8698520064353943,0.05400857329368591,0.20498669147491455,0.022409379482269287,0.9503781435095756,0.10226131517203364,-0.23370196407997967,0.17806605051346078
1728332378654247700,1.20924755859375,-0.049977052956819534,-0.05132080242037773,1.6340045928955078,-0.4828855097293854,-0.1041993573307991,-0.8694619536399841,0.03619977831840515,0.15380574762821198,0.022324442863464355,0.9486437085465829,0.10106492807295354,-0.23463783195603763,0.1865638100247827
1728332378664278800,1.21927880859375,-0.4732745289802551,-0.10320103913545609,1.4332720041275024,-0.4850219190120697,-0.09439820796251297,-0.8693921566009521,-0.03705748915672302,0.12261177599430084,0.05356568098068237,0.9472415342495398,0.09802846856955968,-0.23599650502013103,0.19346698735011134
1728332378674309600,1.2293095703125,-0.77875816822052,-0.11613915860652924,1.2572016716003418,-0.4872491657733917,-0.08241301029920578,-0.8693654537200928,-0.064279705286026,0.08842503279447556,0.09559226036071777,0.9460764676631028,0.09359183065282281,-0.23781890518949045,0.19905282132846522
1728332378684340700,1.2393408203125,-1.0359495878219604,0.010732874274253845,1.155956506729126,-0.48864126205444336,-0.06855587661266327,-0.8697872161865234,-0.08865970373153687,0.13470278680324554,0.08127403259277344,0.945223794486829,0.08785983554633513,-0.23955591766516549,0.20358197799958083
1728332378694371600,1.24937158203125,-1.0086103677749634,0.07061111927032471,1.3512299060821533,-0.48873844742774963,-0.05328017845749855,-0.8708018660545349,-0.11222892999649048,0.24627339839935303,0.1250590682029724,0.9444519704284237,0.08132935804562381,-0.2407998986592134,0.20835383827772297
1728332378704403000,1.25940283203125,-0.7985514402389526,0.07802270352840424,1.3345928192138672,-0.4887489080429077,-0.03869697451591492,-0.8715658783912659,-0.05098491907119751,0.3050239384174347,0.0917501449584961,0.9434627173220199,0.07530980350982026,-0.2419617709472365,0.21368460028737954
1728332378714432800,1.269432861328125,-0.6649554967880249,0.049623068422079086,1.1195191144943237,-0.48854494094848633,-0.02637035772204399,-0.8721401691436768,-0.1142992377281189,0.26561295986175537,0.05538296699523926,0.9424735208298218,0.07033675891554415,-0.24286347551050438,0.21866340212719512
1728332378724463600,1.279463623046875,-0.7812056541442871,0.08099399507045746,0.9001175761222839,-0.4881835877895355,-0.015296408906579018,-0.8726068735122681,-0.1862701177597046,0.18469953536987305,0.06549322605133057,0.9416862151894231,0.06571148757621545,-0.24367714998998738,0.22255429942941032
1728332378734495000,1.289494873046875,-1.1286903619766235,0.12646320462226868,0.8270265460014343,-0.4873404800891876,-0.0028610648587346077,-0.8732073903083801,-0.2214455008506775,0.07566080242395401,0.11588311195373535,0.941151631567155,0.06009695624506138,-0.24450904704722579,0.22547147707067094
1728332378744525800,1.29952587890625,-1.57778799533844,0.17980684340000153,0.8021765947341919,-0.48593464493751526,0.012982502579689026,-0.8738987445831299,-0.20554786920547485,-0.029706072062253952,0.1678592562675476,0.9407965114872255,0.052530978799757926,-0.24554252522661474,0.22770887834483514
1728332378754557000,1.309556884765625,-1.9871844053268433,0.21621444821357727,0.7559880614280701,-0.4840255379676819,0.032382186502218246,-0.8744544982910156,-0.18440091609954834,-0.07548820972442627,0.16557693481445312,0.9405759129398783,0.04294205505188775,-0.24683746374619758,0.22922515380950598
1728332378764587000,1.3195869140625,-2.326995849609375,0.25748786330223083,0.7321128249168396,-0.4815525710582733,0.05502220243215561,-0.8746883273124695,-0.1609339416027069,-0.028914354741573334,0.10785788297653198,0.9404268484967074,0.03150187890037607,-0.24832128943390022,0.23009027414571098
1728332378774617900,1.329617919921875,-2.3026461601257324,0.19304771721363068,0.6774408221244812,-0.47902587056159973,0.07898303121328354,-0.8742402195930481,-0.10756772756576538,0.10049091279506683,0.04521489143371582,0.9401991111553837,0.019299493433866742,-0.2500148529964507,0.23053383258308868
1728332378784649000,1.33964892578125,-2.013059139251709,0.152021124958992,0.6103240847587585,-0.4769805371761322,0.10100852698087692,-0.8730904459953308,-0.07613527774810791,0.20589154958724976,-0.015383124351501465,0.9398189471146613,0.008101606760339579,-0.25177201627731455,0.23083703579146383
1728332378794679800,1.3496796875,-1.670241117477417,0.08316829800605774,0.5721034407615662,-0.4752481281757355,0.1199878603219986,-0.8716318607330322,-0.06508079171180725,0.290778785943985,-0.04827475547790527,0.9393194611722085,-0.0014890457721756904,-0.25334136114135436,0.23128967350866078
1728332378804711000,1.3597109375,-1.2522966861724854,0.051546670496463776,0.5232017040252686,-0.473969966173172,0.13536347448825836,-0.8700742721557617,-0.06205597519874573,0.3274051547050476,-0.03048419952392578,0.938728579072572,-0.009147521345903789,-0.25471393745910687,0.23200417555525724
1728332378814741800,1.36974169921875,-0.9636660218238831,0.06357217580080032,0.48512086272239685,-0.47281408309936523,0.14726856350898743,-0.868768572807312,-0.10013812780380249,0.27800920605659485,-0.05492222309112549,0.9381390467024443,-0.014984396589038473,-0.25571699419550376,0.23297956912902304
1728332378824771800,1.379771728515625,-0.9332688450813293,0.18661139905452728,0.4357360005378723,-0.47105130553245544,0.15761245787143707,-0.8679106831550598,-0.14593777060508728,0.2199205607175827,-0.048471152782440186,0.937667488910235,-0.020120384365334178,-0.2562026821204396,0.23395539818740324
1728332378834803000,1.389802978515625,-1.0510289669036865,0.3055095374584198,0.3953779339790344,-0.46808922290802,0.16819994151592255,-0.8675259351730347,-0.1848648488521576,0.17464986443519592,0.008822321891784668,0.9373970108906392,-0.025618813708245206,-0.2560873002987186,0.23462689858701377
1728332378844833800,1.399833740234375,-1.0221588611602783,0.03280371427536011,0.24372263252735138,-0.4659889340400696,0.17858844995498657,-0.8665797710418701,-0.16224589943885803,0.1354069709777832,0.06498980522155762,0.9371091937696994,-0.03105001199560772,-0.2564098500222814,0.2347685700404321
1728332378854865000,1.409864990234375,-1.5127521753311157,-0.4912262558937073,0.4146302044391632,-0.46718013286590576,0.190871000289917,-0.8633139729499817,-0.08479121327400208,0.1434643715620041,0.08726722002029419,0.9362747533482606,-0.03708335200553682,-0.2587814763817533,0.23461993736573025
1728332378864895700,1.419895751953125,-1.4848814010620117,-1.2598097324371338,0.5658926963806152,-0.47363951802253723,0.20681476593017578,-0.8560918569564819,0.1166144609451294,0.1869383305311203,-0.045809388160705566,0.9341950691231796,-0.044070522025796706,-0.2645975675428324,0.23521349310266798
1728332378874925800,1.42992578125,-1.129974603652954,-1.4823803901672363,0.03724456578493118,-0.4852219521999359,0.21935969591140747,-0.8464283347129822,0.2073442041873932,0.025650754570961,-0.4599528908729553,0.931548885683481,-0.04879956000053982,-0.272771750517867,0.2354373900648048
1728332378884957000,1.43995703125,-1.1491622924804688,-0.8282318711280823,-0.522797703742981,-0.4957541823387146,0.2276340276002884,-0.8380993604660034,-0.08880996704101562,-0.11300992965698242,-0.5208941698074341,0.9299601884402141,-0.05236355543234701,-0.2796576228952775,0.2328597015825595
1728332378894987800,1.44998779296875,-0.8491545915603638,-0.43969932198524475,-0.4107838273048401,-0.50184565782547,0.2337331771850586,-0.8327783346176147,-0.34861814975738525,-0.013914987444877625,-0.13867247104644775,0.9294333711267512,-0.05576514198092373,-0.28372710612626184,0.22922237986666683
1728332378905019000,1.460018798828125,-0.274665892124176,-0.663855791091919,-0.10725429654121399,-0.5068615674972534,0.23711198568344116,-0.8287757635116577,-0.2547808289527893,0.1463261842727661,0.10184705257415771,0.928801792454958,-0.057396157359723685,-0.28691078360841626,0.22740986270857202
1728332378915049700,1.4700498046875,-0.013936296105384827,-0.7491496205329895,0.056812938302755356,-0.5128937363624573,0.23802781105041504,-0.8247925639152527,-0.16189557313919067,0.22284869849681854,0.15720528364181519,0.9277374195541057,-0.05710679071025549,-0.29041786472281406,0.22737513639333773
1728332378925080800,1.480080810546875,0.02939799427986145,-0.7163103222846985,0.08004209399223328,-0.518741250038147,0.23831848800182343,-0.8210431337356567,-0.16529500484466553,0.16646674275398254,0.20326054096221924,0.9265826363662358,-0.05632429798007891,-0.29377882274172956,0.22796103553820518
1728332378935111000,1.49011083984375,-0.20230022072792053,-0.6067779660224915,-0.023159390315413475,-0.5241252779960632,0.23896899819374084,-0.8174268007278442,-0.1390063762664795,-0.03592023253440857,0.12550169229507446,0.9255449101554633,-0.0558842340465859,-0.2969235003339309,0.22821073933177
1728332378945141800,1.500141845703125,-0.8161199688911438,-0.5841131210327148,-0.09274246543645859,-0.5290422439575195,0.24263356626033783,-0.8131687045097351,-0.0866650938987732,-0.17630355060100555,0.008267521858215332,0.9246093414722276,-0.057397011036784795,-0.30020199984352425,0.22733682616008707
1728332378955172900,1.5101728515625,-1.3786834478378296,-0.7067833542823792,-0.03468608483672142,-0.5343307852745056,0.25139671564102173,-0.8070256114006042,0.014540135860443115,-0.18581438064575195,-0.004833519458770752,0.9233896091660201,-0.06177474095979598,-0.30441921988796894,0.22553176609579284
1728332378965203700,1.52020361328125,-1.6539472341537476,-0.9268329739570618,-0.07726843655109406,-0.5410756468772888,0.26340538263320923,-0.7986581325531006,0.1374959945678711,-0.18712663650512695,-0.060915231704711914,0.9216787415971546,-0.06781925791968269,-0.30995400470836587,0.22324320271448284
1728332378975234800,1.53023486328125,-2.065294027328491,-0.8806116580963135,-0.22828803956508636,-0.5488088726997375,0.2772335112094879,-0.7886383533477783,0.15438449382781982,-0.19909319281578064,-0.06210017204284668,0.9197476265102836,-0.07506690124341271,-0.3163001698833674,0.21996242863529053
1728332378985265000,1.540264892578125,-2.3613388538360596,-0.8555423021316528,-0.3008008599281311,-0.5562760829925537,0.29336801171302795,-0.7774909138679504,0.10682851076126099,-0.11210879683494568,0.03043586015701294,0.9177793139779442,-0.08404387402914823,-0.3227865631802941,0.21546832082892778
1728332378995295700,1.550295654296875,-2.2354049682617188,-0.9030523300170898,-0.3893775939941406,-0.564128041267395,0.30943530797958374,-0.7655124664306641,0.0790817141532898,-0.006243079900741577,0.06870460510253906,0.9156560216895745,-0.09320833593070936,-0.32947831656523713,0.21054761657929727
1728332379005326800,1.560326904296875,-1.9815771579742432,-0.7347568869590759,-0.5859249830245972,-0.5720259547233582,0.3226833641529083,-0.7540966868400574,0.0033156871795654297,0.07961466908454895,0.0537182092666626,0.9137529604691309,-0.10117878718830944,-0.3357298309500387,0.20519256401115923
1728332379015357700,1.570357666015625,-1.4839675426483154,-0.3807215988636017,-0.4574112594127655,-0.5780882239341736,0.33271926641464233,-0.7450583577156067,-0.11646127700805664,0.24507012963294983,-0.006788015365600586,0.9124396748803588,-0.10772884682379298,-0.34038996328000154,0.19995758394965024
1728332379025388800,1.580388916015625,-0.6103226542472839,-0.17313960194587708,-0.06364689767360687,-0.5807483196258545,0.3392806649208069,-0.7400135397911072,-0.09507864713668823,0.3740372359752655,-0.13260608911514282,0.9116580098053618,-0.11194542331408472,-0.3427265115718577,0.19719628809185577
1728332379035419600,1.590419677734375,0.302542120218277,0.07096867263317108,-0.12283299118280411,-0.5813984870910645,0.3398473858833313,-0.7392426133155823,-0.025702953338623047,0.277324914932251,-0.2620849609375,0.9115604999877761,-0.11237542774546108,-0.34314786835073474,0.19666942116262953
1728332379045449700,1.60044970703125,0.624015748500824,0.2500011622905731,-0.2772851586341858,-0.5808688998222351,0.3348926603794098,-0.741915225982666,-0.12027239799499512,0.11212888360023499,-0.331998348236084,0.9123357788767936,-0.10988489951733005,-0.34200538277956544,0.19647179501665557
1728332379055480800,1.610480712890625,0.31671494245529175,0.3354939818382263,-0.1874585747718811,-0.5795168280601501,0.32956981658935547,-0.7453482747077942,-0.11187410354614258,0.008671820163726807,-0.04740685224533081,0.9133738643844682,-0.10738574235234354,-0.3402854019475247,0.19601656795317587
1728332379065511700,1.62051171875,-0.48532843589782715,0.15185579657554626,-0.047585368156433105,-0.5778960585594177,0.32952067255973816,-0.7466272115707397,-0.007171571254730225,-0.042807966470718384,0.18604987859725952,0.913885713684606,-0.10781020626367986,-0.3392098774054445,0.19526002677287582
1728332379075543000,1.63054296875,-0.889026403427124,-0.08347149193286896,0.03236006200313568,-0.5776715874671936,0.335012823343277,-0.7443533539772034,0.02792799472808838,-0.06743466854095459,0.24726784229278564,0.9135430024576998,-0.11122197970322346,-0.3397837412529039,0.19394793929276238
1728332379085574000,1.640573974609375,-0.6615939140319824,-0.16616226732730865,0.05621932074427605,-0.5785242319107056,0.34120333194732666,-0.7408711314201355,-0.04571276903152466,-0.146333247423172,0.00005692243576049805,0.9128070450499353,-0.11479461009905599,-0.3411548336757414,0.19292217915764912
1728332379095603700,1.650603759765625,-0.34835875034332275,0.14722147583961487,0.0002537905238568783,-0.5786402821540833,0.34516364336013794,-0.7389435768127441,-0.17073410749435425,-0.22617551684379578,-0.32697439193725586,0.9124296200425005,-0.11715033452274241,-0.3417660187251137,0.19220865399061723
1728332379105634800,1.660634765625,0.23288606107234955,0.5236592888832092,-0.05988730862736702,-0.5761371850967407,0.34566253423690796,-0.7406641840934753,-0.3031657934188843,-0.13028466701507568,-0.36280566453933716,0.91300064533792,-0.11784283736420027,-0.34026602772889614,0.19173434454401345
1728332379115666000,1.670666015625,1.1624494791030884,0.7155757546424866,-0.03863555192947388,-0.5715577006340027,0.3401965796947479,-0.7467182278633118,-0.34360337257385254,0.15203678607940674,-0.27264517545700073,0.9145450354804187,-0.11520659492153602,-0.3367021212308658,0.19226687576075321
1728332379125697000,1.680697021484375,2.0771291255950928,0.6570357084274292,-0.03636574000120163,-0.5665342807769775,0.32774853706359863,-0.7560554146766663,-0.2977387309074402,0.44924435019493103,-0.20372241735458374,0.9166293509059064,-0.10833967866407472,-0.3320162815774793,0.19446917737886388
1728332379135727900,1.690727783203125,2.8041129112243652,0.7325091361999512,-0.020444298163056374,-0.5613647699356079,0.30869895219802856,-0.7678375244140625,-0.24053025245666504,0.5670182704925537,-0.050140321254730225,0.9190815547789176,-0.09761298590366543,-0.3264244655172742,0.19800963238825647
1728332379145759000,1.700759033203125,2.9605867862701416,0.8842405676841736,0.14243730902671814,-0.5549288988113403,0.2862766981124878,-0.7810887694358826,-0.1846798062324524,0.45064660906791687,0.06122481822967529,0.9216718229600822,-0.08500347838949568,-0.319734311104871,0.20264647852807796
1728332379155788800,1.710788818359375,2.6833877563476562,0.8316830992698669,0.2531430423259735,-0.5474220514297485,0.26503700017929077,-0.793778657913208,-0.11302411556243896,0.1635366678237915,0.128129243850708,0.9239713028838363,-0.07311448783770727,-0.31267385869087294,0.20776540797480603
1728332379165820000,1.72081982421875,1.699187159538269,0.7027679681777954,0.16280488669872284,-0.5408632159233093,0.24791990220546722,-0.8037429451942444,-0.0683133602142334,-0.18413808941841125,0.0035110116004943848,0.9257029484012812,-0.06366490584908384,-0.30671697414984556,0.2120037896632973
1728332379175850800,1.730850830078125,0.2505260407924652,0.6285999417304993,0.2841973602771759,-0.534672200679779,0.24158988893032074,-0.8097901344299316,-0.002955913543701172,-0.37714889645576477,-0.02790212631225586,0.9268301618829996,-0.060441679818779376,-0.30240989477188496,0.21419858450117762
1728332379185881900,1.7408818359375,-0.2757295072078705,0.11526738107204437,0.16234709322452545,-0.5310579538345337,0.24333679676055908,-0.8116431832313538,0.19020718336105347,-0.4713793396949768,-0.05298084020614624,0.927090994525035,-0.061433515730067716,-0.30067311184408063,0.2152302287726483
1728332379195913000,1.750912841796875,-0.6678032875061035,-0.04883847013115883,-0.37524500489234924,-0.5312150120735168,0.2466728538274765,-0.8105326294898987,0.25612956285476685,-0.44398418068885803,-0.14266866445541382,0.9270714888031328,-0.06351298644152352,-0.301164035775477,0.21402072652276036
1728332379205942800,1.76094287109375,-0.6857657432556152,-0.049101002514362335,-0.43986234068870544,-0.5327715873718262,0.2500206232070923,-0.8084826469421387,0.11584049463272095,-0.06955483555793762,-0.0933576226234436,0.9272443009051872,-0.06607376797128951,-0.30231266169498644,0.21085382065684102
1728332379215974000,1.770973876953125,-0.3614984452724457,-0.06475106626749039,-0.06676732003688812,-0.5338233709335327,0.2529505789279938,-0.8068758249282837,0.10856097936630249,0.263986736536026,-0.008950591087341309,0.9272566643729774,-0.06809669366654597,-0.3031912231289691,0.20888524722035373
1728332379226004700,1.781004638671875,-0.12524910271167755,-0.014403903856873512,0.030023405328392982,-0.5342198610305786,0.25484251976013184,-0.8060176968574524,0.09649103879928589,0.31812503933906555,0.0028255581855773926,0.927094666520734,-0.06912285473075323,-0.3036662594843086,0.20857712296895478
1728332379236035800,1.791035888671875,-0.08797577023506165,0.18466311693191528,-0.058708060532808304,-0.533592939376831,0.25545534491539,-0.8062389492988586,-0.07388991117477417,0.21376776695251465,0.07349658012390137,0.9272111396874987,-0.06959242891547732,-0.3033767159534141,0.20832446271540744
1728332379246066700,1.801066650390625,-0.16302643716335297,0.3413127064704895,0.024205194786190987,-0.5314518213272095,0.256356805562973,-0.8073661923408508,-0.17211562395095825,0.06903696060180664,0.17762070894241333,0.9276104262489429,-0.070439953746805,-0.3022500747420616,0.20789924837766868
1728332379256096800,1.8110966796875,-0.29456770420074463,0.36339271068573,0.11052144318819046,-0.5283034443855286,0.25857236981391907,-0.8087248206138611,-0.10817110538482666,-0.05134269595146179,0.19133895635604858,0.9280029926881419,-0.07197575784216477,-0.3007608281779878,0.20778126261674007
1728332379266128000,1.8211279296875,-0.5080715417861938,0.326179563999176,0.07065551728010178,-0.5252190828323364,0.2623322606086731,-0.8095225691795349,-0.033054232597351074,-0.09788823127746582,0.09992784261703491,0.9282783276391999,-0.07434480508669117,-0.2995188942561167,0.20751098171437024
1728332379276158700,1.83115869140625,-0.7250272631645203,0.20538896322250366,-0.016650358214974403,-0.5229836702346802,0.26747244596481323,-0.8092877268791199,0.010456264019012451,-0.08839526772499084,0.08443421125411987,0.928416733516026,-0.07753002373058326,-0.2989067431867671,0.20660642712717078
1728332379286189800,1.84118994140625,-0.9718968272209167,0.1069469153881073,-0.07503137737512589,-0.5218358635902405,0.27409058809280396,-0.8078129291534424,0.047119736671447754,-0.07720634341239929,0.05407452583312988,0.9283639514807295,-0.08156353394007892,-0.2990667698838335,0.20505334803884354
1728332379296220700,1.851220703125,-1.1530392169952393,0.08554389327764511,-0.09450015425682068,-0.5213235020637512,0.2823030948638916,-0.8053116202354431,0.063132643699646,-0.035568416118621826,0.07075351476669312,0.9281400510873087,-0.08651376687589782,-0.2997658398288004,0.20300731080133577
1728332379306251800,1.861251708984375,-1.0577009916305542,0.09932548552751541,-0.0828072726726532,-0.5208399295806885,0.2909228205680847,-0.8025519847869873,0.025417625904083252,-0.0024248361587524414,0.1107032299041748,0.9278654039405276,-0.09171712939645446,-0.3005194908056543,0.20085307534951902
1728332379316281900,1.87128173828125,-0.8225179314613342,0.2209019809961319,-0.08587523549795151,-0.5198831558227539,0.2979784607887268,-0.8005812764167786,-0.02970784902572632,-0.0007219016551971436,-0.007844626903533936,0.927737190795574,-0.09607863373797514,-0.3007960272112587,0.19898368883060408
1728332379326312700,1.881312744140625,-0.6804107427597046,0.4052675664424896,-0.07712249457836151,-0.5175754427909851,0.3035022020339966,-0.8000012636184692,-0.08601641654968262,0.045939356088638306,-0.08479481935501099,0.9279372183828082,-0.09972542445346913,-0.3000903277550714,0.19731449571471754
1728332379336343800,1.89134375,-0.5397121906280518,0.4134131073951721,-0.0433991476893425,-0.514411985874176,0.30808666348457336,-0.8002893328666687,-0.0993269681930542,0.10010126233100891,-0.026889681816101074,0.9283181001391986,-0.10289326302524633,-0.29877804654413975,0.19588338395617302
1728332379346376200,1.901376220703125,-0.5266008377075195,0.3659454584121704,-0.03202638402581215,-0.5113343000411987,0.3120897114276886,-0.8007104992866516,-0.05009746551513672,0.07064655423164368,-0.06501215696334839,0.9286714226334121,-0.10565282856096041,-0.2974596485045352,0.19474268472210898
1728332379356407000,1.911406982421875,-0.6515534520149231,0.2925455570220947,-0.106141097843647,-0.508943498134613,0.31642019748687744,-0.8005340695381165,-0.0074291229248046875,0.010209530591964722,-0.09929198026657104,0.9289105620728761,-0.10858515157383485,-0.29655056194034796,0.19337074218805747
1728332379366437000,1.92143701171875,-0.7644591331481934,0.2533162236213684,-0.11489783227443695,-0.5070655345916748,0.3214934170246124,-0.7997040152549744,-0.01052778959274292,-0.03012678027153015,-0.022241175174713135,0.9290527918553918,-0.11197812090733517,-0.2959879810551829,0.19160619212487734
1728332379376468200,1.93146826171875,-0.8278793692588806,0.18705996870994568,-0.036341238766908646,-0.5055700540542603,0.32755333185195923,-0.7981902956962585,-0.007643938064575195,-0.02745869755744934,0.011508166790008545,0.9289880139320643,-0.11581988547331591,-0.2957881254934975,0.1899379143332332
1728332379386499000,1.9414990234375,-0.7438071370124817,0.21536585688591003,-0.015463653951883316,-0.5040611028671265,0.333760142326355,-0.7965717911720276,-0.01400524377822876,-0.020191967487335205,0.0037250518798828125,0.9288364722977842,-0.11965622500094629,-0.2956290011313778,0.18854378980495823
1728332379396530400,1.951530517578125,-0.6633714437484741,0.26729297637939453,-0.018809381872415543,-0.5021718144416809,0.33931052684783936,-0.7954192757606506,-0.06614166498184204,-0.017807811498641968,0.0028777718544006348,0.9287830830818766,-0.1231479776044039,-0.29516935548369544,0.1872738726390642
1728332379406561300,1.961561279296875,-0.4752888083457947,0.29226449131965637,-0.02530749700963497,-0.4999935030937195,0.34378620982170105,-0.7948694825172424,-0.09831881523132324,-0.017949968576431274,0.027062535285949707,0.9288597343514988,-0.12605489379022197,-0.2944068871748936,0.18615659922530228
1728332379416592400,1.97159228515625,-0.36950939893722534,0.33276796340942383,0.007586538325995207,-0.49755409359931946,0.3469901978969574,-0.7950080037117004,-0.09021437168121338,-0.017751246690750122,0.03949958086013794,0.9290682374968995,-0.1282338619504192,-0.29334635556015726,0.1853000280569287
1728332379426622500,1.98162255859375,-0.28762710094451904,0.3286839425563812,0.06359680742025375,-0.4947083294391632,0.34990474581718445,-0.7955063581466675,-0.05386033654212952,0.019983649253845215,0.09578406810760498,0.929307714548433,-0.13019251108320423,-0.2920560607308633,0.18477089969154123
1728332379436653300,1.9916533203125,-0.016949264332652092,0.32013148069381714,0.016750741750001907,-0.4919959604740143,0.35143110156059265,-0.7965149879455566,-0.008019238710403442,0.03882777690887451,0.05541086196899414,0.9296235874897482,-0.13131121580411714,-0.2906886175504331,0.1845464164780063
1728332379446684400,2.001684326171875,0.35528576374053955,0.40580931305885315,-0.04973933473229408,-0.48914340138435364,0.3499777317047119,-0.7989081740379333,-0.001335054636001587,0.05474644899368286,-0.03460317850112915,0.9302858998468184,-0.13083293920302005,-0.2888401922224033,0.184450894305028
1728332379456715300,2.01171533203125,0.655096709728241,0.4274405539035797,-0.02091141603887081,-0.48592185974121094,0.34565573930740356,-0.802746593952179,-0.005807816982269287,0.12147688865661621,0.007046520709991455,0.9312657345922687,-0.1287718304872889,-0.2864341370159733,0.18470939255426747
1728332379466746400,2.021746337890625,0.84562087059021,0.4266153573989868,0.029269730672240257,-0.4824731945991516,0.339632123708725,-0.8073844909667969,-0.00020805001258850098,0.1775188148021698,0.09547042846679688,0.9323444684382035,-0.12567034824373843,-0.2837511714903578,0.18554287155500807
1728332379476776400,2.0317763671875,1.0553977489471436,0.4581410586833954,0.0573359839618206,-0.4787285029888153,0.33204448223114014,-0.8127517700195312,-0.016022413969039917,0.17140403389930725,0.14307409524917603,0.9335269182675592,-0.12165716656699337,-0.28075547359214154,0.18682452445790051
1728332379486807300,2.041807373046875,1.0377209186553955,0.5147190690040588,0.12666472792625427,-0.47442626953125,0.32380107045173645,-0.8185796141624451,-0.05627438426017761,0.10262110829353333,0.14258474111557007,0.9347615845735765,-0.1172753751083065,-0.2774106591694354,0.18844272823950672
1728332379496838400,2.05183837890625,1.0540450811386108,0.49984270334243774,0.1741797924041748,-0.4696679413318634,0.3161090016365051,-0.8243101239204407,-0.05766049027442932,0.03357672691345215,0.1734921932220459,0.9359183180315123,-0.11318083195700418,-0.2739252665892187,0.19029457580801737
1728332379506869200,2.061869140625,1.231762409210205,0.4849042594432831,0.17245592176914215,-0.4650213420391083,0.3072814345359802,-0.8302609920501709,-0.033742666244506836,0.0031587183475494385,0.1222531795501709,0.9370741766867505,-0.1084378011771005,-0.27038997970305817,0.1924126368527237
1728332379516900400,2.071900390625,1.031092643737793,0.4946748614311218,0.31307852268218994,-0.460252970457077,0.2987375855445862,-0.8360161781311035,-0.036893606185913086,0.045851707458496094,0.09913873672485352,0.9381195297321414,-0.10381321225846506,-0.266860867429628,0.19478162951799222
1728332379526931200,2.08193115234375,0.9886057376861572,0.40607503056526184,0.45019564032554626,-0.45516666769981384,0.2922367453575134,-0.8410832285881042,-0.01930534839630127,0.11720240116119385,0.19082993268966675,0.9388574831816521,-0.10014677762375766,-0.2634938234630322,0.19770796453604475
1728332379536961300,2.091961181640625,0.9460582733154297,0.20578321814537048,0.4003489911556244,-0.4513613283634186,0.28594884276390076,-0.8452847003936768,0.005087614059448242,0.08612149953842163,0.006371736526489258,0.9392958905459402,-0.09641157408935755,-0.26088785066289644,0.20091174311620522
1728332379546992400,2.101992431640625,0.9247152209281921,0.21078789234161377,0.2722453474998474,-0.4486840069293976,0.27960699796676636,-0.8488242626190186,-0.01988282799720764,-0.033070653676986694,-0.16464924812316895,0.939662071260373,-0.0927022718117181,-0.2588323125625051,0.2035861859521089
1728332379557023200,2.112023193359375,1.1251440048217773,0.12273445725440979,0.20500853657722473,-0.4464828670024872,0.2719883620738983,-0.8524525761604309,-0.014912337064743042,-0.10170021653175354,-0.1562296748161316,0.9401058058180911,-0.08838648270423057,-0.2568298025294144,0.20597896966523288
1728332379567054300,2.122054443359375,1.0921941995620728,0.01908034086227417,0.0625363364815712,-0.44562721252441406,0.26280027627944946,-0.8557759523391724,0.01082804799079895,-0.1048106849193573,-0.10577189922332764,0.9405363291270172,-0.08323537021946513,-0.25531139712778067,0.20803709945774018
1728332379577085200,2.132085205078125,0.9531354308128357,0.00788654200732708,0.08100535720586777,-0.4453292191028595,0.25444841384887695,-0.8584508895874023,0.013032525777816772,0.019248545169830322,0.08187007904052734,0.9409026419198219,-0.07860036589382911,-0.2541585018571851,0.20958935781722568
1728332379587115300,2.142115234375,1.094752311706543,-0.031393859535455704,0.17327404022216797,-0.44509977102279663,0.24619585275650024,-0.8609725832939148,0.035874366760253906,0.11595632135868073,0.1761886477470398,0.9411392089511337,-0.07391535276687478,-0.2530814763795656,0.21152589611888953
1728332379597146400,2.152146484375,1.16551673412323,-0.017313992604613304,0.17285113036632538,-0.44490885734558105,0.23716259002685547,-0.8636029362678528,0.029396861791610718,0.1038103699684143,0.07463198900222778,0.9413207962494154,-0.06874755554360563,-0.25193712166915727,0.21381442358713149
1728332379607177200,2.16217724609375,1.051950454711914,0.0222960002720356,0.17281891405582428,-0.44442617893218994,0.22825191915035248,-0.8662484884262085,-0.012971252202987671,0.0754895955324173,0.043891310691833496,0.9415235479020841,-0.06371439729504341,-0.2506316821608546,0.2160036456358695
1728332379617208300,2.172208251953125,0.9804182648658752,0.006258178967982531,0.20249104499816895,-0.4438915252685547,0.22014494240283966,-0.868617594242096,-0.006349533796310425,0.03266274929046631,0.08007389307022095,0.9416512661314139,-0.05910910115375358,-0.24939389071309717,0.21817819847370412
1728332379627239200,2.1822392578125,0.7904565930366516,-0.0009009847417473793,0.2190801501274109,-0.4433700144290924,0.21347136795520782,-0.8705475330352783,0.023387163877487183,0.0023642629384994507,0.06039738655090332,0.941679492592208,-0.055259690316503005,-0.2483396883940061,0.2202578622327306
1728332379637269200,2.192269287109375,0.9938507080078125,-0.05142541229724884,0.192920982837677,-0.44313138723373413,0.20678414404392242,-0.8722814321517944,0.02855011820793152,-0.0006531178951263428,0.06611382961273193,0.9416490496111716,-0.05137556874481958,-0.2474264149260999,0.22234618549284413
1728332379647300400,2.20230029296875,1.0143632888793945,-0.026947500184178352,0.1452282965183258,-0.44314685463905334,0.19854184985160828,-0.8741864562034607,0.02063104510307312,-0.001215130090713501,-0.04962641000747681,0.9416642506772568,-0.04669303498961279,-0.2464275353808843,0.2244139060626158
1728332379657331200,2.212331298828125,1.119847297668457,-0.05257856100797653,0.19187942147254944,-0.4430808126926422,0.1901066154241562,-0.8760929703712463,-0.0040627121925354,0.08851893246173859,-0.05092424154281616,0.941674865985504,-0.04193176992888662,-0.24534718852353155,0.2264840069428363
1728332379667362300,2.2223623046875,1.2211472988128662,-0.12126121670007706,0.22795939445495605,-0.44345465302467346,0.18052855134010315,-0.8779278993606567,0.016040772199630737,0.11747565865516663,-0.12506282329559326,0.9415589337072487,-0.03644283363502491,-0.24435212988186,0.22897775959119654
1728332379677393200,2.23239306640625,1.0993553400039673,-0.15451477468013763,0.21756933629512787,-0.44424450397491455,0.17132540047168732,-0.8793715834617615,0.031173884868621826,0.06985507905483246,-0.14684301614761353,0.9413286848711765,-0.031093801557006383,-0.243613165757,0.2314867240153454
1728332379687424300,2.24242431640625,1.0955421924591064,-0.18748630583286285,0.16486431658267975,-0.4454309642314911,0.16254284977912903,-0.8804380297660828,0.021084100008010864,0.019692912697792053,-0.05495631694793701,0.9410492642429937,-0.025970207511930098,-0.2431183786618991,0.23376341979020676
1728332379697454300,2.252454345703125,1.0168684720993042,-0.1752791702747345,0.09068435430526733,-0.4468536078929901,0.15370599925518036,-0.8813037872314453,0.0019226372241973877,-0.031055808067321777,-0.05546379089355469,0.9408023259002144,-0.02088689473870064,-0.2427176485945656,0.23567533353665304
1728332379707485200,2.262485107421875,1.0178000926971436,-0.18183881044387817,0.07121611386537552,-0.4482652246952057,0.14522413909435272,-0.8820250630378723,-0.036842137575149536,-0.012625202536582947,-0.008340537548065186,0.940592968830059,-0.01606602858990153,-0.242341387148202,0.23727054691260013
1728332379717516300,2.272516357421875,1.019415020942688,-0.08011511713266373,0.04662741720676422,-0.4493386745452881,0.13627126812934875,-0.8829070925712585,-0.051546305418014526,-0.0042826831340789795,-0.004574596881866455,0.940436100997615,-0.011070496498829454,-0.24171036571225482,0.23881697046912045
1728332379727547100,2.282547119140625,0.936883270740509,-0.05514957755804062,0.05547070875763893,-0.44980451464653015,0.12799769639968872,-0.8839074969291687,-0.07039806246757507,0.018410444259643555,0.0276758074760437,0.9403470922751078,-0.006536626226466849,-0.2408391853739155,0.24021070721400797
1728332379737578500,2.29257861328125,1.0071899890899658,-0.03654686361551285,0.058566901832818985,-0.4501546323299408,0.11951472610235214,-0.8849164247512817,-0.058710694313049316,0.03263071924448013,0.04965031147003174,0.9402397911537738,-0.0018996980491695653,-0.23987117956184983,0.2416763494203947
1728332379747608000,2.302608154296875,0.8597316741943359,-0.04209151118993759,0.029143759980797768,-0.4503949284553528,0.11142265796661377,-0.8858495354652405,-0.03504812717437744,-0.0012846589088439941,0.03122001886367798,0.9401418916749454,0.0024929653597304366,-0.23889120021147997,0.24301887419678744
1728332379757639200,2.31263916015625,0.7706249952316284,-0.08915265649557114,-0.004878386855125427,-0.4509654641151428,0.10423506051301956,-0.8864339590072632,-0.027458548545837402,-0.007906273007392883,0.020619750022888184,0.9400302521500815,0.006400291145989822,-0.2382058905712504,0.2440493727282585
1728332379767670300,2.322670166015625,0.6084244847297668,-0.09888176620006561,-0.011863060295581818,-0.45181968808174133,0.09800101071596146,-0.8867101073265076,-0.010964065790176392,-0.04021592438220978,-0.010415196418762207,0.9398998638186268,0.009810395864006845,-0.2377997269229637,0.2448333194476671
1728332379777701400,2.332701416015625,0.4803389310836792,-0.13463550806045532,-0.002510304097086191,-0.45281845331192017,0.09321482479572296,-0.8867166638374329,-0.008683562278747559,-0.052046552300453186,0.04069310426712036,0.9397408060470809,0.012480102524528452,-0.2376676542752767,0.24544977669298776
1728332379787732500,2.342732421875,0.3916351795196533,-0.14334750175476074,0.0008362238295376301,-0.45407894253730774,0.08931832015514374,-0.8864731192588806,-0.023994117975234985,-0.04485415667295456,0.04005277156829834,0.9395429629349236,0.014718614113208418,-0.2377957275056507,0.24595870964088873
1728332379797763300,2.352763427734375,0.32202866673469543,-0.11887145042419434,0.004832297097891569,-0.45521894097328186,0.08631453663110733,-0.8861859440803528,-0.05042678117752075,-0.009364411234855652,0.07588320970535278,0.9393613419368566,0.016470929212725992,-0.23798263706556716,0.24636009043450255
1728332379807793400,2.36279345703125,0.41030752658843994,-0.06359200924634933,-0.014781085774302483,-0.4560708701610565,0.08295086026191711,-0.886069118976593,-0.0774984061717987,0.025249265134334564,0.09657937288284302,0.9392245963891834,0.01836185615181654,-0.2379669599032767,0.24676256551332945
1728332379817824300,2.37282421875,0.3000105619430542,-0.026721077039837837,0.017533177509903908,-0.4564153850078583,0.07976529002189636,-0.8861842155456543,-0.09845516085624695,0.027793966233730316,0.0506587028503418,0.9391425350277652,0.02009920840379351,-0.23770550867930473,0.24719101536574858
1728332379827855400,2.38285546875,0.18746665120124817,-0.011868041008710861,0.05102376267313957,-0.4565051198005676,0.07774686813354492,-0.8863173723220825,-0.08653989434242249,-0.0008730292320251465,0.11973106861114502,0.9390569180171059,0.02122919354844494,-0.23746711380354565,0.24765052270733814
1728332379837886200,2.39288623046875,-0.0571710504591465,-0.002866024151444435,0.008676303550601006,-0.4565650224685669,0.07720077037811279,-0.886334240436554,-0.06498032808303833,-0.06799965351819992,0.15556031465530396,0.9389936230840683,0.02157348229973441,-0.23741832254043352,0.2479073444947517
1728332379847917300,2.402917236328125,-0.5152434706687927,0.023534689098596573,-0.05814693495631218,-0.4564707577228546,0.07955311238765717,-0.8861747980117798,-0.065623939037323,-0.12433760613203049,0.22055590152740479,0.9390706728749344,0.020279023039633425,-0.2377001470805736,0.2474545873772251
1728332379857947400,2.412947509765625,-1.0084164142608643,0.0322251170873642,-0.04886501654982567,-0.4562602639198303,0.08606664091348648,-0.8856743574142456,-0.0755847692489624,-0.1584084928035736,0.2542504072189331,0.9392480027270379,0.01671898655914009,-0.23850219247434307,0.24627276254043426
1728332379867978200,2.422978271484375,-1.4557167291641235,0.033938754349946976,0.01777898706495762,-0.45595550537109375,0.09699548780918121,-0.8847013115882874,-0.060264527797698975,-0.18741902709007263,0.23774391412734985,0.9393942623294204,0.010858751341378104,-0.23985709592882248,0.24472235420757538
1728332379878009300,2.43300927734375,-1.7798982858657837,0.047005824744701385,0.011915773153305054,-0.45558539032936096,0.11152875423431396,-0.8831779360771179,-0.05558398365974426,-0.1936057209968567,0.17671126127243042,0.9394721542486925,0.003114559269190668,-0.2416636729496835,0.24285991069541285
1728332379888040200,2.443040283203125,-1.6983425617218018,0.06906462460756302,-0.04435601830482483,-0.45507434010505676,0.12718041241168976,-0.881324291229248,-0.07515329122543335,-0.14954973757266998,0.11132001876831055,0.9395568671101374,-0.005313245947179395,-0.2435356647349549,0.240614073158039
1728332379898071300,2.4530712890625,-1.1660422086715698,0.047136154025793076,-0.0958237424492836,-0.4546509385108948,0.13962124288082123,-0.8796581625938416,-0.09689319133758545,-0.06329672038555145,-0.0029560327529907227,0.9396495513011042,-0.012106133307618033,-0.24499870422035308,0.23851187178935365
1728332379908101400,2.463101318359375,-0.632129430770874,-0.005040708929300308,-0.13093379139900208,-0.4545741379261017,0.14694157242774963,-0.878504753112793,-0.10907021164894104,0.05296388268470764,-0.2012072205543518,0.9397568173636528,-0.016189578651546722,-0.24593806719813527,0.23687475876922504
1728332379918132200,2.47313232421875,-0.21577054262161255,-0.09651576727628708,-0.12112616747617722,-0.455211341381073,0.1499885767698288,-0.8776594400405884,-0.11310216784477234,0.14751209318637848,-0.3155168294906616,0.9398127713144616,-0.017916803506132915,-0.24667647288000188,0.23575757389547095
1728332379928163300,2.483163330078125,-0.07841695100069046,-0.09376898407936096,-0.09492039680480957,-0.4562457501888275,0.15064610540866852,-0.8770094513893127,-0.09075126051902771,0.14723600447177887,-0.26846784353256226,0.9398070176928263,-0.01828407093932147,-0.24730745016684536,0.23509020042340767
1728332379938194200,2.493194091796875,-0.11964055150747299,-0.0706399604678154,-0.04389875382184982,-0.4570328891277313,0.1510937362909317,-0.8765224814414978,-0.08038163185119629,0.09272651374340057,-0.1434054970741272,0.9397833320500575,-0.018515533734090775,-0.24778203552895758,0.23466705080533762
1728332379948225300,2.503225341796875,-0.44642502069473267,-0.08738628774881363,-0.0485912449657917,-0.4577890932559967,0.1531856805086136,-0.8757644295692444,-0.05739334225654602,-0.02510334551334381,-0.047117650508880615,0.93971407666842,-0.019600390583609545,-0.24846249774820744,0.23413623940252873
1728332379958256000,2.513256103515625,-0.8958182334899902,-0.09891937673091888,-0.04344308748841286,-0.45866432785987854,0.15897224843502045,-0.8742738962173462,-0.03471332788467407,-0.12232056260108948,0.02794516086578369,0.9395789221677633,-0.02265373955753753,-0.24969951300160945,0.23308473786359704
1728332379968286200,2.5232861328125,-1.0593379735946655,-0.0927082896232605,-0.11229220032691956,-0.4596419632434845,0.16737917065620422,-0.8721888661384583,-0.0068191587924957275,-0.15495847165584564,0.05430251359939575,0.9394131270963476,-0.027147889758807362,-0.25133353211694687,0.23151110271518913
1728332379978317300,2.5333173828125,-0.9488337635993958,-0.09561966359615326,-0.22390154004096985,-0.4607153534889221,0.1755140870809555,-0.8700208067893982,0.010062366724014282,-0.08780652284622192,0.017481744289398193,0.9393426147999698,-0.031634989150542504,-0.2529601284271423,0.22944703073486464
1728332379988348200,2.54334814453125,-0.48854637145996094,-0.10072387754917145,-0.2533430755138397,-0.46202224493026733,0.1808384507894516,-0.8682355284690857,0.01808309555053711,0.08802147209644318,-0.020863592624664307,0.9393775768733192,-0.0347039997519715,-0.2543184425898077,0.22734907625336492
1728332379998379300,2.553379150390625,0.01628698594868183,-0.08683016896247864,-0.11202295124530792,-0.46322163939476013,0.18184787034988403,-0.86738520860672,0.04937282204627991,0.25127291679382324,-0.07057255506515503,0.9394346627816821,-0.03537827499049494,-0.25506033418016927,0.2261753406136746
1728332380008410000,2.56341015625,0.22640226781368256,-0.029835643246769905,0.0683572068810463,-0.4637320637702942,0.18057088553905487,-0.8673792481422424,0.08511582016944885,0.3077867031097412,-0.02539724111557007,0.9394072841201879,-0.03464503685375653,-0.2551668304354675,0.2262819351183693
1728332380018440200,2.573440185546875,0.14579585194587708,-0.017395751550793648,0.10938134044408798,-0.4637446403503418,0.179221972823143,-0.8676522374153137,0.09056052565574646,0.20876331627368927,0.07036525011062622,0.9393002960945646,-0.0337648332138849,-0.25501730152301033,0.22702642018007668
1728332380028471300,2.58347119140625,-0.23756392300128937,-0.005752251483500004,0.012574639171361923,-0.4637223780155182,0.17979218065738678,-0.8675461411476135,0.056297481060028076,0.004122063517570496,0.15287023782730103,0.9392089983547036,-0.03398269002139329,-0.25509233590500546,0.22728727431450277
1728332380038502100,2.593502197265625,-0.6530311703681946,-0.06583130359649658,-0.029007691890001297,-0.46401306986808777,0.18373170495033264,-0.8665648102760315,0.015740424394607544,-0.13760431110858917,0.200869619846344,0.9391034361352469,-0.03609705753874868,-0.2557627760993785,0.22664353596342204
1728332380048533200,2.603533203125,-0.802324652671814,-0.07959995418787003,-0.009861694648861885,-0.4647098779678345,0.19006718695163727,-0.8648232221603394,0.019641578197479248,-0.1729314923286438,0.17630088329315186,0.9388897803329158,-0.039473540810444754,-0.2569634669531704,0.22560517829161197
1728332380058564000,2.613564208984375,-0.7250530123710632,-0.08237522840499878,-0.052583321928977966,-0.4654709994792938,0.19667334854602814,-0.8629347085952759,0.011308461427688599,-0.10249602794647217,0.10841810703277588,0.9386558945794956,-0.043006565716389035,-0.25823065905582554,0.2244826558227046
1728332380068595200,2.62359521484375,-0.45114290714263916,-0.04773666709661484,-0.09734120965003967,-0.46618324518203735,0.2014656811952591,-0.8614434599876404,-0.04658830165863037,0.037731170654296875,0.059929728507995605,0.9385321405678605,-0.04564529483064399,-0.2592195741916959,0.22333676976148462
1728332380078625300,2.633625244140625,-0.07817014306783676,-0.002247745171189308,-0.043022044003009796,-0.46656832098960876,0.20340274274349213,-0.8607794642448425,-0.08764612674713135,0.13381655514240265,0.03450077772140503,0.9385191174806646,-0.04676396658625604,-0.2596601349417584,0.222646785496859
1728332380088656100,2.64365625,0.1407981514930725,0.06277509033679962,0.05465631186962128,-0.46628546714782715,0.20301297307014465,-0.8610247373580933,-0.07894152402877808,0.13570170104503632,0.01602351665496826,0.9385656348036372,-0.046580303619904576,-0.2594569572642197,0.2227260086770295
1728332380098687200,2.653687255859375,0.07727936655282974,0.09717275202274323,0.11411377787590027,-0.4653644561767578,0.20238980650901794,-0.8616694808006287,-0.0530528724193573,0.08528420329093933,0.05234330892562866,0.9386026800625695,-0.04622240959799049,-0.2588990856422965,0.2232932917332452
1728332380108718000,2.663718017578125,-0.10101773589849472,0.04350530728697777,0.09097623080015182,-0.4644855856895447,0.20294307172298431,-0.8620135188102722,-0.009543895721435547,0.011839687824249268,0.10217159986495972,0.9385804983733456,-0.04647659098482966,-0.25852113829917406,0.22377093031158185
1728332380118749400,2.67374951171875,-0.34218403697013855,-0.07571269571781158,0.027364501729607582,-0.46448707580566406,0.20516391098499298,-0.8614868521690369,0.03171736001968384,-0.055276766419410706,0.09169614315032959,0.9384416932543256,-0.04759548461643295,-0.25882668191768937,0.223765059670685
1728332380128779300,2.683779296875,-0.5495895147323608,-0.16130514442920685,0.011341327801346779,-0.46550092101097107,0.20910468697547913,-0.8599907755851746,0.05310171842575073,-0.07787905633449554,0.08723992109298706,0.9381592720657408,-0.04959053769134638,-0.25989497373689846,0.22327681792286927
1728332380138810000,2.69381005859375,-0.5978944897651672,-0.22035248577594757,0.008571641519665718,-0.467183917760849,0.21424569189548492,-0.8578099608421326,0.052572160959243774,-0.057354748249053955,0.08304494619369507,0.9377327451151737,-0.052157059436697406,-0.261485464974794,0.2226259978887439
1728332380148841500,2.703841552734375,-0.4602387547492981,-0.17745843529701233,-0.006211565807461739,-0.4689154028892517,0.21884235739707947,-0.85570228099823,0.021695613861083984,-0.0075690895318984985,0.05206763744354248,0.9373226849964619,-0.054444949608312906,-0.26302966830088265,0.22198518829091796
1728332380158872300,2.713872314453125,-0.21779176592826843,-0.11381368339061737,0.006240576971322298,-0.4701816141605377,0.22176335752010345,-0.8542542457580566,-0.032915860414505005,0.05710633099079132,0.01071786880493164,0.9370340148561573,-0.055882515550837286,-0.26410230739594637,0.22157268838553992
1728332380168903400,2.7239033203125,-0.02549075335264206,-0.057303376495838165,0.05852135643362999,-0.4708271026611328,0.2228623479604721,-0.85361248254776,-0.06068223714828491,0.10036462545394897,-0.00733417272567749,0.9368572882123584,-0.05635315116989608,-0.2646093169588459,0.22159579053837822
1728332380178933500,2.73393359375,-0.0007316111586987972,-0.0514281764626503,0.10655573010444641,-0.47106507420539856,0.22330515086650848,-0.853365421295166,-0.05946773290634155,0.09685482084751129,0.008638858795166016,0.9366931383751234,-0.056430813570753906,-0.26482608451739886,0.22201069445375735
1728332380188964400,2.74396435546875,-0.09250194579362869,-0.09522172808647156,0.09335736930370331,-0.4714503884315491,0.2241392433643341,-0.8529338836669922,-0.03652992844581604,0.03928855061531067,0.021177291870117188,0.9364692422764791,-0.05667577187685574,-0.2651809293374359,0.22246889087154828
1728332380198995500,2.753995361328125,-0.2909175753593445,-0.13481947779655457,0.06369694322347641,-0.4722810983657837,0.22611187398433685,-0.8519530296325684,-0.022057831287384033,-0.034797102212905884,0.04035329818725586,0.936171701919484,-0.05752898479155354,-0.2659208464085014,0.22261860292159802
1728332380209026300,2.7640263671875,-0.5087282061576843,-0.17014752328395844,0.0724310427904129,-0.47341713309288025,0.22988654673099518,-0.850310742855072,-0.010088086128234863,-0.0649847537279129,0.04537910223007202,0.9357776085860221,-0.05935212773011534,-0.26706167739995196,0.2224313096483787
1728332380219057400,2.774057373046875,-0.5442654490470886,-0.22120219469070435,0.05706514045596123,-0.4749242663383484,0.23478001356124878,-0.848130464553833,-0.00006651878356933594,-0.057198166847229004,0.002351045608520508,0.9352747931406751,-0.061741035890089196,-0.2685569193253137,0.22209508644359058
1728332380229088300,2.784088134765625,-0.5006921291351318,-0.229613795876503,-0.023162852972745895,-0.4768514931201935,0.2393583059310913,-0.8457660675048828,-0.014435678720474243,-0.03730134665966034,-0.04846000671386719,0.9347758133155087,-0.06398837244143502,-0.27022665803565366,0.22153391505118367
1728332380239118300,2.794118408203125,-0.3360264301300049,-0.18748551607131958,-0.07415519654750824,-0.47875311970710754,0.24267061054706573,-0.8437454700469971,-0.05171865224838257,0.01849888265132904,-0.04707789421081543,0.9344125910801783,-0.06565612837936298,-0.2716919862656575,0.22078455038423409
1728332380249149400,2.8041494140625,-0.1654251515865326,-0.10337862372398376,-0.024551691487431526,-0.4801507890224457,0.2445618361234665,-0.8424041271209717,-0.06251272559165955,0.07651367783546448,-0.02714848518371582,0.9341855325008295,-0.06661102225230865,-0.2726919498106534,0.2202260200232375
1728332380259180300,2.81418017578125,0.039637450128793716,-0.04123695194721222,0.04146194830536842,-0.4806969463825226,0.24511180818080902,-0.8419327139854431,-0.04824891686439514,0.09879085421562195,-0.032838404178619385,0.9340579353824611,-0.06682303291932729,-0.27307201213724597,0.2202324463673572
1728332380269211400,2.82421142578125,0.03466133400797844,-0.008390858769416809,0.017569396644830704,-0.48081037402153015,0.2448471635580063,-0.8419449329376221,-0.03588268160820007,0.05422516167163849,-0.02876734733581543,0.9340039078123455,-0.06660443428321439,-0.27311425249951793,0.2204746876919814
1728332380279242200,2.8342421875,-0.08963371813297272,-0.019035939127206802,-0.027185291051864624,-0.480927050113678,0.24501502513885498,-0.8418294787406921,-0.043395400047302246,0.001307666301727295,0.022661328315734863,0.9339877064553691,-0.06669376454557663,-0.2731981133027489,0.22041279309082043
1728332380289272300,2.844272216796875,-0.3129937946796417,-0.0490986593067646,-0.004418991506099701,-0.481262743473053,0.24660724401474,-0.8411723971366882,-0.029738813638687134,-0.02927623689174652,0.06869620084762573,0.9338966621679321,-0.06756700369420177,-0.27358452785014803,0.220052724274179
1728332380299303200,2.85430322265625,-0.3119000196456909,-0.09561929106712341,0.009251812472939491,-0.48185107111930847,0.24951082468032837,-0.8399785161018372,-0.0036835670471191406,-0.043074607849121094,0.05293017625808716,0.9336682971826985,-0.06908475426041244,-0.2742955316429496,0.2196651400507365
1728332380309334300,2.864334228515625,-0.19614678621292114,-0.08071043342351913,-0.08207996934652328,-0.48272907733917236,0.25140777230262756,-0.8389081358909607,-0.005445301532745361,-0.05038842558860779,-0.04753601551055908,0.9334890375336812,-0.07007855310286189,-0.2750180770755153,0.21920861242672923
1728332380319365400,2.874365478515625,-0.17173358798027039,-0.036971211433410645,-0.11862918734550476,-0.4835335910320282,0.25242266058921814,-0.8381396532058716,-0.049547433853149414,0.0026433467864990234,-0.04674804210662842,0.93345719344183,-0.0707182419491705,-0.2755523630798893,0.21846618071544682
1728332380329396200,2.884396240234375,-0.0677032545208931,-0.014244167134165764,-0.033816028386354446,-0.48389124870300293,0.25310322642326355,-0.8377279043197632,-0.06225129961967468,0.08425340056419373,0.005284667015075684,0.9334729923997259,-0.071181450135255,-0.2758065519007117,0.21792682767014251
1728332380339427600,2.894427490234375,0.029415570199489594,-0.03937534987926483,-0.011950410902500153,-0.4841673970222473,0.25312379002571106,-0.8375621438026428,-0.03251039981842041,0.07996037602424622,-0.024391651153564453,0.933445781360755,-0.0711811293040497,-0.2759568578989564,0.2178535240313416
1728332380349457700,2.904457763671875,-0.024722497910261154,-0.0342567041516304,-0.058049462735652924,-0.48463162779808044,0.2532733082771301,-0.8372483849525452,-0.03695949912071228,0.01686835289001465,-0.035020291805267334,0.9333824945250312,-0.07122886087696977,-0.27622862289920125,0.21776483411849226
1728332380359488800,2.91448876953125,-0.13294245302677155,-0.05778253450989723,-0.07483643293380737,-0.48565566539764404,0.25351643562316895,-0.8365811109542847,-0.04060465097427368,-0.026785999536514282,0.027346491813659668,0.9333152933369222,-0.07137428694291416,-0.2767944047434414,0.21728581300414032
1728332380369519600,2.92451953125,-0.17824368178844452,-0.06344026327133179,-0.06085030734539032,-0.4871135652065277,0.25414082407951355,-0.8355434536933899,-0.019768089056015015,-0.036153703927993774,0.06010699272155762,0.9331848138933325,-0.07170980348125813,-0.2776436363539885,0.21665150350370152
1728332380379550700,2.93455078125,-0.13710424304008484,-0.01188785582780838,-0.06266579031944275,-0.488031268119812,0.25455981492996216,-0.8348801136016846,-0.014013350009918213,-0.018414735794067383,0.05277562141418457,0.9331488534564322,-0.07199812298745406,-0.27816581889023917,0.21604001927988092
1728332380389581600,2.94458154296875,-0.029264984652400017,0.04294402152299881,-0.05994749814271927,-0.48778727650642395,0.25379490852355957,-0.83525550365448,-0.025640398263931274,0.018788188695907593,0.03770911693572998,0.933368172663669,-0.07178997498239517,-0.2778820732345288,0.21552658287372106
1728332380399611600,2.954611572265625,0.04857947677373886,0.053738612681627274,-0.05260303243994713,-0.4877065122127533,0.2531309425830841,-0.8355040550231934,-0.02753692865371704,0.04499530792236328,0.029214441776275635,0.9335044845803486,-0.07155132871014859,-0.27771994723081256,0.2152239574028591
1728332380409642800,2.964642822265625,0.007830517366528511,0.05127779394388199,-0.0433080680668354,-0.48800477385520935,0.2539544403553009,-0.8350799083709717,-0.020936816930770874,0.044324398040771484,0.044293224811553955,0.9334188978805437,-0.07197227015915175,-0.2779928683008274,0.2151024135362266
1728332380419673600,2.974673583984375,-0.06250835955142975,0.022448014467954636,-0.021762561053037643,-0.4877815246582031,0.25547459721565247,-0.8347465991973877,-0.0183524489402771,0.022784769535064697,0.043776750564575195,0.9333398095099382,-0.07278559172145198,-0.2780808336042034,0.215058350245008
1728332380429704700,2.98470458984375,-0.1314101368188858,0.013780595734715462,-0.034040797501802444,-0.48787951469421387,0.25622686743736267,-0.8344587087631226,-0.013203799724578857,-0.009522706270217896,0.007813811302185059,0.9333253394570508,-0.07323861498679779,-0.2782206816610166,0.21478627289259472
1728332380439735800,2.99473583984375,-0.14206677675247192,-0.011403053998947144,-0.07664099335670471,-0.4889567494392395,0.2564826011657715,-0.8337493538856506,-0.023418039083480835,-0.025479763746261597,-0.018057286739349365,0.9332769734882774,-0.07342857405284278,-0.27880742719496804,0.21416972481763485
1728332380449765600,3.004765625,-0.12373902648687363,-0.006237799301743507,-0.09209771454334259,-0.4902801215648651,0.25649169087409973,-0.832969069480896,-0.03611752390861511,-0.020132988691329956,-0.007713913917541504,0.9332408684869075,-0.07350647389961537,-0.2794857095489034,0.2134155573943695
1728332380459796700,3.014796630859375,-0.045329172164201736,0.01387146394699812,-0.0685039684176445,-0.4912893772125244,0.2565719485282898,-0.832349419593811,-0.03965538740158081,0.01242530345916748,0.002393364906311035,0.9332160109391052,-0.0736170917974863,-0.2800103897403845,0.2127968527697122
1728332380469827800,3.024827880859375,0.019557081162929535,0.058306626975536346,-0.030274292454123497,-0.49191999435424805,0.257003515958786,-0.8318436741828918,-0.029747426509857178,0.04425084590911865,0.015345871448516846,0.9331423892420891,-0.07384646470016815,-0.2804012338211389,0.21252575665934614
1728332380479859000,3.03485888671875,0.056265562772750854,0.05765921249985695,0.0016157315112650394,-0.4920559823513031,0.25774946808815,-0.83153235912323,-0.024881213903427124,0.05580344796180725,0.04564368724822998,0.9330514273961367,-0.07420163940431074,-0.28058496644940234,0.2125587471577856
1728332380489889800,3.044889892578125,0.04923541471362114,0.0670183077454567,-0.0045739877969026566,-0.492336630821228,0.25875791907310486,-0.8310529589653015,-0.016437113285064697,0.029175490140914917,0.05755436420440674,0.9328917762676616,-0.0746430307042148,-0.2808949094976727,0.2126955176337393
1728332380499921000,3.0549208984375,-0.02284916304051876,0.07809865474700928,-0.011294741183519363,-0.49272724986076355,0.2596176862716675,-0.8305531144142151,-0.012811660766601562,-0.004597485065460205,0.06851392984390259,0.9327666682906861,-0.07504886333535997,-0.2812314032575949,0.21265679307592966
1728332380509951000,3.064950927734375,-0.10258234292268753,0.09361263364553452,0.02319452539086342,-0.49236512184143066,0.2596839368343353,-0.830747127532959,-0.01051872968673706,-0.012964516878128052,0.09919500350952148,0.9328630655773221,-0.07518279627200083,-0.28102307833301765,0.21246197693736943
1728332380519981800,3.07498193359375,-0.17922945320606232,0.08137061446905136,0.055253397673368454,-0.4918779730796814,0.2599027454853058,-0.8309673070907593,0.005977153778076172,-0.012099921703338623,0.0764201283454895,0.9329621961856815,-0.07540320449537488,-0.2807680850963869,0.21228561920133102
1728332380530013000,3.085012939453125,-0.2177044004201889,0.05494806170463562,-0.0029915375635027885,-0.4919574558734894,0.260919451713562,-0.8306015133857727,0.005034297704696655,-0.011621266603469849,-0.005122363567352295,0.9329433159618254,-0.0760181019451307,-0.2809279113976449,0.21193743945329044
1728332380540043800,3.095043701171875,-0.175760418176651,0.03133993595838547,-0.07253306359052658,-0.49226638674736023,0.26239678263664246,-0.8299528360366821,-0.016949862241744995,-0.00905504822731018,-0.05913102626800537,0.9328931418654527,-0.07690182118004554,-0.2812644399788136,0.2113925648391086
1728332380550075000,3.105074951171875,-0.09204474836587906,0.004913921467959881,-0.06056055799126625,-0.4926849901676178,0.2637949585914612,-0.8292609453201294,-0.03201892971992493,0.007689476013183594,-0.047417521476745605,0.9328229481660214,-0.07772255480622607,-0.28165356251711166,0.21088353230663676
1728332380560105000,3.11510498046875,0.021225353702902794,0.03369630128145218,-0.015624508261680603,-0.4931318461894989,0.26472342014312744,-0.8286992907524109,-0.03474593162536621,0.03524920344352722,-0.02672368288040161,0.9327128801022724,-0.07820087435140147,-0.28201946364611413,0.21070440333589666
1728332380570135800,3.1251357421875,0.07173086702823639,0.099741630256176,0.01996171474456787,-0.49309149384498596,0.2648516297340393,-0.8286823034286499,-0.04664233326911926,0.05146312713623047,-0.013297677040100098,0.9326954288966002,-0.07825374738573564,-0.28201984838497535,0.21076144131839564
1728332380580167000,3.1351669921875,0.0712839886546135,0.13940195739269257,0.05313485115766525,-0.49258530139923096,0.2644774317741394,-0.8291027545928955,-0.04881173372268677,0.04606947302818298,0.016923248767852783,0.9327671958550302,-0.07806487402306987,-0.28169928068126765,0.21094256111113696
1728332380590197800,3.14519775390625,0.019609078764915466,0.11737074702978134,0.05255827680230141,-0.49215278029441833,0.26442354917526245,-0.8293768167495728,-0.023228049278259277,0.009075045585632324,0.043839097023010254,0.9327964383470229,-0.07802714365421519,-0.2814664456916244,0.21113825767757452
1728332380600228900,3.155228759765625,-0.08231355994939804,0.06768841296434402,0.043764252215623856,-0.49170246720314026,0.2649177312850952,-0.8294861316680908,0.005984783172607422,-0.02271491289138794,0.059863388538360596,0.9328026869483123,-0.0783001206078329,-0.2812934794173304,0.21123950791200752
1728332380610259700,3.165259765625,-0.15203438699245453,0.033217839896678925,0.045804765075445175,-0.49110934138298035,0.26589635014533997,-0.8295243978500366,0.019841700792312622,-0.02128264307975769,0.05857408046722412,0.9328132878342282,-0.07886787304262885,-0.2811008086908881,0.21123801299847914
1728332380620289800,3.175289794921875,-0.15864461660385132,0.027689646929502487,0.029902229085564613,-0.4906342923641205,0.26701709628105164,-0.8294455409049988,0.01732197403907776,-0.007526040077209473,0.027092576026916504,0.9328108172010987,-0.07951923487694817,-0.28098741875274663,0.2111558681164141
1728332380630321000,3.18532080078125,-0.11028140783309937,0.03326854109764099,0.013422323390841484,-0.4904051423072815,0.2680855989456177,-0.8292363286018372,-0.005398660898208618,0.0073966383934021,-0.008852660655975342,0.9327847783225761,-0.08013143350826679,-0.280999604817985,0.2110231480297424
1728332380640351700,3.195351806640625,-0.06114475429058075,0.05027921497821808,0.027268631383776665,-0.49016690254211426,0.26912859082221985,-0.8290393352508545,-0.026037871837615967,0.022192269563674927,-0.018922090530395508,0.9327406816090297,-0.08070329090131038,-0.2810112345023538,0.21098463459031877
1728332380650382800,3.2053828125,-0.02341315522789955,0.05864367634057999,0.047008514404296875,-0.48995059728622437,0.2701491415500641,-0.8288353085517883,-0.03347161412239075,0.030250728130340576,-0.0017464160919189453,0.9326612894382807,-0.08121666030061302,-0.28104485648444605,0.2110941653050407
1728332380660413700,3.21541357421875,-0.04158256947994232,0.06811706721782684,0.045922476798295975,-0.4898635745048523,0.27116772532463074,-0.8285540342330933,-0.03125455975532532,0.021343320608139038,0.004045367240905762,0.9325504698091093,-0.08170044201312787,-0.28115479858427095,0.211250463504211
1728332380670443800,3.22544384765625,-0.04972878471016884,0.05070900171995163,0.02386058308184147,-0.490017294883728,0.27191072702407837,-0.8282195329666138,-0.024631112813949585,0.005005836486816406,0.01498711109161377,0.9324548447421587,-0.08205547280507954,-0.2813487718860533,0.21127634925208144
1728332380680475000,3.235474853515625,-0.07121383398771286,0.0211537703871727,0.025381779298186302,-0.4903002381324768,0.27211853861808777,-0.8279837965965271,-0.014521479606628418,-0.005761057138442993,0.0191764235496521,0.9324122825352689,-0.08215733492290192,-0.2815284389060748,0.21118563227396828
1728332380690505700,3.245505615234375,-0.11062195897102356,-0.0035284049808979034,0.03127162903547287,-0.49050378799438477,0.2727365493774414,-0.8276598453521729,-0.004155606031417847,-0.01249784231185913,0.02577996253967285,0.9323409132428884,-0.08247139063497673,-0.2817242179207525,0.21111718771785484
1728332380700536800,3.255536865234375,-0.1368168145418167,-0.010378321632742882,0.036899685859680176,-0.4904576539993286,0.27375513315200806,-0.8273508548736572,-0.007467120885848999,-0.010617226362228394,0.03207802772521973,0.932264294599216,-0.08300635930013622,-0.28184129684861753,0.2110893451183056
1728332380710567700,3.265567626953125,-0.1354813128709793,-0.009389970451593399,0.040085628628730774,-0.49040696024894714,0.27503344416618347,-0.8269568681716919,-0.01581856608390808,-0.0010465383529663086,0.012915730476379395,0.9321633853687321,-0.08367286999882904,-0.2819936711628578,0.21106832683864613
1728332380720597800,3.27559765625,-0.0962153896689415,-0.0006052674725651741,0.03698171302676201,-0.49076664447784424,0.2764420509338379,-0.826273500919342,-0.017137348651885986,0.010972589254379272,-0.012822568416595459,0.931980290269037,-0.08435403167071445,-0.28239624901108673,0.2110676927780277
1728332380730628600,3.285628662109375,-0.06918470561504364,-0.018440136685967445,0.05126078426837921,-0.49163955450057983,0.2781777083873749,-0.8251712918281555,-0.01154947280883789,0.029058098793029785,-0.006783664226531982,0.9316695987565877,-0.08512525464776458,-0.2831396083417582,0.2111334238048377
1728332380740659700,3.29565966796875,-0.045873258262872696,-0.02780514396727085,0.0773959755897522,-0.49255552887916565,0.27936649322509766,-0.8242229223251343,-0.002851545810699463,0.03627687692642212,0.0020488500595092773,0.9313714555240934,-0.08557296602814726,-0.2838411598673796,0.2113260371031885
1728332380750690800,3.30569091796875,-0.05544106289744377,-0.00785689428448677,0.08085276186466217,-0.4935295581817627,0.2800171673297882,-0.8234190344810486,-0.0012976527214050293,0.018627911806106567,0.01128530502319336,0.9311132728573486,-0.08574003194115286,-0.2844980074563646,0.21151255210106426
1728332380760721700,3.3157216796875,-0.08222553879022598,0.0030274447053670883,0.0819755494594574,-0.49419620633125305,0.28033342957496643,-0.8229114413261414,-0.010167747735977173,-0.000639796257019043,0.030690431594848633,0.9309498615979738,-0.0857906018596776,-0.28492847927860193,0.21163194566894789
1728332380770752800,3.325752685546875,-0.10905948281288147,-0.005535151809453964,0.08669839799404144,-0.4945685863494873,0.2807807922363281,-0.8225351572036743,-0.00482100248336792,-0.00879281759262085,0.032923340797424316,0.9308240258345697,-0.0859446084127143,-0.2852121174400094,0.21174099232020205
1728332380780782600,3.335782470703125,-0.07950052618980408,-0.0303595419973135,0.050372883677482605,-0.4953344762325287,0.28134968876838684,-0.8218796253204346,0.004459261894226074,-0.005165547132492065,0.01716160774230957,0.930636910350451,-0.0861350887731127,-0.2857287731450663,0.21178949198687508
1728332380790813700,3.345813720703125,-0.05597715824842453,-0.0291199441999197,0.024203864857554436,-0.49606654047966003,0.2817608714103699,-0.8212970495223999,-0.0010494887828826904,-0.00040397047996520996,-0.004020333290100098,0.9304832755965957,-0.0862672101430525,-0.2861982531596321,0.21177709028389016
1728332380800844500,3.355844482421875,-0.022136636078357697,-0.030713846907019615,0.031598400324583054,-0.49627095460891724,0.28214552998542786,-0.821041464805603,-0.006521344184875488,0.014622718095779419,-0.0021854639053344727,0.9303993829227407,-0.08642088390859101,-0.2863750970602065,0.2118439430811971
1728332380810876000,3.3658759765625,-0.0348220057785511,-0.037197045981884,0.04493045061826706,-0.49633821845054626,0.28344571590423584,-0.8205527663230896,-0.00968894362449646,0.015336662530899048,0.014202117919921875,0.9302090628837225,-0.0870006217944394,-0.2866260550021638,0.21210247834657678
1728332380820906800,3.37590673828125,-0.04528476670384407,-0.03761542961001396,0.041422534734010696,-0.4962855875492096,0.28530633449554443,-0.8199396133422852,-0.016745388507843018,-0.0008671879768371582,0.029152870178222656,0.9299686547099819,-0.08785899641933871,-0.28689893764169383,0.21243390539353746
1728332380830936600,3.3859365234375,-0.06475373357534409,-0.033118411898612976,0.029268397018313408,-0.49647119641304016,0.2865414023399353,-0.8193963766098022,-0.022419124841690063,-0.017742514610290527,0.019515395164489746,0.9297822685714318,-0.08841730427999475,-0.28720061822906734,0.21261047007718273
1728332380840968000,3.395968017578125,-0.07832440733909607,-0.026022421196103096,0.024159656837582588,-0.4973643720149994,0.2872251868247986,-0.8186149597167969,-0.019038766622543335,-0.01862463355064392,0.019527435302734375,0.9295840907285111,-0.0886834154745623,-0.28779816025413485,0.21255832627996998
1728332380850998800,3.405998779296875,-0.029009919613599777,-0.03420621156692505,0.030139783397316933,-0.4981705844402313,0.28751519322395325,-0.8180226683616638,-0.010252207517623901,0.0037293434143066406,0.014143884181976318,0.9294356330664257,-0.08875600241844502,-0.28828986023585307,0.2125104640286562
1728332380861030000,3.41602978515625,0.032196175307035446,-0.008551446720957756,0.044652946293354034,-0.49829065799713135,0.28739720582962036,-0.8179910182952881,0.0018002092838287354,0.022600442171096802,-0.001100778579711914,0.9293927163947148,-0.08863515352052444,-0.2883544865568104,0.21266093014321885
1728332380871060700,3.426060791015625,0.041008111089468,0.006398953031748533,0.06008623167872429,-0.49802252650260925,0.28703176975250244,-0.8182825446128845,0.0037598907947540283,0.034150540828704834,-0.0049443840980529785,0.9294062679679588,-0.08839002241484581,-0.28817690535716667,0.21294437536300972
1728332380881090800,3.4360908203125,-0.012063894420862198,0.005358722060918808,0.07015004754066467,-0.4977942407131195,0.28746581077575684,-0.8182691335678101,0.0004188120365142822,0.02601081132888794,0.008958220481872559,0.9293219937124619,-0.08852956945320835,-0.28814572516622655,0.2132963322246255
1728332380891122000,3.446121826171875,-0.06304258853197098,-0.007957402616739273,0.06472918391227722,-0.4979599118232727,0.2885870039463043,-0.8177734613418579,0.0012558698654174805,0.001360565423965454,0.02745974063873291,0.9291260459809381,-0.08900184755353854,-0.2884301267015023,0.213568403180034
1728332380901152800,3.45615283203125,-0.055393192917108536,-0.005358424037694931,0.049051690846681595,-0.49867939949035645,0.28937292098999023,-0.8170570135116577,-0.005119979381561279,-0.01736968755722046,0.018305182456970215,0.9289100305976364,-0.08929201654480182,-0.2889609234715875,0.213669775596104
1728332380911184000,3.466183837890625,-0.07231651246547699,0.020251598209142685,0.04066326469182968,-0.4993842542171478,0.28944113850593567,-0.8166022896766663,-0.015309929847717285,-0.018994271755218506,-0.010668277740478516,0.9288000128032557,-0.08926357459431186,-0.2893628867896709,0.2136160465811874
1728332380921214700,3.476214599609375,-0.058996982872486115,0.025026381015777588,0.04630357399582863,-0.4998452961444855,0.28959208726882935,-0.8162665963172913,-0.01980796456336975,0.0033919811248779297,-0.0009178519248962402,0.928725625831761,-0.08931035866610296,-0.2896383372252884,0.21354637938811616
1728332380931244800,3.486244873046875,0.017632614821195602,0.02890213206410408,0.046574950218200684,-0.49990934133529663,0.2900846004486084,-0.8160524964332581,-0.013075858354568481,0.010666221380233765,0.0038881897926330566,0.9286337927399251,-0.08950953888982684,-0.28976162496293106,0.21369535721892785
1728332380941276000,3.49627587890625,0.03484435752034187,0.051916368305683136,0.04344973340630531,-0.4992198646068573,0.29070916771888733,-0.8162522315979004,-0.0065784454345703125,0.006760984659194946,0.0011124610900878906,0.9286122176541517,-0.0898069954720367,-0.28949714510253555,0.21402185080334818
1728332380951306800,3.506306640625,0.037176623940467834,0.051043760031461716,0.03005536086857319,-0.49833229184150696,0.29153552651405334,-0.8164998292922974,-0.0038496553897857666,0.007903039455413818,0.006120800971984863,0.9286002598577702,-0.09022628518015328,-0.2891527413919531,0.21436285303289693
1728332380961337900,3.516337890625,0.010617981664836407,0.0352911613881588,0.011628417298197746,-0.4978835880756378,0.29219067096710205,-0.8165393471717834,0.0031631886959075928,-0.0007782876491546631,0.018031716346740723,0.9285673458290088,-0.0905552186367793,-0.28901569433850205,0.21455139562340575
1728332380971368700,3.52636865234375,-0.058172598481178284,0.021574923768639565,0.020585959777235985,-0.49793151021003723,0.2926276922225952,-0.8163536190986633,0.006323903799057007,-0.01339179277420044,0.03501206636428833,0.9285173978530906,-0.0907741865314994,-0.289107646899506,0.2145513259772233
1728332380981399800,3.53639990234375,-0.06933417171239853,0.0023948373273015022,-0.0017678150907158852,-0.49827730655670166,0.29269179701805115,-0.8161196112632751,0.010957449674606323,-0.018994837999343872,0.017505109310150146,0.928489796099555,-0.09081547866245883,-0.2892969899469964,0.21439784562793643
1728332380991430000,3.546429931640625,-0.07608642429113388,-0.002993270754814148,-0.045835141092538834,-0.49870213866233826,0.29231977462768555,-0.8159934282302856,-0.00276261568069458,-0.02083534002304077,-0.00396806001663208,0.9285370192348782,-0.09068566793910766,-0.2894466880759732,0.21404591605516127
1728332381001460700,3.556460693359375,-0.056785959750413895,-0.007598407566547394,-0.03389405831694603,-0.49934372305870056,0.2925887703895569,-0.8155045509338379,-0.017547696828842163,-0.00808858871459961,0.01031351089477539,0.9284888761368857,-0.09086396374442099,-0.2898128304488128,0.21368345739467273
1728332381011491800,3.566491943359375,-0.01266050897538662,-0.004831543192267418,0.005209400784224272,-0.49972522258758545,0.2930228114128113,-0.8151149153709412,-0.011566251516342163,0.008506178855895996,0.017324388027191162,0.9284104467839682,-0.09107955806541616,-0.2900811059718181,0.21356850536224545
1728332381021522700,3.576522705078125,0.02806827798485756,-0.004706108942627907,-0.01585220918059349,-0.4998883605003357,0.29303914308547974,-0.8150089979171753,-0.0008134841918945312,0.015493631362915039,0.003516077995300293,0.9283834384643301,-0.09107153788654039,-0.2901749057164497,0.2135617610155004
1728332381031553800,3.5865537109375,0.03099229745566845,-0.014912993647158146,-0.03612898290157318,-0.5001108646392822,0.2928510010242462,-0.8149401545524597,-0.00033152103424072266,0.01655152440071106,0.009276092052459717,0.9283803771538832,-0.090970550892919,-0.29026590264013,0.2134946557391348
1728332381041583900,3.596583984375,0.0014445239212363958,-0.03842843696475029,-0.03250548616051674,-0.5005249977111816,0.2926579713821411,-0.8147552013397217,0.01030588150024414,0.008764207363128662,0.02746272087097168,0.9283595084248524,-0.09086366712911921,-0.2904585692385572,0.21336896322060447
1728332381051614700,3.60661474609375,-0.054247964173555374,-0.06163948401808739,-0.011104324832558632,-0.5012627840042114,0.2926556468009949,-0.814302384853363,0.0191461443901062,-0.00173148512840271,0.04471004009246826,0.9282703834686329,-0.09082342108265026,-0.29086066173401715,0.21322625197213987
1728332381061645800,3.616645751953125,-0.06976700574159622,-0.08152318000793457,-0.03280136361718178,-0.5018730163574219,0.2927298843860626,-0.8138997554779053,0.019817352294921875,-0.009374111890792847,0.031139135360717773,0.9282044012232834,-0.09085033417077014,-0.29119812158305936,0.21304141987899242
1728332381071676700,3.6266767578125,-0.07488600164651871,-0.07787070423364639,-0.051079969853162766,-0.5026606917381287,0.2925402522087097,-0.8134816884994507,0.0020351409912109375,-0.009443879127502441,0.009679198265075684,0.92816721390318,-0.09076694891990483,-0.29158280013465243,0.21271220371966953
1728332381081707800,3.636707763671875,-0.07901336997747421,-0.08602237701416016,-0.020979059860110283,-0.5037757754325867,0.29280897974967957,-0.8126948475837708,-0.010323286056518555,0.00418815016746521,0.013607323169708252,0.9280268571073033,-0.0908772380348487,-0.292222358274657,0.21239983127221726
1728332381091738600,3.646738525390625,-0.07001115381717682,-0.08511253446340561,0.014395175501704216,-0.5046800374984741,0.2936397194862366,-0.8118335604667664,-0.0042920708656311035,0.016495227813720703,0.020528018474578857,0.9278116624313121,-0.09122569042247755,-0.29284995195887176,0.21232582487170568
1728332381101768700,3.656768798828125,-0.05935291200876236,-0.08839647471904755,-0.0015630177222192287,-0.5052656531333923,0.2945058345794678,-0.8111552596092224,0.0009627938270568848,0.014942437410354614,0.0075359344482421875,0.9276200498256605,-0.09159296474456688,-0.2933139691648546,0.21236439800471568
1728332381111799800,3.6667998046875,-0.06110374256968498,-0.08620474487543106,-0.007064309902489185,-0.5059147477149963,0.2952709197998047,-0.810472309589386,-0.0012568235397338867,0.010683119297027588,0.0011613965034484863,0.9274453119810218,-0.09192617100280219,-0.2937914490621353,0.21232396437883141
1728332381121830700,3.67683056640625,-0.05838172510266304,-0.10284391045570374,0.008310385048389435,-0.506605327129364,0.29609230160713196,-0.8097409605979919,0.0029738545417785645,0.008824139833450317,0.015109002590179443,0.9272500653058804,-0.09227375793125038,-0.29430441144577374,0.21231519301009963
1728332381131861800,3.68686181640625,-0.06585235893726349,-0.1035621166229248,0.0063577559776604176,-0.5074095129966736,0.2968398928642273,-0.8089633584022522,0.01302480697631836,0.004353374242782593,0.009906351566314697,0.927031963313797,-0.09255610747051374,-0.2948757319058877,0.21235208720946214
1728332381141892600,3.696892578125,-0.09004931151866913,-0.08201874047517776,-0.009145303629338741,-0.5080105662345886,0.2973893880844116,-0.808384120464325,-0.0007936954498291016,-0.0004532933235168457,0.013767361640930176,0.9268942052959135,-0.0927967724011327,-0.295290887195949,0.21227170828675557
1728332381151922700,3.706922607421875,-0.09580027312040329,-0.07382643222808838,0.010540781542658806,-0.5085837244987488,0.29784896969795227,-0.8078543543815613,-0.014823198318481445,0.0003993809223175049,0.026894211769104004,0.9267803662342229,-0.09300919593392354,-0.2956723146996965,0.21214496217553067
1728332381161953800,3.716953857421875,-0.07842660695314407,-0.0811258852481842,0.014164280146360397,-0.5093264579772949,0.29866334795951843,-0.8070853352546692,-0.005047261714935303,-0.0002471506595611572,0.01365882158279419,0.9265818860664442,-0.09335761588138451,-0.29621223382450196,0.21210533297893974
1728332381171984600,3.726984619140625,-0.06768407672643661,-0.06271614879369736,-0.011712058447301388,-0.5099984407424927,0.2996138334274292,-0.806308388710022,0.0011789202690124512,0.002296656370162964,-0.010784506797790527,0.9263779242640887,-0.09377950358896624,-0.29673425958705757,0.21208084326426924
1728332381182015700,3.737015625,-0.07509086281061172,-0.05376872420310974,-0.022434210404753685,-0.510387659072876,0.3003765344619751,-0.8057781457901001,-0.007724463939666748,0.005714863538742065,-0.019310355186462402,0.926262983656521,-0.0941683540945931,-0.29705766918001186,0.21195749590548002
1728332381192046800,3.747046875,-0.06367769092321396,-0.04822125285863876,-0.012125380337238312,-0.5107131004333496,0.30098849534988403,-0.8053434491157532,-0.010847508907318115,0.008383482694625854,-0.00810253620147705,0.9261767542807956,-0.09449083987405234,-0.2973209450556164,0.21182169596376496
1728332381202076700,3.75707666015625,-0.046180449426174164,-0.023928964510560036,-0.008491763845086098,-0.5110241770744324,0.3015803098678589,-0.8049246072769165,-0.01660943031311035,0.0017644762992858887,-0.015250563621520996,0.9260822132413685,-0.09478716378514959,-0.29757873192883466,0.21174044907828873
1728332381212107800,3.767107666015625,-0.04766043648123741,0.021833889186382294,-0.007628100924193859,-0.5107733011245728,0.30203455686569214,-0.8049135208129883,-0.025176405906677246,-0.004518598318099976,-0.02041912078857422,0.9260956111559528,-0.09507272765176195,-0.29749690442580873,0.21166889634064462
1728332381222139000,3.777138916015625,-0.04011170566082001,0.029791148379445076,-0.005161480978131294,-0.5106651782989502,0.3022894561290741,-0.8048864006996155,-0.02085942029953003,-0.0038732588291168213,-0.0061945319175720215,0.9261151331565902,-0.0952541139345874,-0.2974616650695485,0.21155148506341043
1728332381232170000,3.787169921875,-0.055978357791900635,0.04187742620706558,-0.011015375144779682,-0.5109663605690002,0.3026456832885742,-0.8045613765716553,-0.008259713649749756,-0.0014066100120544434,0.0066640377044677734,0.9260710340205912,-0.09546556620313676,-0.29766700361683823,0.21136017417856118
1728332381242200800,3.797200927734375,-0.04364898428320885,0.043760281056165695,-0.01365403551608324,-0.5108733177185059,0.30294016003608704,-0.8045096397399902,0.00011593103408813477,0.0018847286701202393,0.009801387786865234,0.9261000637906147,-0.09568842406567526,-0.2976388699319658,0.21117208281724048
1728332381252232000,3.80723193359375,-0.025063516572117805,0.05994516238570213,-0.03108229488134384,-0.5103384256362915,0.30297353863716125,-0.8048364520072937,0.0017020106315612793,-0.0008036792278289795,0.005031764507293701,0.926227504906364,-0.09582092724828663,-0.29732157508921003,0.21099979006258165
1728332381262261800,3.81726171875,-0.021260255947709084,0.07231155037879944,-0.03587864711880684,-0.5098331570625305,0.3028958737850189,-0.8051857948303223,-0.004464209079742432,0.0030123889446258545,0.003687441349029541,0.9263727475865265,-0.09590931758049304,-0.2969991607102348,0.21077552237023198
1728332381272292900,3.82729296875,-0.01984931342303753,0.07679007947444916,-0.025205496698617935,-0.5094517469406128,0.30295565724372864,-0.805404782295227,-0.008233129978179932,0.008171141147613525,-0.0028685331344604492,0.9264805346771013,-0.09605117739744655,-0.29676891274186096,0.21056206694108365
1728332381282323700,3.83732373046875,0.008019335567951202,0.07410748302936554,-0.0319661982357502,-0.5091172456741333,0.30275705456733704,-0.8056909441947937,-0.006309330463409424,0.005104333162307739,-0.011936068534851074,0.9266042163639098,-0.09605154374572901,-0.29652763497426665,0.21035734937995562
1728332381292354800,3.847354736328125,0.04910392314195633,0.08637815713882446,-0.053360432386398315,-0.5089508295059204,0.3019118309020996,-0.806113064289093,-0.009283363819122314,0.003035128116607666,-0.021294772624969482,0.9267801682261005,-0.09572145314966958,-0.29627836229379634,0.2100834378390661
1728332381302386000,3.857385986328125,0.05644705519080162,0.08643461763858795,-0.04970844089984894,-0.5088179111480713,0.3009917736053467,-0.8065409064292908,-0.018083274364471436,0.015063583850860596,-0.01990562677383423,0.9269608775965671,-0.09535361599405213,-0.2960358618242291,0.20979492460339694
1728332381312415700,3.867415771484375,0.04822254925966263,0.07678411900997162,-0.028743240982294083,-0.5085768103599548,0.30038344860076904,-0.8069196939468384,-0.01208353042602539,0.020096957683563232,0.001515030860900879,0.9271023729711699,-0.09512189422188179,-0.29579041627543284,0.20962135406463892
1728332381322446800,3.87744677734375,0.01905880495905876,0.07350123673677444,-0.028869740664958954,-0.5082113742828369,0.3001592755317688,-0.8072333335876465,-0.0052163004875183105,0.0049555301666259766,0.015073239803314209,0.9272103000535273,-0.09507980179952766,-0.29553879441004477,0.20951791473637751
1728332381332477700,3.887477783203125,-0.015791453421115875,0.07232119143009186,-0.03341442346572876,-0.5077875852584839,0.3000778257846832,-0.8075302839279175,-0.007516980171203613,-0.008665412664413452,0.01898658275604248,0.9273279156007734,-0.09513766468325818,-0.2952688400076136,0.20935193300832583
1728332381342507000,3.897507080078125,-0.06416697800159454,0.0635301023721695,-0.027243081480264664,-0.5074997544288635,0.3004107177257538,-0.8075873851776123,-0.0009229779243469238,-0.009929090738296509,0.03271561861038208,0.9273980998065552,-0.09541871154984585,-0.2951297606495713,0.20910878065270078
1728332381352537900,3.907537841796875,-0.026670733466744423,0.042710304260253906,-0.01945706270635128,-0.5072985291481018,0.30092504620552063,-0.8075223565101624,0.008412480354309082,-0.0042330920696258545,0.04745149612426758,0.9274247099802359,-0.09576872001853114,-0.29507148442127223,0.20891289950376815
1728332381362567700,3.917567626953125,-0.003284184727817774,0.05203909054398537,-0.015035150572657585,-0.5070090889930725,0.30097612738609314,-0.8076850771903992,0.01367729902267456,0.0013005435466766357,0.03478163480758667,0.92749529698098,-0.09586485102678041,-0.2949023661290014,0.2087940561344084
1728332381372598800,3.927598876953125,0.0020970648620277643,0.04891631752252579,0.0007691117934882641,-0.5066117644309998,0.3008863627910614,-0.8079677224159241,0.011769354343414307,0.019700825214385986,0.030532479286193848,0.9275862554048873,-0.09588326794541414,-0.29465663164555295,0.20872831425639393
1728332381382630000,3.9376298828125,0.028881540521979332,0.025247476994991302,-0.004221918061375618,-0.5064414739608765,0.3009112477302551,-0.8080652356147766,0.01596301794052124,0.02788519859313965,0.005544483661651611,0.9276099494457727,-0.09591119792622112,-0.29456479773352806,0.20873994369623705
1728332381392660700,3.94766064453125,0.01211574487388134,0.012782923877239227,-0.0078054675832390785,-0.5065224766731262,0.30113208293914795,-0.8079321980476379,0.011084973812103271,0.014587551355361938,-0.01135796308517456,0.9275720106465626,-0.09601331687034789,-0.29464445454846444,0.20874914743080103
1728332381402691800,3.95769189453125,-0.010298751294612885,0.002946271561086178,0.0022719339467585087,-0.506765604019165,0.3012836277484894,-0.8077232241630554,0.001470804214477539,0.0066845715045928955,0.0002738833427429199,0.9275248190859384,-0.0960775080470884,-0.2948007674048529,0.2087089044564755
1728332381412723000,3.967722900390625,-0.029631704092025757,-0.0024473760277032852,0.007824359461665154,-0.5071593523025513,0.30132198333740234,-0.8074617981910706,-0.006466686725616455,-0.0015324950218200684,0.008374214172363281,0.9274703459689713,-0.09607645375740487,-0.2950227619650656,0.20863791537136853
1728332381422752800,3.977752685546875,-0.03892453759908676,-0.004106258973479271,0.009235832840204239,-0.50758296251297,0.3015719950199127,-0.8071022033691406,-0.01191776990890503,-0.010449469089508057,0.017597198486328125,0.9273884565065158,-0.0961800276008295,-0.2952935835243991,0.20857121977035717
1728332381432784000,3.987783935546875,-0.041883908212184906,-0.008102437481284142,0.021020587533712387,-0.5079346299171448,0.3022201657295227,-0.8066383600234985,-0.01098620891571045,-0.00659632682800293,0.031491875648498535,0.9272647456091855,-0.09647789891500777,-0.2955889803043935,0.2085650554224108
1728332381442814700,3.997814697265625,-0.007493177428841591,-0.016605911776423454,0.021831786260008812,-0.5080233216285706,0.30282461643218994,-0.8063557147979736,0.002743840217590332,0.002976834774017334,0.03362011909484863,0.9271674120380254,-0.09675044799159,-0.2957389058352676,0.2086585273784505
1728332381452845800,4.007845703125,0.0007295983377844095,-0.01775682345032692,0.015455646440386772,-0.5080969929695129,0.3035017251968384,-0.8060546517372131,0.012155890464782715,0.010356366634368896,0.016763269901275635,0.9270530034912985,-0.09704487648772143,-0.2958968630082947,0.2088062606372474
1728332381462876700,4.017876708984375,0.007614935282617807,-0.034583475440740585,0.00021544145420193672,-0.5080344080924988,0.30398643016815186,-0.8059114217758179,0.01529771089553833,0.00997847318649292,0.010760724544525146,0.92698445756364,-0.0972598015306587,-0.2959473137690665,0.2089388317686232
1728332381472906800,4.02790673828125,-0.012257372960448265,-0.05365293100476265,0.0005656466819345951,-0.5081304311752319,0.3041139543056488,-0.8058028221130371,0.013715207576751709,0.0012602806091308594,0.007600307464599609,0.9269405932454583,-0.09729433137198383,-0.29602771733080924,0.20900376016875283
1728332381482937900,4.037937744140625,-0.03983893245458603,-0.06172177568078041,0.004612319637089968,-0.5085258483886719,0.3044055700302124,-0.8054431676864624,0.00568777322769165,-0.007469445466995239,0.005821585655212402,0.9268398716028894,-0.09739598621688017,-0.2962978691165568,0.20902038537303633
1728332381492968700,4.04796875,-0.052604928612709045,-0.06350284814834595,0.005013924557715654,-0.5091289281845093,0.3047364056110382,-0.8049368858337402,-0.0030627846717834473,-0.009570330381393433,0.006627559661865234,0.9267112641128429,-0.09751171629814785,-0.29668672627013576,0.20898473080867114
1728332381502999800,4.057999755859375,-0.05560098588466644,-0.05721139535307884,0.009629715234041214,-0.5098859071731567,0.30501624941825867,-0.8043515682220459,-0.010011494159698486,-0.006874710321426392,0.010284185409545898,0.9265712541802923,-0.09759807947622902,-0.29715119008019425,0.20890562692056514
1728332381513030700,4.06803076171875,-0.02261187694966793,-0.05528336763381958,0.0186274703592062,-0.5107433199882507,0.30534809827804565,-0.8036814332008362,-0.006026029586791992,0.004237532615661621,0.016938209533691406,0.9263960455493903,-0.0976828968879704,-0.29768665661876487,0.20888069824880887
1728332381523061800,4.078061767578125,0.002174429828301072,-0.0474182590842247,0.007018220145255327,-0.5113518238067627,0.30574464797973633,-0.8031435608863831,0.0004570484161376953,0.007350504398345947,0.004925787448883057,0.9262342414017607,-0.09779685123663799,-0.29810064242970213,0.20895471776348068
1728332381533091800,4.088091796875,-0.0005545110907405615,-0.039784520864486694,-0.000023976899683475494,-0.511493444442749,0.30612894892692566,-0.8029069900512695,0.00033926963806152344,0.004326432943344116,-0.0007123947143554688,0.9261478200190418,-0.09794771480638112,-0.2982495007173674,0.20905453926493786
1728332381543122700,4.098122802734375,0.004159283824265003,-0.04246019944548607,-0.006510105915367603,-0.5115121006965637,0.3064206540584564,-0.8027837872505188,0.001380324363708496,0.0004183948040008545,0.003299534320831299,0.9260968963327633,-0.09807121141767222,-0.2983121549601767,0.20913289893494852
