time,seconds_elapsed,rotationRateX,rotationRateY,rotationRateZ,gravityX,gravityY,gravityZ,accelerationX,accelerationY,accelerationZ,quaternionW,quaternionX,quaternionY,quaternionZ
1729787705115601000,0.069600830078125,0.0024476097896695137,-0.7823604345321655,-0.052097246050834656,-0.327339768409729,-0.3855341672897339,-0.862677276134491,-0.002326399087905884,0.03862553834915161,-0.016595125198364258,0.9650589735109113,0.19974642509983823,-0.1695957407570085,2.944537987562164e-18
1729787705125631000,0.079630859375,0.058032307773828506,-0.7412564158439636,-0.10184109956026077,-0.3336673676967621,-0.3860401511192322,-0.8600227236747742,0.00793793797492981,0.02249947190284729,0.038550615310668945,0.9643703729913178,0.19995462158189437,-0.17322466730256547,-0.0010954922301992926
1729787705135661800,0.089661865234375,0.08704085648059845,-0.6814825534820557,-0.13934294879436493,-0.33936700224876404,-0.38714560866355896,-0.8572912812232971,0.011043578386306763,-0.020996510982513428,0.11983400583267212,0.963659748171192,0.20044441187679898,-0.17656843424544647,-0.0023367700986307908
1729787705145693000,0.09969287109375,0.07757624983787537,-0.6364690065383911,-0.0815693810582161,-0.3445874750614166,-0.3882961571216583,-0.8546844720840454,-0.0010851621627807617,-0.06102946400642395,0.16628426313400269,0.962979804912894,0.20096113184943742,-0.1796451479999013,-0.0034877640728998463
1729787705155723800,0.109723876953125,0.051993124186992645,-0.6230967044830322,-0.019418396055698395,-0.3498276174068451,-0.3890373110771179,-0.8522151112556458,-0.016688555479049683,-0.08013996481895447,0.16872823238372803,0.9623353353365478,0.20132022767758687,-0.18265433464745215,-0.004276342847742961
1729787705165755000,0.1197548828125,0.06387375295162201,-0.6292235851287842,0.030029315501451492,-0.3552285432815552,-0.3895023465156555,-0.8497650623321533,-0.0148124098777771,-0.07911038398742676,0.12071537971496582,0.9616960295728424,0.20157412927078702,-0.18570229969851068,-0.004836410904710028
1729787705175784700,0.12978466796875,0.12759281694889069,-0.6389422416687012,0.08091433346271515,-0.3609214127063751,-0.39010560512542725,-0.8470852375030518,-0.009165287017822266,-0.07528749108314514,0.08345919847488403,0.9609977068092708,0.2019633970840011,-0.1888601804246448,-0.005117246295334318
1729787705185815800,0.13981591796875,0.2067486196756363,-0.6127029061317444,0.10474616289138794,-0.36663177609443665,-0.3912254273891449,-0.8441112637519836,-0.00372961163520813,-0.04686972498893738,0.026972651481628418,0.9602236807439065,0.20269064286569277,-0.19199182370832366,-0.005127077301879728
1729787705195847000,0.149846923828125,0.23527932167053223,-0.585376501083374,0.12144871801137924,-0.3721872568130493,-0.39269158244132996,-0.8409934639930725,0.010279268026351929,-0.01581674814224243,0.018956780433654785,0.9594123993754031,0.2036398254834318,-0.19502329568138516,-0.004980033971186032
1729787705205877800,0.159877685546875,0.2726823687553406,-0.5314725041389465,0.16092553734779358,-0.37751466035842896,-0.3943158984184265,-0.8378530144691467,0.0011260807514190674,-0.029191821813583374,0.057854294776916504,0.9585954624007894,0.20471965763205466,-0.19789733637573956,-0.004621694787025059
1729787705215908900,0.169908935546875,0.2723667621612549,-0.4438612163066864,0.1443348377943039,-0.3822740614414215,-0.39602410793304443,-0.8348841071128845,-0.010410904884338379,-0.034350067377090454,0.0889124870300293,0.9578231776660797,0.2058730083270857,-0.20043516754909493,-0.004101637414524197
1729787705225938700,0.179938720703125,0.2609175741672516,-0.3398194909095764,0.08549230545759201,-0.3860756456851959,-0.39781785011291504,-0.8322778940200806,-0.019502997398376465,-0.059335529804229736,0.12047070264816284,0.9571444211610214,0.20703816036532402,-0.2024752800160001,-0.0036720506813247367
1729787705235969800,0.1899697265625,0.20947648584842682,-0.26829391717910767,0.030939582735300064,-0.38881680369377136,-0.39958542585372925,-0.8301523923873901,-0.03502663969993591,-0.08008989691734314,0.16225993633270264,0.9565898094058739,0.20811757620768015,-0.2039874613895458,-0.003478466417661959
1729787705246000600,0.200000732421875,0.2775128483772278,-0.2416696399450302,0.05799437314271927,-0.3911525309085846,-0.4013855755329132,-0.8281843662261963,-0.03655135631561279,-0.07232356071472168,0.18546897172927856,0.9560759571071369,0.20920437030130207,-0.20528360044462,-0.003300374013516418
1729787705256031700,0.21003173828125,0.33756324648857117,-0.20145085453987122,0.06974876672029495,-0.3932863771915436,-0.4037353992462158,-0.8260288238525391,-0.009576231241226196,-0.04610899090766907,0.13694190979003906,0.9555135414761574,0.21064057177603426,-0.20643678417331937,-0.002895716707365591
1729787705266062800,0.220062744140625,0.40932345390319824,-0.1807815283536911,0.056105390191078186,-0.39514485001564026,-0.4065297544002533,-0.8237682580947876,0.03235182166099548,-0.011728942394256592,0.0772014856338501,0.9549231575148974,0.21233440652833932,-0.2074366997733344,-0.0024192286846853
1729787705276092700,0.2300927734375,0.5591362714767456,-0.16828006505966187,0.053210001438856125,-0.39686426520347595,-0.41033315658569336,-0.8210514783859253,0.026411324739456177,-0.026556581258773804,0.08446395397186279,0.9542130064348749,0.2146093544879764,-0.20836769090532373,-0.0018406583757122046
1729787705286123800,0.240123779296875,0.5882110595703125,-0.15066245198249817,0.09134726971387863,-0.39846310019493103,-0.4148595333099365,-0.8179967999458313,0.004481136798858643,-0.0023157894611358643,0.056323885917663574,0.9534134672223594,0.21732929513073634,-0.20921181901600977,-0.0010758771292296043
1729787705296155000,0.25015478515625,0.5868328213691711,-0.1744709014892578,0.1747787743806839,-0.40036165714263916,-0.4191262423992157,-0.8148887753486633,0.0068832337856292725,0.01666039228439331,0.02011960744857788,0.9525987419657985,0.21999065789860645,-0.21014214479278895,-0.0000014391659168910962
1729787705306186000,0.26018603515625,0.5882954001426697,-0.18917608261108398,0.18749003112316132,-0.4026755690574646,-0.42322221398353577,-0.8116251230239868,0.031566500663757324,-0.011668592691421509,0.016611754894256592,0.9517409799110286,0.22263262547840948,-0.21123954535706904,0.0013136298865508481
1729787705316216800,0.270216796875,0.5539764165878296,-0.1689199060201645,0.15278372168540955,-0.404903382062912,-0.42719313502311707,-0.8084301352500916,0.06347265839576721,0.006599843502044678,-0.03956174850463867,0.9508989381281058,0.22518945598774234,-0.21230788345907464,0.0025238821536463694
1729787705326247000,0.280246826171875,0.5000498294830322,-0.12162776291370392,0.1564631462097168,-0.4067975580692291,-0.43086719512939453,-0.8055241703987122,0.05245789885520935,0.009373605251312256,-0.059023499488830566,0.95013095940031,0.22755996229461206,-0.21320030422416267,0.0036499186117654576
1729787705336278000,0.290278076171875,0.4330448806285858,-0.05400285869836807,0.15434779226779938,-0.4082123339176178,-0.43401411175727844,-0.8031154870986938,0.03815612196922302,-0.022330552339553833,0.020339667797088623,0.9494919367684173,0.22963181067635804,-0.21380241832695607,0.004801167806209093
1729787705346308900,0.300308837890625,0.43728649616241455,-0.06818845123052597,0.1739926040172577,-0.4093720614910126,-0.43679672479629517,-0.8010138273239136,0.0448853075504303,-0.05824422836303711,0.10884469747543335,0.9489317994755453,0.23149632431362674,-0.21424876119438638,0.005955052187637417
1729787705356340000,0.310340087890625,0.5339900255203247,-0.12895742058753967,0.25503474473953247,-0.41110727190971375,-0.43983185291290283,-0.7984602451324463,0.02364078164100647,-0.09871190786361694,0.15118247270584106,0.9482488662526408,0.23358804307568673,-0.21495696281046792,0.007367411252595971
1729787705366370800,0.320370849609375,0.6449317336082458,-0.2100256383419037,0.3665101230144501,-0.41388803720474243,-0.44322553277015686,-0.7951401472091675,0.009179115295410156,-0.09203758835792542,0.055561959743499756,0.9473560472179325,0.23605166445135706,-0.2161238874218912,0.00931044978723351
1729787705376401000,0.33040087890625,0.7563923597335815,-0.29338353872299194,0.4120946526527405,-0.4176851511001587,-0.4472072422504425,-0.7909138798713684,0.027365297079086304,-0.05709576606750488,-0.09325653314590454,0.9462143047532423,0.23899196808648493,-0.21777488179281568,0.011635841938174666
1729787705386432000,0.340431884765625,0.7451421022415161,-0.314113587141037,0.3921305537223816,-0.4220024645328522,-0.45154985785484314,-0.7861403822898865,0.0443626344203949,-0.026660621166229248,-0.17476654052734375,0.9449197860678432,0.2421987592772935,-0.21970336415291644,0.014034681207113226
1729787705396462800,0.350462890625,0.7191315293312073,-0.3371278643608093,0.2882808446884155,-0.4261057674884796,-0.4556645452976227,-0.7815393805503845,0.05398961901664734,-0.021004825830459595,-0.16105705499649048,0.9436685671305743,0.24521502466213424,-0.2215850045406542,0.01610863797580486
1729787705406494000,0.360493896484375,0.4651613235473633,-0.24041198194026947,0.2746582329273224,-0.4295799434185028,-0.4593162536621094,-0.7774893641471863,0.06463545560836792,-0.062000274658203125,-0.043677568435668945,0.9425691614846682,0.24780898911214058,-0.2232622573448739,0.017553258614294423
1729787705416524800,0.37052490234375,0.32681164145469666,-0.1534745842218399,0.28346478939056396,-0.43247029185295105,-0.46112900972366333,-0.7748093605041504,0.07285109162330627,-0.12018513679504395,0.054380953311920166,0.9418286689116718,0.24935118205512735,-0.22454243269336896,0.019068049695692594
1729787705426555000,0.380554931640625,0.17902643978595734,-0.10098262131214142,0.2706725597381592,-0.4346984624862671,-0.46189841628074646,-0.7731022834777832,0.07498770952224731,-0.17750591039657593,0.11837822198867798,0.9413450379999071,0.25025211558625454,-0.22543898177779098,0.020512760591304982
1729787705436586000,0.3905859375,0.05911388248205185,-0.11938351392745972,0.3226449489593506,-0.4368593990802765,-0.461469441652298,-0.772139847278595,0.012161463499069214,-0.12431550025939941,0.13088923692703247,0.9410588493252441,0.25044542628121164,-0.22629003342208914,0.021870872576695913
1729787705446616800,0.400616943359375,0.019327590242028236,-0.13810020685195923,0.4086882174015045,-0.4395623803138733,-0.4601503610610962,-0.7713926434516907,-0.026227474212646484,-0.07413619756698608,0.02741992473602295,0.9408214785714007,0.2502217860888586,-0.227360358611927,0.02348189123794155
1729787705456648000,0.41064794921875,-0.15840432047843933,-0.0865161120891571,0.34477901458740234,-0.44221025705337524,-0.45795464515686035,-0.7711859345436096,0.04429149627685547,-0.038734257221221924,-0.027047038078308105,0.9407251739772331,0.2494952717292065,-0.22838377836493026,0.02508569498189504
1729787705466678800,0.4206787109375,-0.2843868136405945,-0.09629795700311661,0.3208984434604645,-0.4444023072719574,-0.4547705352306366,-0.7718098759651184,0.08791115880012512,-0.02195987105369568,-0.052851319313049316,0.9408597521988139,0.24807001426576672,-0.2292516727331793,0.026232442569540097
1729787705476708900,0.430708984375,-0.37356868386268616,-0.11070603132247925,0.4245539903640747,-0.44700390100479126,-0.4506038725376129,-0.772750735282898,0.07471993565559387,0.0020411908626556396,-0.027298033237457275,0.9410731363625775,0.24614151358124914,-0.23030196071794662,0.027508393882965866
1729787705486740000,0.440739990234375,-0.5517078042030334,-0.07199219614267349,0.39775407314300537,-0.44967880845069885,-0.4451810121536255,-0.7743402719497681,0.08384928107261658,-0.014596879482269287,0.030443847179412842,0.9414548882894255,0.2435249433825636,-0.23135568424484268,0.028861368069614448
1729787705496770800,0.450770751953125,-1.0563819408416748,0.08907435089349747,0.4332641363143921,-0.4514072835445404,-0.43731117248535156,-0.7778113484382629,0.12139013409614563,-0.06738859415054321,0.060205817222595215,0.9423429689369108,0.2393991395090477,-0.231910259244687,0.029927593389574247
1729787705506802000,0.460802001953125,-1.0635722875595093,0.008692693896591663,0.033470917493104935,-0.45221924781799316,-0.42782872915267944,-0.7825984954833984,0.10877436399459839,-0.14147675037384033,0.10664945840835571,0.9436126837427926,0.23405713225069374,-0.23220251304921044,0.029908895613355805
1729787705516832800,0.470832763671875,-1.3889766931533813,0.10313994437456131,-0.2161378562450409,-0.4515944719314575,-0.4187498092651367,-0.7878522276878357,0.12861162424087524,-0.25797754526138306,0.1728009581565857,0.9450575151959065,0.22846179534913882,-0.23211873428015556,0.02815213371694787
1729787705526862800,0.48086279296875,-1.6426278352737427,0.2973672151565552,-0.34607693552970886,-0.449077844619751,-0.40786460041999817,-0.7949689626693726,0.008876979351043701,-0.2355680763721466,0.10106033086776733,0.9470180318877152,0.22152457546899437,-0.23117608197084408,0.025329030803624187
1729787705536894000,0.49089404296875,-1.5807571411132812,0.23599499464035034,-0.653562605381012,-0.4444233477115631,-0.3971499800682068,-0.8029693961143494,0.005519479513168335,-0.11469089984893799,0.10249948501586914,0.9492266750473475,0.2143412540543717,-0.2292883055470005,0.021298279279098917
1729787705546924800,0.5009248046875,-1.2531383037567139,-0.30479422211647034,-0.20813612639904022,-0.4428466856479645,-0.3877563774585724,-0.8084131479263306,0.0815185010433197,-0.10968020558357239,0.007906615734100342,0.9507396777810334,0.20810237040744217,-0.22910003552866876,0.017341715996584312
1729787705556956000,0.510955810546875,-0.8050834536552429,-0.3675500154495239,0.41923272609710693,-0.446268230676651,-0.37892451882362366,-0.8107163310050964,0.23014268279075623,0.021670430898666382,-0.04682755470275879,0.9513620792693855,0.20312833850301368,-0.23104267713463308,0.0163880451437374
1729787705566986800,0.52098681640625,-0.4377683401107788,-0.049669522792100906,0.7308167219161987,-0.45040982961654663,-0.3712570369243622,-0.811972439289093,0.26173484325408936,0.2257339358329773,-0.007699131965637207,0.9516581727734309,0.19952356974531718,-0.23281776534666637,0.018253388693666866
1729787705577016800,0.531016845703125,-0.2448120415210724,0.3185495138168335,0.9877209663391113,-0.4523862302303314,-0.3647245466709137,-0.81383216381073,0.09403350949287415,0.2925657033920288,0.08977210521697998,0.9520646853902418,0.19695616580220435,-0.23300685679577088,0.022114110744057298
1729787705587048000,0.5410478515625,-0.4463699460029602,0.25817859172821045,1.3256512880325317,-0.45342540740966797,-0.35659945011138916,-0.8168489933013916,0.06058782339096069,0.17048797011375427,0.1521303653717041,0.9527079939632382,0.19392608667238861,-0.2323105185150679,0.02778699003559689
1729787705597078800,0.551078857421875,-0.7006731033325195,0.19150330126285553,1.1081207990646362,-0.4565686285495758,-0.34637948870658875,-0.8194915056228638,0.21245849132537842,-0.09374502301216125,0.24084776639938354,0.9532282183568046,0.18979660370853096,-0.23287657078227728,0.03319238350438218
1729787705607110000,0.56110986328125,-1.584093451499939,0.2904599905014038,0.7140122056007385,-0.4572458863258362,-0.3332236409187317,-0.8245533108711243,0.1689920723438263,-0.4369027316570282,0.2760915160179138,0.9544350876910416,0.18345167691631756,-0.23252702883184925,0.036472766419613195
1729787705617140700,0.571140625,-2.582612991333008,0.32138440012931824,0.750961422920227,-0.4571053385734558,-0.31252938508987427,-0.8326944708824158,0.043897271156311035,-0.600602388381958,0.27637434005737305,0.9565200083470264,0.17250353003956126,-0.2321535782107961,0.03764055256822538
1729787705627170800,0.5811708984375,-3.3532466888427734,0.24284830689430237,1.05098295211792,-0.45733076333999634,-0.28347304463386536,-0.842906653881073,0.09124180674552917,-0.630955696105957,0.2691152095794678,0.9591435106690164,0.15713571828136683,-0.2320668836172444,0.038692215695902865
1729787705637201700,0.59120166015625,-3.932321548461914,0.20875798165798187,1.2849278450012207,-0.4585947096347809,-0.24696753919124603,-0.8536380529403687,0.12058195471763611,-0.5368306636810303,0.16621440649032593,0.961871726234941,0.13811755729731237,-0.23260376171949174,0.04027278661741248
1729787705647232800,0.601232666015625,-4.2076921463012695,0.15889854729175568,1.3335744142532349,-0.4599948823451996,-0.20563161373138428,-0.8637825846672058,0.1267276406288147,-0.3500934839248657,0.11274504661560059,0.9644322423408503,0.11676513320110762,-0.23339798755207072,0.04197232433071775
1729787705657263900,0.611263916015625,-4.085495471954346,0.061205387115478516,1.3144103288650513,-0.46148043870925903,-0.16329708695411682,-0.8719919323921204,0.13692593574523926,-0.16307318210601807,0.05705052614212036,0.9664880773335447,0.09504505880809545,-0.23445784464617536,0.04355311889334822
1729787705667294700,0.621294677734375,-3.6779468059539795,-0.04529576003551483,1.3092211484909058,-0.4633524417877197,-0.12302706390619278,-0.8775926232337952,0.17796725034713745,-0.01906280219554901,0.0026537179946899414,0.9678547915609478,0.074600486931506,-0.23587802519720377,0.04531540379894525
1729787705677324800,0.63132470703125,-3.045919418334961,-0.09953273832798004,1.3385082483291626,-0.4654271900653839,-0.08709486573934555,-0.8807905912399292,0.21785327792167664,0.07887037843465805,-0.032463133335113525,0.9685659435458812,0.05665592488005874,-0.23747594219203796,0.04769985143772412
1729787705687355600,0.641355712890625,-2.2179129123687744,-0.11411701142787933,1.4019547700881958,-0.46739816665649414,-0.057387594133615494,-0.8821823000907898,0.22646182775497437,0.1239311471581459,-0.03403162956237793,0.9687488599324316,0.04224063329041422,-0.23900746460950417,0.0511564280744335
1729787705697386800,0.65138671875,-1.414129376411438,-0.07951460778713226,1.5197964906692505,-0.46894392371177673,-0.034556835889816284,-0.8825516700744629,0.21505287289619446,0.10403008759021759,-0.033189237117767334,0.9685726601224871,0.03174484742719049,-0.24024242251519778,0.056063262683313735
1729787705707417900,0.66141796875,-0.8449918031692505,-0.08618396520614624,1.6261674165725708,-0.4700988829135895,-0.01735161803662777,-0.8824431896209717,0.20979911088943481,0.030336834490299225,-0.047335803508758545,0.9681601252530997,0.02449513722581252,-0.2412019563817014,0.06235192364112038
1729787705717449000,0.671448974609375,-0.5865333676338196,-0.08896462619304657,1.7350525856018066,-0.47108614444732666,-0.00327519653365016,-0.882081151008606,0.2008223831653595,-0.06360408663749695,0.011246800422668457,0.9675689467906973,0.019116975528060322,-0.2420619101288539,0.06964909755240761
1729787705727478800,0.681478759765625,-0.6408560276031494,-0.060347363352775574,1.8092490434646606,-0.47188687324523926,0.010300886817276478,-0.881598949432373,0.1903773844242096,-0.1646435558795929,0.10723066329956055,0.966840276416661,0.014164480247977975,-0.24289894481101562,0.07758466553608499
1729787705737510000,0.691510009765625,-0.926763653755188,0.07590443640947342,1.8029032945632935,-0.47148147225379944,0.0256960466504097,-0.8815015554428101,0.16703805327415466,-0.261581689119339,0.17591989040374756,0.966157870626438,0.008200225668153266,-0.24327349330183196,0.08538018454078124
1729787705747541000,0.701541015625,-1.2352299690246582,0.1084277555346489,1.763411521911621,-0.4700073301792145,0.043727803975343704,-0.8815786838531494,0.11524039506912231,-0.3135794997215271,0.1816733479499817,0.9655036752889571,0.0007160263304332192,-0.24333132446523675,0.09269348380813526
1729787705757571800,0.71157177734375,-1.547214388847351,0.10817885398864746,1.6937941312789917,-0.4681418538093567,0.06419351696968079,-0.8813185691833496,0.08447480201721191,-0.2985685169696808,0.2346816062927246,0.9647716993183271,-0.00819185584830155,-0.2434617194646994,0.0993728685748826
1729787705767603000,0.72160302734375,-1.8102996349334717,0.07928009331226349,1.5500702857971191,-0.46605384349823,0.08668677508831024,-0.8804994225502014,0.051029980182647705,-0.23175209760665894,0.2154756784439087,0.9639441817579116,-0.0183698440098122,-0.24374746712489784,0.10517395197907327
1729787705777633000,0.731633056640625,-1.878545880317688,0.09780808538198471,1.4190062284469604,-0.4638809859752655,0.11000414937734604,-0.8790412545204163,0.0022872984409332275,-0.09007617831230164,0.19926226139068604,0.9630235261754218,-0.029215001120296555,-0.24418406063815434,0.11002905863118734
1729787705787664000,0.741663818359375,-1.7419363260269165,0.16788117587566376,1.4092515707015991,-0.4610153138637543,0.13257290422916412,-0.8774333596229553,-0.047148197889328,0.06850743293762207,0.2433544397354126,0.9620775596700517,-0.03980554779441153,-0.2443334308772057,0.11455830697568288
1729787705797695000,0.751695068359375,-1.476323127746582,0.24777595698833466,1.5537116527557373,-0.4571249186992645,0.15356183052062988,-0.8760454654693604,-0.06875404715538025,0.16903948783874512,0.25948357582092285,0.9610996530217387,-0.04952129884130409,-0.24397729669566892,0.11962593672550353
1729787705807725800,0.761725830078125,-1.175079107284546,0.36755508184432983,1.7026760578155518,-0.4517636299133301,0.1725989580154419,-0.8752824068069458,-0.0688052773475647,0.1888207197189331,0.2665024995803833,0.9601110456433447,-0.058059474988032815,-0.24287426285371666,0.1258096990154853
1729787705817757000,0.7717568359375,-1.1713545322418213,0.5019896626472473,1.5915719270706177,-0.44491732120513916,0.1901620477437973,-0.875149667263031,-0.06733554601669312,0.1280600130558014,0.2596254348754883,0.95920366306069,-0.06588365787506184,-0.2410072633914505,0.1322996560775865
1729787705827787000,0.781787109375,-1.5089865922927856,0.5557650327682495,1.2706513404846191,-0.4373539090156555,0.2081432193517685,-0.874870240688324,-0.09914520382881165,0.104494109749794,0.27855682373046875,0.9584094297121155,-0.07434201734923784,-0.23882657456188808,0.13742825229665834
1729787705837817900,0.79181787109375,-1.9107639789581299,0.5237240195274353,0.9548112154006958,-0.430086612701416,0.22801174223423004,-0.8735194206237793,-0.13833385705947876,0.16464269161224365,0.3704981803894043,0.9576219847375051,-0.08430823830461273,-0.23692281144651706,0.14042738338598462
1729787705847849000,0.801848876953125,-2.047126293182373,0.3504622280597687,0.877906858921051,-0.42417237162590027,0.24935507774353027,-0.8705744743347168,-0.1341162919998169,0.2508432865142822,0.4163966178894043,0.9565944080429094,-0.09527758179657467,-0.23587063625435065,0.1421776821653106
1729787705857879800,0.8118798828125,-1.9304265975952148,0.2813494801521301,0.9587801098823547,-0.41912606358528137,0.27061697840690613,-0.8666601777076721,-0.0955834686756134,0.31933361291885376,0.3891516923904419,0.9552943972714081,-0.10615459962340143,-0.23537441036816303,0.14402410502866173
1729787705867911000,0.821910888671875,-1.6267229318618774,0.32255470752716064,1.0402323007583618,-0.41381019353866577,0.2902688682079315,-0.862847089767456,-0.07347932457923889,0.3879843056201935,0.32364732027053833,0.9539155752788443,-0.11609097709284881,-0.23473247092794491,0.14652189614850114
1729787705877941000,0.83194091796875,-1.319930911064148,0.2560771405696869,0.8950986266136169,-0.40825745463371277,0.30721357464790344,-0.8596194982528687,-0.11075502634048462,0.42972490191459656,0.2742771506309509,0.9526330318072052,-0.12459313826407287,-0.233809330904449,0.14933212022053663
1729787705887971800,0.841971923828125,-0.8122327923774719,0.3317764103412628,0.5171017646789551,-0.4036853611469269,0.31925925612449646,-0.8573865294456482,-0.1541912853717804,0.4702915549278259,0.22739696502685547,0.9517413984503327,-0.13071490154706475,-0.23285262942444662,0.1512666936688934
1729787705898003000,0.8520029296875,-0.3881951570510864,0.4946996569633484,0.3842691481113434,-0.3987831175327301,0.32603225111961365,-0.8571318984031677,-0.2660271227359772,0.47519153356552124,0.17277520895004272,0.9515027301748401,-0.13432991593634594,-0.23106176473336063,0.1523438645674668
1729787705908033300,0.862033203125,0.1585608571767807,0.47922882437705994,0.43606045842170715,-0.3929542005062103,0.3289810121059418,-0.8586958050727844,-0.28763365745544434,0.4773849844932556,0.0908278226852417,0.951672592280028,-0.13591755309712672,-0.22842614500926584,0.1538418150767853
1729787705918064400,0.872064453125,0.7583069801330566,0.25038591027259827,0.23902300000190735,-0.3885868191719055,0.32627707719802856,-0.861709713935852,-0.21778225898742676,0.47506874799728394,0.08575451374053955,0.952147000733209,-0.13435239568958776,-0.22604112620534464,0.15579161335794323
1729787705928094500,0.882094482421875,1.242447853088379,0.008618817664682865,0.035584401339292526,-0.3871751129627228,0.3180702030658722,-0.8654055595397949,-0.2554793655872345,0.4859917163848877,-0.020595967769622803,0.9528491192697928,-0.1297965667290218,-0.2246109143542526,0.1574213592630048
1729787705938125300,0.892125244140625,1.770215392112732,-0.005645604804158211,0.20320375263690948,-0.38682785630226135,0.3053475320339203,-0.8701305389404297,-0.2925697863101959,0.4453391134738922,-0.1615467071533203,0.9537277178672889,-0.12271057660075324,-0.2233312739533597,0.15958935182058542
1729787705948156400,0.902156494140625,1.8962068557739258,-0.0950351357460022,0.2813779413700104,-0.38663652539253235,0.28990718722343445,-0.8754804730415344,-0.21965625882148743,0.20571357011795044,-0.3649980425834656,0.9545541900043754,-0.11395120356235028,-0.22197949397737385,0.16299247933560648
1729787705958187300,0.912187255859375,1.533349633216858,0.12769295275211334,-0.027799095958471298,-0.38616621494293213,0.27524080872535706,-0.8804079294204712,-0.14284077286720276,-0.12970250844955444,-0.26575595140457153,0.9553919741799627,-0.10583118985497912,-0.220444526682439,0.16562053546649802
1729787705968218400,0.92221826171875,0.9972953200340271,0.23246969282627106,-0.32423076033592224,-0.3849838674068451,0.26323360204696655,-0.8845877647399902,-0.20135042071342468,-0.29564327001571655,0.02603679895401001,0.9564236489628984,-0.09968499541655386,-0.21856125438146545,0.16597502236592598
1729787705978248400,0.93224853515625,0.378168523311615,0.14972805976867676,-0.20028139650821686,-0.3840312063694,0.2559741139411926,-0.8871286511421204,-0.21426597237586975,-0.3367694020271301,0.29118144512176514,0.9572147168540305,-0.09621220984712676,-0.21720698595595841,0.16524016046580106
1729787705988279300,0.942279296875,-0.1367712765932083,0.08582684397697449,0.19723987579345703,-0.3830413520336151,0.25501537322998047,-0.8878324627876282,-0.08041390776634216,-0.31324291229248047,0.37963855266571045,0.9573924637429307,-0.0957936323309874,-0.2165810284691179,0.16527572078826178
1729787705998310400,0.952310302734375,-0.47597309947013855,0.04317439720034599,0.3471337854862213,-0.3817574679851532,0.25892603397369385,-0.8872533440589905,0.04765096306800842,-0.26080286502838135,0.26022398471832275,0.9570579344890827,-0.09765946584780619,-0.21641613768007653,0.1663335127976742
1729787706008341200,0.96234130859375,-0.7490677833557129,0.12079381942749023,0.13754485547542572,-0.3804435431957245,0.2653648853302002,-0.8859143257141113,0.04459753632545471,-0.2183220088481903,0.08348512649536133,0.9566188263459391,-0.10094708343519133,-0.21645444154791965,0.1668460023071657
1729787706018372400,0.972372314453125,-0.8736051321029663,0.14541500806808472,-0.09212056547403336,-0.37917864322662354,0.27274274826049805,-0.8842143416404724,-0.05707019567489624,-0.11402082443237305,-0.07905769348144531,0.9563326089393883,-0.10503723943007956,-0.21647172139783524,0.16593779996695424
1729787706028402400,0.98240234375,-0.7877799272537231,0.0901818498969078,-0.1410447061061859,-0.37850508093833923,0.27965179085731506,-0.8823428153991699,-0.10568687319755554,0.020854830741882324,-0.12998628616333008,0.956119003626345,-0.10900049404928581,-0.2166736841526619,0.16434135760193275
1729787706038433300,0.992433349609375,-0.7547139525413513,0.04542706161737442,-0.07139317691326141,-0.37825486063957214,0.2860090136528015,-0.8804101943969727,-0.06907185912132263,0.15628227591514587,-0.12610524892807007,0.9558495046533003,-0.11260299889870032,-0.21706094329930348,0.16296338874730065
1729787706048464400,1.00246435546875,-0.6102712750434875,-0.05254983901977539,-0.05358302220702171,-0.37847280502319336,0.29185909032821655,-0.8783943057060242,-0.021231234073638916,0.29343757033348083,-0.09362101554870605,0.9554949036225204,-0.11583168960334682,-0.2176829223763298,0.1619463563801483
1729787706058495200,1.0124951171875,-0.6019870042800903,-0.039647676050662994,-0.13797301054000854,-0.3792988657951355,0.29662075638771057,-0.8764408230781555,-0.000019431114196777344,0.2830148935317993,0.06955605745315552,0.9551620999063155,-0.118466444704385,-0.21850696281757354,0.16089058656055216
1729787706068526300,1.0225263671875,-0.9197615385055542,0.11297383159399033,-0.1352936029434204,-0.37942904233932495,0.3026699125766754,-0.8743137717247009,-0.008449465036392212,0.23712500929832458,0.21939128637313843,0.9548650731104578,-0.1219381020757612,-0.219030186498949,0.15934117542950663
1729787706078556400,1.032556396484375,-1.0501223802566528,0.20135296881198883,0.04117198288440704,-0.37817150354385376,0.311328649520874,-0.8718146681785583,-0.011721104383468628,0.2864649295806885,0.3014564514160156,0.9544532854379197,-0.12685162767071878,-0.21909207776817988,0.1578805139437801
1729787706088587300,1.042587158203125,-0.7893405556678772,0.248299703001976,0.14779561758041382,-0.3759487271308899,0.3199445903301239,-0.8696539402008057,0.028567105531692505,0.273607075214386,0.27251654863357544,0.9540004738645812,-0.1316447788905383,-0.21872967284125433,0.15719454605321717
1729787706098618400,1.052618408203125,-0.17052069306373596,0.43005648255348206,0.12417525798082352,-0.3725654184818268,0.3248041272163391,-0.8693085312843323,0.045111775398254395,0.2104741930961609,0.08764660358428955,0.9539259544249274,-0.13444005362919187,-0.21742035247712987,0.15709756709363937
1729787706108649200,1.062649169921875,0.6226965188980103,0.4442218244075775,0.08150768280029297,-0.3683883249759674,0.32326188683509827,-0.8716604113578796,-0.021840006113052368,0.18287217617034912,-0.16656285524368286,0.9544710235147662,-0.1338448468908083,-0.2150705879516725,0.1575292719112865
1729787706118680600,1.0726806640625,1.308837652206421,0.3330504298210144,-0.04050077870488167,-0.36482176184654236,0.3147824704647064,-0.876251757144928,-0.07956001162528992,0.17418545484542847,-0.418792188167572,0.9555241216164195,-0.1295049646810434,-0.21237370335782887,0.15842880448213625
1729787706128710100,1.082710205078125,1.111430048942566,0.08947691321372986,-0.11561577022075653,-0.36325645446777344,0.30302512645721436,-0.8810337781906128,-0.08396345376968384,0.17489543557167053,-0.5505915284156799,0.9566400178972818,-0.12335845952538789,-0.21039436195362396,0.15923866304753706
1729787706138741200,1.0927412109375,0.33457455039024353,-0.21303214132785797,0.10652142763137817,-0.3637310266494751,0.2967284023761749,-0.8829790949821472,-0.05907481908798218,0.14895033836364746,-0.5407727360725403,0.9570425869653744,-0.11993283234198486,-0.21006326309408474,0.15987263344323505
1729787706148772400,1.1027724609375,-0.011217202991247177,-0.8135270476341248,0.27904847264289856,-0.36768242716789246,0.29616037011146545,-0.8815320134162903,0.004996210336685181,-0.028399139642715454,-0.40905630588531494,0.9564081573408717,-0.11900229224280096,-0.21230272111585421,0.161398894885946
1729787706158803500,1.112803466796875,-0.6052054166793823,-0.9205666184425354,0.027267616242170334,-0.3752008378505707,0.29939258098602295,-0.8772618770599365,0.0346856415271759,-0.37011703848838806,-0.4030877947807312,0.9551140392204418,-0.1198578997752726,-0.21680205846394277,0.16244459031062197
1729787706168834600,1.12283447265625,-1.0049232244491577,-0.6122351288795471,-0.14469562470912933,-0.38232898712158203,0.30641019344329834,-0.8717438578605652,-0.13880449533462524,-0.44256436824798584,-0.14430838823318481,0.9538154027031032,-0.12313755276512661,-0.2212808586965211,0.16158021914372084
1729787706178864000,1.132864013671875,-0.8393020033836365,-0.21671833097934723,0.1138128936290741,-0.3860909044742584,0.3146320581436157,-0.8671450614929199,-0.31366196274757385,-0.14728888869285583,0.14627408981323242,0.9527742372700785,-0.12734158015256347,-0.22407945062175247,0.16060484598577882
1729787706188895500,1.1428955078125,-0.1818854808807373,0.012347349897027016,0.35214078426361084,-0.38603731989860535,0.3203435242176056,-0.8650752902030945,-0.28707370162010193,0.2145533561706543,0.13944357633590698,0.9521263646278805,-0.13016586224400847,-0.22476478495014807,0.1612236800725678
1729787706198926300,1.15292626953125,0.7713018655776978,0.18902796506881714,0.30132049322128296,-0.3841024935245514,0.31897714734077454,-0.8664403557777405,-0.25543922185897827,0.37235280871391296,0.0021215081214904785,0.9521571507209298,-0.12915023432131528,-0.22383040168247575,0.16314700221527753
1729787706208957400,1.16295751953125,1.048640489578247,0.5443541407585144,0.19718314707279205,-0.380224347114563,0.3114950954914093,-0.870861828327179,-0.2340487837791443,0.2784554660320282,-0.11510008573532104,0.9529757529333887,-0.1251082878449966,-0.22117190266794337,0.16513123143192074
1729787706218988500,1.172988525390625,0.8505468964576721,0.5370323061943054,0.29891058802604675,-0.37451523542404175,0.303877592086792,-0.876011848449707,-0.13808855414390564,0.1972362995147705,-0.1209668517112732,0.9540050450274662,-0.12119669553698416,-0.2174981337814205,0.16697401802281386
1729787706229018400,1.183018310546875,0.16977475583553314,0.20840032398700714,0.4137495458126068,-0.3700289726257324,0.30050429701805115,-0.8790766596794128,0.04754963517189026,0.08049243688583374,-0.10589343309402466,0.9544424521322723,-0.11934607633202261,-0.21498414549726327,0.169050514448312
1729787706239049500,1.193049560546875,-0.34222471714019775,-0.27166011929512024,0.3479803800582886,-0.369236022233963,0.3030213415622711,-0.878545880317688,0.24086377024650574,-0.14892283082008362,-0.2135103940963745,0.9539822652882627,-0.12030145288482968,-0.2150688912381115,0.17085327384505822
1729787706249080300,1.203080322265625,-0.6569069623947144,-0.4654484987258911,0.025052666664123535,-0.3721044063568115,0.3080757260322571,-0.8755728006362915,0.32121625542640686,-0.3858039677143097,-0.4151986837387085,0.95308813758106,-0.12252802829003001,-0.21725672734788362,0.1714923029341082
1729787706259111400,1.213111328125,-0.8165400624275208,-0.273373544216156,-0.2038675993680954,-0.3758937418460846,0.31446966528892517,-0.8716723918914795,0.23526868224143982,-0.46882757544517517,-0.3294384479522705,0.9522683489914525,-0.12578250034852873,-0.21986944696331429,0.17035628582883355
1729787706269142300,1.223142333984375,-0.3645760715007782,-0.09356491267681122,-0.05523897707462311,-0.37782418727874756,0.3193504512310028,-0.8690593838691711,0.06118899583816528,-0.1737053096294403,-0.14336127042770386,0.9518147575079617,-0.12845528165406625,-0.22129064174091898,0.1690518830578642
1729787706279172400,1.23317236328125,0.33124667406082153,-0.0273832306265831,0.13968336582183838,-0.3783338665962219,0.31961050629615784,-0.8687419891357422,-0.03472161293029785,0.15495306253433228,-0.06379884481430054,0.9516821227333351,-0.12848474732013063,-0.22163185984179076,0.16932863658982839
1729787706289203500,1.243203369140625,0.6693347096443176,0.27232223749160767,0.19920794665813446,-0.37680649757385254,0.3156178593635559,-0.8708629608154297,-0.08506184816360474,0.24297592043876648,0.11782646179199219,0.951997707982969,-0.12622723503499025,-0.2205339373662408,0.1706807330827081
1729787706299234300,1.253234375,0.7110966444015503,0.4314376413822174,0.15506844222545624,-0.3730674684047699,0.31019195914268494,-0.8744150400161743,-0.17249536514282227,0.18930450081825256,0.23481237888336182,0.9526771886241485,-0.12340541266916112,-0.21809079675480966,0.17208642193956342
1729787706309265400,1.263265380859375,0.4556603729724884,0.3304532468318939,0.0663958415389061,-0.36925193667411804,0.3051901161670685,-0.8777881264686584,-0.21139082312583923,0.009797096252441406,0.2760425806045532,0.9533899546514726,-0.12092471329397608,-0.2155994975206032,0.17303680972162225
1729787706319296300,1.273296142578125,-0.28317439556121826,0.018716514110565186,-0.021696731448173523,-0.36768943071365356,0.3043961524963379,-0.8787192106246948,-0.1396043300628662,-0.23574689030647278,0.1606559157371521,0.9536162851727429,-0.12062334304588965,-0.21468674767918353,0.1731345578988064
1729787706329326300,1.283326416015625,-1.0649688243865967,-0.14505964517593384,-0.06274749338626862,-0.3685119152069092,0.31020671129226685,-0.8763394355773926,-0.022708266973495483,-0.37624675035476685,-0.03465604782104492,0.9531584058946951,-0.12375783228990117,-0.2156716825769593,0.17221797246488987
1729787706339357400,1.293357421875,-1.3935762643814087,-0.12826120853424072,-0.07091940194368362,-0.3701086640357971,0.32106271386146545,-0.8717444539070129,0.034766197204589844,-0.36421453952789307,-0.15173882246017456,0.9522391003299605,-0.12960010621780677,-0.21755823798076485,0.17062586545588043
1729787706349388300,1.30338818359375,-1.1481928825378418,0.11628195643424988,-0.13718605041503906,-0.3705488443374634,0.33210399746894836,-0.8674102425575256,0.010105699300765991,-0.19819283485412598,-0.18601077795028687,0.951438153935631,-0.13572423731923675,-0.2188008677822055,0.1687323105016075
1729787706359419400,1.31341943359375,-0.4382537603378296,0.34131619334220886,-0.2807818055152893,-0.3693135678768158,0.3381797969341278,-0.865587592124939,-0.05985519289970398,0.05055314302444458,-0.11559826135635376,0.9513200166599531,-0.13945099539805392,-0.21853973005275407,0.16668538432010543
1729787706369450200,1.3234501953125,0.15346601605415344,0.46362292766571045,-0.2605828046798706,-0.3667207956314087,0.33834758400917053,-0.8666238188743591,-0.14186996221542358,0.28633201122283936,-0.02102571725845337,0.9519049983586604,-0.1401491803634315,-0.21690159874985318,0.1648908288064718
1729787706379480300,1.333480224609375,0.6646376848220825,0.3925698399543762,-0.11630978435277939,-0.3635498583316803,0.33406418561935425,-0.8696163892745972,-0.11778870224952698,0.40115004777908325,0.10949981212615967,0.9528262065757638,-0.13834096833931311,-0.21460098359734073,0.1641054893475746
1729787706389511400,1.343511474609375,0.7661666870117188,0.22648818790912628,-0.10518176853656769,-0.3612833619117737,0.3269919455051422,-0.8732414841651917,-0.004591912031173706,0.2562295198440552,0.05276113748550415,0.9537456025618121,-0.13479994779276958,-0.21262230595033163,0.16428717234048093
1729787706399542300,1.353542236328125,0.05208080634474754,0.3245468735694885,-0.27229273319244385,-0.35963279008865356,0.322451114654541,-0.8756081461906433,0.0605299174785614,-0.12517020106315613,-0.06497412919998169,0.9544747392903911,-0.1327124348266422,-0.21114768960169555,0.16365269479049616
1729787706409573400,1.363573486328125,-0.6536374688148499,0.42344599962234497,-0.21113483607769012,-0.3571869134902954,0.32433634996414185,-0.8759129047393799,0.013604700565338135,-0.35236671566963196,0.11674243211746216,0.9548715638943838,-0.1342862716055216,-0.20978734713642627,0.16179255353731722
1729787706419603500,1.373603515625,-0.9035932421684265,0.47767379879951477,-0.03330172225832939,-0.3536092936992645,0.33106672763824463,-0.8748458623886108,-0.008481830358505249,-0.36323222517967224,0.24604648351669312,0.9548776275466473,-0.13841966598518807,-0.2083675897194543,0.1600993532542626
1729787706429634300,1.38363427734375,-0.749194324016571,0.5533581972122192,-0.06472089886665344,-0.3492661714553833,0.33842504024505615,-0.8737743496894836,0.011177092790603638,-0.23211705684661865,0.09064757823944092,0.9548435749161669,-0.1428889428275955,-0.2066290545300972,0.15862210203538304
1729787706439665400,1.39366552734375,-0.14244619011878967,0.5006828308105469,-0.08821024000644684,-0.34492936730384827,0.34212666749954224,-0.8740555644035339,-0.04751148819923401,0.04039594531059265,-0.009123146533966064,0.9551206116664287,-0.145397475585549,-0.2045282512075162,0.15739248849872392
1729787706449696300,1.4036962890625,0.30108943581581116,0.473811537027359,-0.08658571541309357,-0.3409813940525055,0.3410094678401947,-0.8760389685630798,-0.0635749101638794,0.2612549364566803,-0.07331711053848267,0.9557548681765691,-0.1452488408396316,-0.20219617844788168,0.15669164306226727
1729787706459727400,1.413727294921875,0.5620966553688049,0.3563157021999359,-0.03776438161730766,-0.33752182126045227,0.3368535339832306,-0.8789816498756409,-0.029360562562942505,0.3432002067565918,-0.07484519481658936,0.9565483609777633,-0.14336449483155264,-0.19988943216437885,0.156545005522327
1729787706469758200,1.42375830078125,0.41524437069892883,0.28785648941993713,-0.04032101482152939,-0.3349303901195526,0.3321352005004883,-0.8817640542984009,0.017044007778167725,0.2107420265674591,0.07370442152023315,0.9572562070834754,-0.14107390475064238,-0.19803059528181552,0.1566612662829559
1729787706479788300,1.433788330078125,0.04967084899544716,0.3601022958755493,0.039906714111566544,-0.33211955428123474,0.33008694648742676,-0.8835945129394531,0.024014025926589966,-0.00954553484916687,0.17006301879882812,0.9577427630202907,-0.14022436096374827,-0.19631577560538208,0.15660790353219503
1729787706489819400,1.4438193359375,-0.1213831901550293,0.3618948459625244,0.1200910285115242,-0.32861700654029846,0.3308243155479431,-0.8846276998519897,-0.009182095527648926,-0.14602512121200562,0.24612367153167725,0.9579926941419946,-0.14083611558821477,-0.1945542404123208,0.1567285019050512
1729787706499850200,1.453850341796875,-0.3133303225040436,0.3490889370441437,0.11637698858976364,-0.3251209855079651,0.3329838216304779,-0.8851090669631958,-0.0057506263256073,-0.1993778944015503,0.13596361875534058,0.9581029740000263,-0.14219160051964141,-0.19294301477228318,0.1568220572010202
1729787706509881300,1.46388134765625,-0.26612821221351624,0.21710294485092163,0.137467622756958,-0.32208961248397827,0.33641406893730164,-0.8849202394485474,-0.008675187826156616,-0.12080737948417664,0.07126063108444214,0.9580374225513181,-0.1441729087021318,-0.1917134420483995,0.1569216625425028
1729787706519911200,1.4739111328125,0.26613348722457886,0.01589963398873806,0.06331909447908401,-0.32079294323921204,0.3366810977458954,-0.8852896690368652,0.02971622347831726,0.026188164949417114,0.013371944427490234,0.958069699161579,-0.1443274485173615,-0.19111454122550792,0.15731297296784577
1729787706529942300,1.4839423828125,0.5248864889144897,-0.039133790880441666,0.0714646428823471,-0.3208182454109192,0.3332067131996155,-0.8865939974784851,0.017946481704711914,0.1303095519542694,-0.14892840385437012,0.9582978029522683,-0.1423854807882509,-0.1908647860878216,0.15799489571130504
1729787706539973400,1.493973388671875,0.6236708164215088,-0.06903582066297531,0.16486142575740814,-0.32092589139938354,0.3284146189689636,-0.8883413672447205,-0.04430854320526123,0.18870577216148376,-0.052149295806884766,0.9585616569434504,-0.13966155480473258,-0.19058844124249963,0.1591549723019952
1729787706550004200,1.504004150390625,0.5248691439628601,-0.09570284932851791,0.20325222611427307,-0.32112637162208557,0.32378512620925903,-0.8899669051170349,-0.07560223340988159,0.12688320875167847,0.05003160238265991,0.9587346427392583,-0.13695052929465593,-0.1904234831546223,0.1606595575728812
1729787706560035600,1.51403564453125,0.528815507888794,-0.10933716595172882,0.2591035068035126,-0.3212815523147583,0.3199221193790436,-0.8913069367408752,-0.06949609518051147,-0.02208581566810608,0.040309011936187744,0.9588035909305916,-0.1346108924559244,-0.1903324535702215,0.16232468786217943
1729787706570065200,1.524065185546875,0.4998805522918701,-0.15272539854049683,0.22833094000816345,-0.321666955947876,0.3159358501434326,-0.8925889134407043,-0.013187229633331299,-0.14372512698173523,-0.012669265270233154,0.9588286131410406,-0.13216260087483775,-0.19036437117493976,0.16414121795102846
1729787706580096300,1.53409619140625,0.20983675122261047,-0.16854679584503174,0.10160922259092331,-0.3225926160812378,0.31327083706855774,-0.8931939601898193,0.06520727276802063,-0.22466301918029785,-0.07532715797424316,0.9587730370525793,-0.13046964623781315,-0.1907372414836587,0.16538269778513276
1729787706590127400,1.54412744140625,0.015011871233582497,-0.2807556092739105,0.03723609447479248,-0.32440313696861267,0.3126128017902374,-0.8927686810493469,0.11035275459289551,-0.15595081448554993,0.055549442768096924,0.9585712255600408,-0.1298838856677576,-0.19169204550448377,0.1659090814557387
1729787706600158500,1.554158447265625,0.05309520661830902,-0.36067020893096924,0.022823598235845566,-0.327271044254303,0.3125258982181549,-0.891751766204834,0.1213841438293457,-0.03170311450958252,0.10322338342666626,0.9582386499646128,-0.12953610720658332,-0.19324725125736314,0.16629703398537207
1729787706610189300,1.564189208984375,0.26014453172683716,-0.34501373767852783,0.02122383937239647,-0.3303714990615845,0.3111725151538849,-0.8910815715789795,0.0844302773475647,0.042236328125,0.026579618453979492,0.9579827649285086,-0.1285000485507843,-0.19479977268734164,0.16676313772307036
1729787706620219400,1.574219482421875,0.3015466332435608,-0.3231043815612793,0.048991020768880844,-0.33331620693206787,0.3086293637752533,-0.8908693790435791,-0.026104599237442017,0.07287091016769409,-0.0661618709564209,0.9578115372223357,-0.12682131279655284,-0.19616744383599738,0.16742717855583444
1729787706630250500,1.58425048828125,0.30126887559890747,-0.3150693476200104,0.08893364667892456,-0.33595776557922363,0.3062078356742859,-0.8907127380371094,-0.10358694195747375,0.0634211003780365,-0.030445098876953125,0.9576257804548962,-0.12519417504629865,-0.19740833822602427,0.16825403785347526
1729787706640281300,1.59428125,0.26490384340286255,-0.31708383560180664,0.11157184839248657,-0.33849668502807617,0.3039695918560028,-0.8905181288719177,-0.1032148003578186,0.021012097597122192,0.0034332275390625,0.9574013730592985,-0.1236349954704194,-0.19863366976630276,0.16923856444147656
1729787706650312400,1.6043125,0.24310988187789917,-0.3409273624420166,0.0798618495464325,-0.34116801619529724,0.30209851264953613,-0.8901353478431702,-0.050357311964035034,-0.039189547300338745,-0.019318997859954834,0.9571401673938443,-0.12226703982698911,-0.1999577453922719,0.17014874665318647
1729787706660343300,1.61434326171875,0.28945907950401306,-0.35680028796195984,0.029362991452217102,-0.344177782535553,0.299923300743103,-0.8897121548652649,-0.0017237663269042969,-0.05259355902671814,-0.019192874431610107,0.9569001850209304,-0.1207513387989658,-0.20140268339820086,0.17087490569010852
1729787706670373400,1.624373291015625,0.35331663489341736,-0.3164494037628174,0.018422991037368774,-0.34712356328964233,0.2971331477165222,-0.8895038962364197,0.02520883083343506,-0.02479425072669983,-0.04189258813858032,0.9567318086932042,-0.11894181000552125,-0.20273358832966737,0.17151156667058512
1729787706680404500,1.634404541015625,0.4417686462402344,-0.29747772216796875,0.004853653721511364,-0.3498448431491852,0.29367780685424805,-0.8895852565765381,0.028708279132843018,0.03153279423713684,-0.04757899045944214,0.9566366598900685,-0.11680529913801756,-0.20387221921739926,0.1721601456369665
1729787706690435300,1.644435302734375,0.5473219752311707,-0.2966473400592804,-0.018137415871024132,-0.35253655910491943,0.2891616225242615,-0.8900020122528076,0.008221924304962158,0.06343850493431091,-0.05695843696594238,0.9566292407526276,-0.1141270415823402,-0.20487561382219865,0.172805045251124
1729787706700466400,1.654466552734375,0.5449862480163574,-0.25536051392555237,-0.01469661109149456,-0.35510602593421936,0.28411030769348145,-0.8906071782112122,-0.037624746561050415,0.04973676800727844,-0.04370373487472534,0.9566716254042833,-0.11118588847901173,-0.20575257876660402,0.1734450407377304
1729787706710497300,1.664497314453125,0.4669335186481476,-0.18143703043460846,0.04699205234646797,-0.35709327459335327,0.2796396315097809,-0.8912273049354553,-0.0700918436050415,0.014168381690979004,0.05229908227920532,0.956705681175328,-0.10857770400053683,-0.206390953645042,0.1741496015370102
1729787706720527400,1.67452734375,0.3669183850288391,-0.1286977082490921,0.08714959025382996,-0.35829249024391174,0.2761186957359314,-0.8918436169624329,-0.05897441506385803,-0.01888599991798401,0.06356602907180786,0.9567081718285152,-0.10648721154603692,-0.20673333422983525,0.17501848661976144
1729787706730558500,1.684558349609375,0.23298640549182892,-0.05903314799070358,0.009204459376633167,-0.3589957058429718,0.2736774981021881,-0.8923131227493286,-0.030362844467163086,-0.06124463677406311,0.03783625364303589,0.9567191170009502,-0.10504749429250293,-0.20690204853252836,0.17562804341208846
1729787706740589300,1.69458935546875,0.16333302855491638,-0.015531470999121666,-0.07733442634344101,-0.3594475984573364,0.2717602252960205,-0.8927171230316162,-0.02887338399887085,-0.07945370674133301,0.07176375389099121,0.9568185671653351,-0.10402199770976532,-0.20693205031234674,0.1756612247434035
1729787706750620400,1.704620361328125,0.13647504150867462,0.030263978987932205,-0.07196735590696335,-0.359605997800827,0.2701784074306488,-0.8931333422660828,-0.02090245485305786,-0.057592958211898804,0.08414286375045776,0.9569690056387129,-0.10324961741953996,-0.20681597995444695,0.17543384176460375
1729787706760651300,1.7146513671875,0.14519889652729034,0.07193233072757721,-0.0324508398771286,-0.35931169986724854,0.26872190833091736,-0.8936910033226013,0.00637584924697876,-0.01754698157310486,0.0716390609741211,0.957141625684092,-0.10256283954559249,-0.20648330482837837,0.17528679022202756
1729787706770681300,1.724681396484375,0.0910414606332779,0.02856525592505932,-0.016358157619833946,-0.358879953622818,0.26762354373931885,-0.8941939473152161,0.017098277807235718,0.00141945481300354,0.01992642879486084,0.957270391453842,-0.10203607272350297,-0.20613505492400883,0.17530087495589175
1729787706780712400,1.73471240234375,0.09830442816019058,0.003947527147829533,-0.11093606054782867,-0.3589746356010437,0.2665485143661499,-0.8944770097732544,0.016857266426086426,-0.010582327842712402,-0.040459513664245605,0.9573821498236584,-0.10152380345408447,-0.20604470815432555,0.1750939689324009
1729787706790743300,1.744743408203125,0.04162117838859558,0.022997118532657623,-0.13155479729175568,-0.3592713475227356,0.26540493965148926,-0.894697904586792,-0.02009272575378418,-0.04078027606010437,-0.03437924385070801,0.9575402157850326,-0.1010330251735909,-0.2060178984184429,0.17454445321665396
1729787706800774400,1.7547744140625,-0.04863575100898743,0.08059410005807877,-0.06305242329835892,-0.35908135771751404,0.2650725245475769,-0.8948727250099182,-0.05424878001213074,-0.054043471813201904,0.010442793369293213,0.957679975487102,-0.10099075301547274,-0.20582641639267993,0.17402745675040446
1729787706810805200,1.76480517578125,-0.13315029442310333,0.05623773857951164,-0.023670397698879242,-0.3585316836833954,0.26577189564704895,-0.8948856592178345,-0.03845629096031189,-0.03689002990722656,0.04780924320220947,0.9577416739292788,-0.10146345874515408,-0.20557804874821956,0.17370609163989076
1729787706820835300,1.77483544921875,-0.16235612332820892,-0.0028112027794122696,-0.04100304841995239,-0.35843974351882935,0.26701614260673523,-0.8945520520210266,-0.00871729850769043,-0.02330276370048523,0.06378728151321411,0.9577124466996481,-0.10217497792805723,-0.20563135118288617,0.17338712348999408
1729787706830866400,1.784866455078125,-0.1725904494524002,-0.028867146000266075,-0.04588515684008598,-0.35871657729148865,0.26837000250816345,-0.8940357565879822,0.010190516710281372,-0.018522590398788452,0.08997392654418945,0.9576468677119655,-0.10292527046828225,-0.2058846666459636,0.17300435035463896
1729787706840897300,1.794897216796875,-0.19192498922348022,-0.04132290929555893,-0.015025511384010315,-0.3591790795326233,0.26986581087112427,-0.8933995962142944,0.023180514574050903,-0.0016773343086242676,0.10308593511581421,0.9575401017212721,-0.10372127523970189,-0.2062573479989015,0.1726756316529058
1729787706850928400,1.804928466796875,-0.16222116351127625,-0.07512082159519196,0.012030872516334057,-0.35957857966423035,0.2715640962123871,-0.8927240371704102,0.02742519974708557,0.016567587852478027,0.08940988779067993,0.9573895992644084,-0.1045867108440291,-0.20663880707012897,0.17253207397545406
1729787706860959200,1.814959228515625,-0.11927156895399094,-0.07976590842008591,-0.007431241683661938,-0.36000165343284607,0.2726265788078308,-0.8922295570373535,0.02162271738052368,0.016237527132034302,0.05017334222793579,0.9572756874900001,-0.10511276285245513,-0.2069698883791021,0.17244730707522993
1729787706870989300,1.8249892578125,-0.10272108763456345,-0.08681214600801468,0.008850526995956898,-0.3608258068561554,0.2730501890182495,-0.8917669653892517,-0.00378301739692688,0.003912091255187988,0.015912532806396484,0.957177864374017,-0.10528792957042929,-0.20743906363693412,0.17231964016726947
1729787706881020400,1.8350205078125,-0.09296172857284546,-0.13322779536247253,0.021195076406002045,-0.36232998967170715,0.27341094613075256,-0.8910462856292725,-0.021413356065750122,0.0007284879684448242,0.003747701644897461,0.9570008991931432,-0.10535987996106427,-0.20826942125145953,0.17225748915999192
1729787706891051300,1.84505126953125,-0.04507623240351677,-0.17305190861225128,-0.01602046936750412,-0.36429741978645325,0.2735682427883148,-0.890195369720459,-0.02080395817756653,-0.010308325290679932,-0.04027026891708374,0.956789100407349,-0.10528830948385394,-0.20932432418096322,0.17219885128901408
1729787706901082400,1.855082275390625,-0.04937317594885826,-0.1700282096862793,-0.026869654655456543,-0.36619630455970764,0.27372923493385315,-0.8893663883209229,-0.028945356607437134,-0.01742732524871826,-0.05214667320251465,0.9565936512843078,-0.10523753104795727,-0.21033750206242874,0.17208087734263333
1729787706911113500,1.865113525390625,-0.041035618633031845,-0.17148363590240479,0.011780803091824055,-0.3679254651069641,0.2741537094116211,-0.8885216116905212,-0.024957865476608276,-0.004164695739746094,0.01222461462020874,0.9563753179888003,-0.1053129545464545,-0.21130164488426345,0.1720675113116131
1729787706921143600,1.8751435546875,-0.03407891094684601,-0.17693346738815308,0.020709048956632614,-0.3695105314254761,0.2748172879219055,-0.887658417224884,-0.003734767436981201,-0.0011356174945831299,0.04081094264984131,0.9561199457123242,-0.10548334143531529,-0.21223584369765475,0.17223251606249265
1729787706931174400,1.88517431640625,-0.0779920369386673,-0.16532926261425018,-0.0018417993560433388,-0.3709300458431244,0.2758103609085083,-0.8867579102516174,0.005207329988479614,-0.013481229543685913,0.03371530771255493,0.9558616273960823,-0.10584466114094535,-0.2131148806699332,0.17235927645013852
1729787706941205500,1.89520556640625,-0.07082334160804749,-0.15758958458900452,-0.024972684681415558,-0.3722272217273712,0.27678418159484863,-0.8859105110168457,-0.0025134384632110596,-0.014790743589401245,0.06687980890274048,0.9556444981641161,-0.1062403361471904,-0.21391055334608275,0.1723341580285772
1729787706951236600,1.905236572265625,-0.07751400023698807,-0.08403031527996063,0.023802846670150757,-0.3732900619506836,0.277367502450943,-0.8852806091308594,-0.008393347263336182,-0.016533732414245605,0.09618765115737915,0.9554850557177056,-0.10645691785219392,-0.21453813054436804,0.1723038847666692
1729787706961267700,1.915267822265625,-0.1469675749540329,-0.0938611626625061,0.08666542917490005,-0.37392860651016235,0.27859777212142944,-0.8846246004104614,-0.010379314422607422,-0.018237024545669556,0.07448971271514893,0.9552772805474505,-0.1069888785708891,-0.21503738732378,0.17250413956049498
1729787706971297500,1.925297607421875,-0.08828695118427277,-0.13670583069324493,0.0044533805921673775,-0.3747768700122833,0.27960005402565,-0.8839491605758667,-0.00277140736579895,-0.014295458793640137,-0.06481176614761353,0.9550702369184638,-0.10739370655821207,-0.2156200452296217,0.1726717341430296
1729787706981328600,1.93532861328125,-0.04544474929571152,-0.1670415848493576,-0.06909700483083725,-0.37624967098236084,0.2798415720462799,-0.8832467794418335,-0.017045646905899048,-0.015696674585342407,-0.143166184425354,0.954923670180314,-0.10744066641847924,-0.216409584716999,0.1724653566542248
1729787706991359700,1.94535986328125,0.0646790936589241,-0.16237333416938782,-0.022081822156906128,-0.3779803514480591,0.27952811121940613,-0.8826068639755249,-0.04160588979721069,0.013944178819656372,-0.11760669946670532,0.9547841496802797,-0.10717009946428994,-0.2172812230660012,0.17231010157531193
1729787707001390600,1.955390625,0.17434373497962952,-0.10350856930017471,0.039202574640512466,-0.3791767954826355,0.27854105830192566,-0.882405698299408,-0.03316152095794678,0.04003193974494934,-0.07836389541625977,0.9546855712437751,-0.106505628584136,-0.217838681389162,0.17256416048888215
1729787707011421700,1.965421630859375,0.20786653459072113,-0.0778074711561203,0.029864996671676636,-0.3798496127128601,0.2768884301185608,-0.8826364278793335,-0.026141077280044556,0.0325293242931366,-0.03522545099258423,0.9546656242177878,-0.10550026082401107,-0.21806299102363458,0.17300845176697477
1729787707021451800,1.97545166015625,0.1349320262670517,-0.07454850524663925,0.003734326921403408,-0.38061922788619995,0.2753766179084778,-0.8827778697013855,-0.030986666679382324,0.0065905749797821045,0.015971839427947998,0.9546489986228159,-0.10459281263796971,-0.2183378381455597,0.17330427601664877
1729787707031482600,1.985482666015625,0.022927718237042427,-0.06572731584310532,-0.001445787027478218,-0.3814220428466797,0.2747376263141632,-0.882630467414856,-0.017915785312652588,-0.02302861213684082,0.06805527210235596,0.9545900798937793,-0.1041718296048468,-0.21870759167268844,0.17341609930163332
1729787707041513700,1.995513671875,-0.05880982428789139,-0.07219911366701126,0.00040963664650917053,-0.3821839690208435,0.2749412953853607,-0.8822373151779175,0.005566507577896118,-0.040306925773620605,0.07004255056381226,0.9544862018332643,-0.10421056106246197,-0.21913807762243542,0.17342082585007365
1729787707051544600,2.005544677734375,-0.13390111923217773,-0.03929203748703003,0.031420815736055374,-0.3825499415397644,0.2756221294403076,-0.8818662166595459,0.01830729842185974,-0.03850054740905762,0.0472867488861084,0.9543887494279445,-0.10452817306443817,-0.21941002891468775,0.17342213242662102
1729787707061574700,2.01557470703125,-0.22098428010940552,-0.07422322779893875,0.07244761288166046,-0.3827342092990875,0.27722233533859253,-0.8812844753265381,0.01609596610069275,-0.014664322137832642,0.029309988021850586,0.9542204257112322,-0.10531268156631679,-0.2196975339934907,0.1735096958301576
1729787707071605800,2.025605712890625,-0.2557925879955292,-0.12568135559558868,0.03752025589346886,-0.38332682847976685,0.2796086072921753,-0.8802724480628967,0.01087498664855957,-0.001288294792175293,-0.044638991355895996,0.9539430957082214,-0.10647070333603581,-0.22029016918437747,0.17357704776378824
1729787707081636600,2.03563671875,-0.07492480427026749,-0.15057536959648132,-0.049676164984703064,-0.3846261501312256,0.28112852573394775,-0.8792209625244141,-0.013460487127304077,-0.017624467611312866,-0.10936540365219116,0.9536935887761453,-0.10717387240869759,-0.22114084514645452,0.17343348136868156
1729787707091667700,2.045667724609375,0.01638006791472435,-0.09053492546081543,-0.029212437570095062,-0.3858379125595093,0.2811424732208252,-0.8786854147911072,-0.048930823802948,-0.018080919981002808,-0.11669117212295532,0.9535872081079018,-0.10712220011459798,-0.22177044926039516,0.17324612761344302
1729787707101698600,2.055698486328125,0.03604312241077423,-0.05818658322095871,0.0675138384103775,-0.3865307867527008,0.2809780240058899,-0.8784334659576416,-0.05786624550819397,0.018475711345672607,-0.0295865535736084,0.9534944562586996,-0.10694499597736105,-0.22213968201768236,0.17339341747378817
1729787707111728600,2.065728759765625,0.007838113233447075,-0.06751803308725357,0.09595959633588791,-0.3869835436344147,0.28101202845573425,-0.8782232403755188,-0.024698644876480103,0.037744104862213135,0.0492132306098938,0.9533520000711757,-0.10681235566754999,-0.22243991169054297,0.17387276104882488
1729787707121759700,2.075759765625,-0.13434526324272156,-0.07178888469934464,0.03355028107762337,-0.3875061869621277,0.28165963292121887,-0.8777852058410645,0.0018097162246704102,-0.009473323822021484,0.06337785720825195,0.9531870088760154,-0.1070362846820426,-0.2228242389294069,0.17414722528411863
1729787707131790600,2.08579052734375,-0.21352504193782806,-0.11315976083278656,-0.018876709043979645,-0.38827744126319885,0.28315508365631104,-0.8769628405570984,0.006273597478866577,-0.05097731947898865,0.08164429664611816,0.9529964348400752,-0.10777086335831129,-0.22339207091331933,0.17400925866943076
1729787707141821700,2.09582177734375,-0.22680288553237915,-0.11850706487894058,-0.005382471717894077,-0.3893583118915558,0.2850024998188019,-0.8758845329284668,0.01118442416191101,-0.05326724052429199,0.0595850944519043,0.9527598521116102,-0.10868769621783628,-0.22415333099781826,0.17375592850787666
1729787707151852500,2.1058525390625,-0.24532704055309296,-0.10316620022058487,0.04110034182667732,-0.3900538980960846,0.2871205806732178,-0.874882698059082,0.010964512825012207,-0.02952173352241516,0.04202753305435181,0.9525189864780642,-0.10974602428481683,-0.22475422504672177,0.17363466458269486
1729787707161882600,2.115882568359375,-0.17320363223552704,-0.10877785086631775,0.03362857922911644,-0.3906744718551636,0.2888694405555725,-0.8740296959877014,-0.00033205747604370117,-0.0017905831336975098,0.02481710910797119,0.9522948821833008,-0.11059261500625717,-0.2252874304000181,0.17363572269638622
1729787707171913700,2.125913818359375,-0.02576305717229843,-0.12501461803913116,-0.05180482938885689,-0.3917539715766907,0.2893603444099426,-0.8733838796615601,-0.016098231077194214,-0.0028613507747650146,-0.047468721866607666,0.9521451964455859,-0.11077987286698554,-0.22591120750678262,0.17352681487677887
1729787707181944600,2.135944580078125,-0.018011992797255516,-0.08995415270328522,-0.04037480801343918,-0.39301761984825134,0.2892380356788635,-0.8728564977645874,-0.03920289874076843,-0.0001907944679260254,-0.08193165063858032,0.9520497548183804,-0.11066667494765757,-0.2265493851726102,0.1732904207682279
1729787707191975700,2.1459755859375,-0.04017508402466774,-0.10362973809242249,0.021961532533168793,-0.39406171441078186,0.2897041440010071,-0.8722309470176697,-0.040508657693862915,0.017577379941940308,-0.0003581047058105469,0.9518865941685344,-0.1108200773877864,-0.22716386807086217,0.1732842771293954
1729787707202006500,2.156006591796875,-0.12984851002693176,-0.11473837494850159,0.013019171543419361,-0.39505645632743835,0.29046186804771423,-0.8715287446975708,-0.010232299566268921,0.005192458629608154,0.0289994478225708,0.951689454839668,-0.11110950479684074,-0.2277944363658674,0.17335448233994324
1729787707212036600,2.16603662109375,-0.2346058040857315,-0.12548236548900604,-0.03707728534936905,-0.39629727602005005,0.2918197512626648,-0.8705112338066101,-0.009617090225219727,-0.03910365700721741,0.014523684978485107,0.9514669077032087,-0.11176319703037713,-0.22858998969752578,0.1731085647620681
1729787707222067700,2.176067626953125,-0.26799333095550537,-0.1321212500333786,-0.04164114221930504,-0.3976145386695862,0.2935926616191864,-0.8693135380744934,-0.017348289489746094,-0.052549540996551514,0.037923216819763184,0.9512343093596067,-0.11267489815867594,-0.22945062584597636,0.17265632072316278
1729787707232098600,2.1860986328125,-0.2795426547527313,-0.14473319053649902,-0.025264568626880646,-0.3989297151565552,0.2957558035850525,-0.867976725101471,-0.0055655837059021,-0.03481525182723999,0.019633889198303223,0.9509581747939989,-0.11378046839275804,-0.2303597995527714,0.17224117460673166
1729787707242129700,2.196129638671875,-0.24526332318782806,-0.12493205815553665,-0.025620631873607635,-0.40016424655914307,0.29792124032974243,-0.8666669130325317,0.003252565860748291,-0.004983007907867432,-0.004701495170593262,0.9506753817546021,-0.11487737737783409,-0.23123522762442095,0.1719008450440713
1729787707252160500,2.206160400390625,-0.1842058300971985,-0.10179424285888672,-0.013700056821107864,-0.4010496735572815,0.2993853688240051,-0.865752637386322,-0.006909370422363281,0.0012128055095672607,0.0018610358238220215,0.9504878718022647,-0.11563104269576785,-0.23184726375723194,0.17160770850010024
1729787707262190600,2.216190673828125,-0.17063908278942108,-0.07859453558921814,0.008101112209260464,-0.40179920196533203,0.30037760734558105,-0.8650611042976379,-0.016245871782302856,-0.012734174728393555,-0.011083245277404785,0.9503422019573455,-0.1161304655040403,-0.23234277613082918,0.1714067309321891
1729787707272221400,2.226221435546875,-0.16078431904315948,-0.05713905021548271,0.006376715376973152,-0.40271440148353577,0.3018462359905243,-0.8641238212585449,-0.011653333902359009,-0.020199477672576904,-0.017055988311767578,0.9501243518537827,-0.11685254764761817,-0.23298834743877947,0.17124745290926
1729787707282252500,2.23625244140625,-0.18272291123867035,-0.07266713678836823,-0.0016870694234967232,-0.4034268856048584,0.3033491373062134,-0.8632647395133972,0.004119604825973511,-0.01891002058982849,-0.008454561233520508,0.9499272471530017,-0.11761004766474173,-0.23352835922135642,0.17108660562311429
1729787707292283600,2.24628369140625,-0.14647409319877625,-0.08168673515319824,-0.021153446286916733,-0.4043833315372467,0.30377721786499023,-0.8626665472984314,0.02521759271621704,-0.015843838453292847,-0.003986835479736328,0.9498237293619011,-0.11782634651152414,-0.23405912725081462,0.17078736630456084
1729787707302314500,2.256314453125,-0.1013197973370552,-0.05747365206480026,-0.026221174746751785,-0.40578895807266235,0.30345985293388367,-0.8621180057525635,0.026775866746902466,-0.008492231369018555,-0.014667212963104248,0.9497537358042926,-0.1176492515616313,-0.2347331609202686,0.17037266268849907
1729787707312344600,2.266344482421875,-0.04864167422056198,-0.009593209251761436,-0.003425581380724907,-0.4063728153705597,0.30307137966156006,-0.8619796633720398,0.006622999906539917,0.008467346429824829,-0.013111889362335205,0.9497627005346482,-0.11746297716339175,-0.2349736610434023,0.17012003872994644
1729787707322375400,2.27637548828125,-0.02543395571410656,0.015134507790207863,0.019271209836006165,-0.4060455560684204,0.30313628911972046,-0.8621110320091248,-0.008306920528411865,0.01767978072166443,0.009495735168457031,0.9497954767297015,-0.11752083578670394,-0.23480487996976324,0.1701301276748185
1729787707332406500,2.286406494140625,-0.05035661533474922,0.06486371159553528,0.020974300801753998,-0.4056955575942993,0.3034096360206604,-0.8621796369552612,-0.01724758744239807,-0.0038948655128479004,0.012402474880218506,0.9498101222141152,-0.11768618251753966,-0.23464896815454708,0.17014900780762765
1729787707342437600,2.296437744140625,-0.09749703109264374,0.09752973169088364,0.02056470513343811,-0.4052545726299286,0.30320438742637634,-0.8624591827392578,-0.020953983068466187,-0.026211589574813843,0.019746840000152588,0.9499104731692654,-0.11765301385662331,-0.23436759451370753,0.1699994847080987
1729787707352468500,2.306468505859375,-0.1486062854528427,0.02792215533554554,-0.1482248455286026,-0.4049935042858124,0.302646279335022,-0.862777829170227,-0.0053916871547698975,-0.034564584493637085,0.02388012409210205,0.9500862534046512,-0.11751244449403876,-0.23409809796432424,0.16948526176092765
1729787707362498600,2.31649853515625,-0.38742178678512573,0.034346338361501694,-0.11449484527111053,-0.4048371911048889,0.3038393557071686,-0.8624317646026611,-0.02033373713493347,-0.01613485813140869,0.027516603469848633,0.9502103128740133,-0.118440478773746,-0.23399994359810194,0.16827489250940764
1729787707372529400,2.326529296875,0.22038346529006958,-0.05450949817895889,0.03530610352754593,-0.4047505259513855,0.30423957109451294,-0.8623313307762146,-0.10460317134857178,0.06255123019218445,0.043987274169921875,0.9502145317965914,-0.11869721688619557,-0.23397713643023269,0.16810173208068008
1729787707382560500,2.336560546875,0.1467389315366745,0.2535337209701538,0.06665071099996567,-0.4034290611743927,0.3024827241897583,-0.8635677695274353,-0.07650569081306458,0.03516378998756409,-0.1982608437538147,0.9504609524624321,-0.11778550191183353,-0.23311521470481367,0.16854684660762792
1729787707392591600,2.346591552734375,0.12234838306903839,0.11327753216028214,0.04528789594769478,-0.4015170931816101,0.30175262689590454,-0.8647134900093079,-0.07571685314178467,0.03194186091423035,0.013334155082702637,0.9507026331096119,-0.11748054205160867,-0.23203786390008363,0.16888298314785483
1729787707402621400,2.356621337890625,0.059020545333623886,0.07468140125274658,0.0025590742006897926,-0.400789737701416,0.30105653405189514,-0.8652933239936829,-0.02125316858291626,0.009734511375427246,0.08488261699676514,0.950827008664041,-0.11714129211685904,-0.23158420364787127,0.16904072408070484
1729787707412652500,2.366652587890625,-0.056705791503190994,0.01739015057682991,-0.03236934915184975,-0.4005271792411804,0.30090564489364624,-0.8654674291610718,0.056105732917785645,-0.028459936380386353,0.0006603002548217773,0.950886489815797,-0.11710334408352084,-0.23141543710545734,0.16896380210622552
1729787707422683600,2.37668359375,-0.18364836275577545,-0.04033897817134857,-0.03617127612233162,-0.40082550048828125,0.3019430637359619,-0.8649678230285645,0.08339682221412659,-0.009035319089889526,0.10694169998168945,0.9508222339135001,-0.11770752497337333,-0.23164849581027014,0.16858558834365373
1729787707432714800,2.38671484375,0.031512949615716934,-0.024892378598451614,0.020883485674858093,-0.4013778865337372,0.30243122577667236,-0.8645409941673279,0.004771381616592407,0.019910722970962524,0.08115482330322266,0.9507370268240589,-0.11795250043968811,-0.23198426626315136,0.1684329567422126
1729787707442745600,2.39674560546875,0.0008962517604231834,0.10728301852941513,0.12709380686283112,-0.4008336663246155,0.30244457721710205,-0.8647887706756592,-0.0635676383972168,0.016784578561782837,-0.044604480266571045,0.950738506781998,-0.11791587545006817,-0.23173573245023013,0.16879193546388735
1729787707452775700,2.406775634765625,-0.08531320095062256,0.058825742453336716,0.07760535925626755,-0.40012356638908386,0.3035200536251068,-0.8647408485412598,-0.05564126372337341,0.011940181255340576,0.027582645416259766,0.9506518270928017,-0.11842800780266581,-0.2315262094089889,0.16920858208968415
1729787707462806800,2.416806884765625,-0.09350481629371643,-0.02311769872903824,0.008214564062654972,-0.3997969925403595,0.30442482233047485,-0.8645738363265991,-0.017988741397857666,0.007464855909347534,0.058711469173431396,0.9505992014515853,-0.11891030920813048,-0.23145930389548824,0.1692581045704866
1729787707472837600,2.426837646484375,-0.06943463534116745,-0.05573929473757744,-0.015164528973400593,-0.40051063895225525,0.3051401972770691,-0.8639911413192749,0.005933552980422974,-0.008356720209121704,0.03563731908798218,0.9504623200358736,-0.11924496874794391,-0.23191605725568182,0.16916570627152275
1729787707482868700,2.43686865234375,-0.07474943995475769,-0.014048783108592033,-0.043545302003622055,-0.40107375383377075,0.30576643347740173,-0.863508403301239,0.0030176937580108643,-0.020152390003204346,-0.018495380878448486,0.950373109082414,-0.11957528621070028,-0.23226614244932994,0.16895307624179057
1729787707492899600,2.446899658203125,-0.03137533366680145,0.015378346666693687,-0.024283990263938904,-0.4009682238101959,0.30600976943969727,-0.8634712100028992,-0.050707221031188965,0.0020651817321777344,-0.014336347579956055,0.9504058103504649,-0.11976812340488166,-0.23220679236769273,0.1687141150874173
1729787707502929700,2.4569296875,-0.026810145005583763,0.02618343010544777,0.006508542224764824,-0.4007169008255005,0.30631765723228455,-0.8634787201881409,-0.07970613241195679,0.017351806163787842,0.01138216257095337,0.9504169750545877,-0.11996036638271214,-0.23209945399888726,0.16866242070675028
1729787707512960800,2.466960693359375,-0.027723342180252075,0.04496404528617859,0.007266477681696415,-0.40044382214546204,0.3067455291748047,-0.8634535074234009,-0.06464412808418274,0.020936965942382812,0.010380387306213379,0.9504137095209131,-0.12020846261962832,-0.23199822493792732,0.16864352025690196
1729787707522991600,2.47699169921875,-0.02159920334815979,0.00897434912621975,-0.00804270338267088,-0.40033960342407227,0.3069043755531311,-0.8634453415870667,-0.04370647668838501,0.02227345108985901,0.0299188494682312,0.9504208757859656,-0.12031195007792303,-0.2319533348740941,0.1685908340036089
1729787707533022700,2.487022705078125,-0.04505526274442673,0.0005100248381495476,-0.05880947783589363,-0.40062952041625977,0.3070857524871826,-0.8632463812828064,-0.02051311731338501,0.0067723095417022705,0.021892070770263672,0.9504072687227254,-0.12043582579458206,-0.2321034600909788,0.16837226477181896
1729787707543053600,2.497053466796875,-0.08635369688272476,-0.010629604570567608,-0.07783376425504684,-0.40123477578163147,0.3074611723423004,-0.8628315925598145,-0.020624995231628418,0.0017734766006469727,0.030540943145751953,0.9503752818880151,-0.12068794787469271,-0.23241908733071756,0.16793691181762252
1729787707553083600,2.507083740234375,-0.149723082780838,-0.0036659706383943558,-0.03209344297647476,-0.4015331566333771,0.3083176910877228,-0.8623870015144348,-0.03904920816421509,0.0004133880138397217,0.06122434139251709,0.9503314604123556,-0.12120903965575498,-0.23262600577690862,0.167522481785825
1729787707563114800,2.51711474609375,-0.07370627671480179,0.013303957879543304,0.015846382826566696,-0.40148356556892395,0.3090517818927765,-0.8621472716331482,-0.055303603410720825,0.0030210018157958984,0.04535961151123047,0.9502999749151567,-0.12163727212574896,-0.23266011363085207,0.16734279848549344
1729787707573145600,2.5271455078125,-0.050709083676338196,0.08885516971349716,0.09893408417701721,-0.4012737572193146,0.30964407324790955,-0.862032413482666,-0.0522022545337677,-0.003659546375274658,-0.007764279842376709,0.950255213180491,-0.12194064875034226,-0.2326247189564428,0.16742545098230774
1729787707583176700,2.5371767578125,0.08667207509279251,0.0785793662071228,0.20136110484600067,-0.4011654555797577,0.31024813652038574,-0.8618656396865845,-0.015857309103012085,-0.006170988082885742,-0.015789330005645752,0.950107902386793,-0.12211888795048303,-0.23271046392548414,0.16801110544493195
1729787707593206500,2.54720654296875,0.16436660289764404,0.08597123622894287,0.20932182669639587,-0.4004597067832947,0.30997517704963684,-0.8622919321060181,0.0809406042098999,-0.030479907989501953,-0.06541186571121216,0.9500292766250878,-0.12177095156463794,-0.23243463316531957,0.16908677378589515
1729787707603237600,2.557237548828125,-0.08951300382614136,0.0036986814811825752,0.05346886068582535,-0.39971041679382324,0.3101365268230438,-0.8625815510749817,0.19818755984306335,-0.06526347994804382,-0.04685753583908081,0.9499827099259355,-0.12174681213248095,-0.23213561360606844,0.16977532883907245
1729787707613268700,2.567268798828125,-0.4294506013393402,-0.2574000358581543,-0.1760684698820114,-0.4009701609611511,0.3122342824935913,-0.8612390756607056,0.25674402713775635,-0.05597817897796631,0.11296331882476807,0.9497270857354356,-0.12286543738069025,-0.23299046934127193,0.16922799698417654
1729787707623299600,2.577299560546875,-0.40393364429473877,-0.42076241970062256,-0.2671397626399994,-0.4048478901386261,0.3151404857635498,-0.8583616614341736,0.16993877291679382,-0.007538557052612305,0.17218917608261108,0.9492262908848984,-0.12441813649473876,-0.2352430854396424,0.1677808280765455
1729787707633330700,2.58733056640625,0.06552118062973022,-0.1864689737558365,-0.008353227749466896,-0.40818220376968384,0.3161752223968506,-0.8563997149467468,-0.06401634216308594,0.039446115493774414,0.0254061222076416,0.948845964910394,-0.12488290979051823,-0.23707466366435792,0.16700633650434657
1729787707643360500,2.597360595703125,0.39948180317878723,0.22568966448307037,0.2764185965061188,-0.4074716866016388,0.31447893381118774,-0.8573621511459351,-0.24949553608894348,0.054951608180999756,-0.15122848749160767,0.9489160274910308,-0.1237992971187663,-0.23662769244117465,0.16804596175173842
1729787707653391600,2.6073916015625,0.12965962290763855,0.2580324411392212,0.21727776527404785,-0.404173880815506,0.31309381127357483,-0.8594275712966919,-0.2020883858203888,0.03958258032798767,-0.1112908124923706,0.9492053229011358,-0.12299024669608817,-0.23486084542280067,0.16947870720966998
1729787707663422500,2.61742236328125,-0.10200569778680801,-0.20473730564117432,-0.04718131572008133,-0.4036480784416199,0.31356728076934814,-0.8595020771026611,-0.0528644323348999,0.017380595207214355,0.10492444038391113,0.9491539002318679,-0.12317989353047275,-0.23468207876225106,0.16987650138806534
1729787707673453600,2.62745361328125,-0.05737537518143654,-0.3036891520023346,-0.15837202966213226,-0.406530499458313,0.31382980942726135,-0.8580465316772461,0.03999906778335571,-0.04020920395851135,0.048842430114746094,0.9488623055300609,-0.12321018485853803,-0.2362117508253679,0.16936247458099488
1729787707683484700,2.637484619140625,0.014184427447617054,-0.042517177760601044,0.04163803532719612,-0.4083411395549774,0.3137281835079193,-0.8572235107421875,0.013336807489395142,-0.05727371573448181,-0.10119622945785522,0.9486888899356376,-0.1230720336947457,-0.23715293947630642,0.16911877203136377
1729787707693514500,2.647514404296875,0.05337097868323326,0.12397725880146027,0.1697501838207245,-0.40745702385902405,0.3138962984085083,-0.8575825691223145,-0.01710355281829834,-0.011039882898330688,-0.04209083318710327,0.9486804617568911,-0.12308662384612487,-0.23676654459008178,0.16969576629741662
1729787707703545600,2.657545654296875,0.008180462755262852,0.0030197887681424618,0.055142126977443695,-0.4064280390739441,0.3141009211540222,-0.8579958081245422,0.032053619623184204,0.003648102283477783,0.03380769491195679,0.9486836353260664,-0.12312917576032685,-0.23630761298464387,0.17028576507986865
1729787707713576400,2.667576416015625,-0.08086312562227249,-0.14105243980884552,-0.10127517580986023,-0.40716463327407837,0.31433361768722534,-0.8575612902641296,0.0904531478881836,-0.021410614252090454,0.07345795631408691,0.9485934830852069,-0.12322364063224425,-0.23671773365855428,0.17015059689609344
1729787707723607600,2.677607666015625,-0.07232343405485153,-0.15438342094421387,-0.11934206634759903,-0.4089064598083496,0.31458550691604614,-0.8566396236419678,0.08639663457870483,-0.015192806720733643,0.07108670473098755,0.9484524987370176,-0.12335545885404195,-0.23762072666090622,0.16958102349360357
1729787707733638400,2.687638427734375,0.01657900959253311,-0.07758983224630356,-0.03480827063322067,-0.41019031405448914,0.3145298957824707,-0.8560460805892944,0.01054731011390686,0.019546031951904297,0.013669371604919434,0.9483569280460812,-0.12330832414790956,-0.23826881162923014,0.1692401449649316
1729787707743668500,2.69766845703125,0.0257144495844841,0.02084086462855339,0.06836658716201782,-0.4103791415691376,0.3143790662288666,-0.8560109734535217,-0.0851500928401947,0.03150719404220581,-0.040976881980895996,0.9483238929068852,-0.12318125254302757,-0.23837132699900176,0.1693735668595054
1729787707753699600,2.707699462890625,0.011442835442721844,0.05099157616496086,0.10461380332708359,-0.40973761677742004,0.3146341145038605,-0.8562245965003967,-0.12967589497566223,0.006777018308639526,-0.03888648748397827,0.9483020907863006,-0.1232557868774208,-0.23810864545386778,0.16981047188134224
1729787707763730400,2.71773046875,-0.031477201730012894,0.02854059636592865,0.0455334410071373,-0.40913844108581543,0.3149973452091217,-0.8563775420188904,-0.07926493883132935,-0.025416016578674316,-0.02022463083267212,0.9482791153281167,-0.12340423343551105,-0.2378710357625037,0.17016370748475856
1729787707773761500,2.727761474609375,-0.09571158140897751,-0.04636586830019951,-0.025324754416942596,-0.40916571021080017,0.31568464636802673,-0.8561113476753235,0.006562471389770508,-0.03396162390708923,0.0007952451705932617,0.9482152931366518,-0.12376756050663439,-0.2379619886842881,0.17012815547459031
1729787707783791600,2.73779150390625,-0.0038269313517957926,-0.10495301336050034,-0.044513095170259476,-0.4099341332912445,0.31601661443710327,-0.8556210994720459,0.05876830220222473,0.000053942203521728516,0.03726184368133545,0.9481210131994897,-0.12392662588498213,-0.2383938571578048,0.16993252454384528
1729787707793822500,2.747822509765625,0.0580766499042511,-0.07361320406198502,-0.04478580504655838,-0.41079798340797424,0.31555652618408203,-0.8553766012191772,0.05093464255332947,0.020442038774490356,-0.006516098976135254,0.9480762376071068,-0.12364541165289814,-0.23879598607021782,0.16982273140673196
1729787707803853600,2.757853515625,0.04236133396625519,0.014657003805041313,-0.008019800297915936,-0.4109691083431244,0.315073698759079,-0.8554723858833313,-0.007335364818572998,0.01622512936592102,-0.009060025215148926,0.9481082276686622,-0.1233903941525603,-0.23882761174159148,0.1697852313882295
1729787707813884400,2.767884521484375,0.05927107855677605,0.05109943449497223,0.023768488317728043,-0.41057103872299194,0.31477659940719604,-0.855772852897644,-0.05076324939727783,0.006954997777938843,0.04624831676483154,0.9481682748652804,-0.1232414908459498,-0.23858984756727056,0.16989249724559582
1729787707823915800,2.777915771484375,0.046796564012765884,0.0331316739320755,0.00916637759655714,-0.41036319732666016,0.31439876556396484,-0.8560113906860352,-0.03351503610610962,0.00003910064697265625,0.025185585021972656,0.9482123602672593,-0.12303588237067611,-0.23844595900977153,0.16999760813252193
1729787707833945600,2.787945556640625,0.02991904877126217,-0.0024249907582998276,0.026693973690271378,-0.4105848968029022,0.3140389621257782,-0.8560371398925781,0.0006269514560699463,0.0056326985359191895,0.0158119797706604,0.9482086587227513,-0.12281644196547777,-0.23853205490283003,0.17005625666664198
1729787707843976400,2.7979765625,0.018376242369413376,-0.04600059241056442,0.021724514663219452,-0.4110307991504669,0.3137672543525696,-0.8559228181838989,0.024540871381759644,0.006728380918502808,0.022731900215148926,0.9481553318683478,-0.12260668989493106,-0.2387597050164714,0.1701855183134492
1729787707854007800,2.8080078125,-0.04557504132390022,-0.022464638575911522,-0.003151808399707079,-0.411295622587204,0.31375354528427124,-0.8558006286621094,0.011255890130996704,-0.016329199075698853,-0.000904083251953125,0.9481141699818275,-0.12256552728516754,-0.23890874955410343,0.17023510525249202
1729787707864038700,2.81803857421875,-0.1653822660446167,0.016933578997850418,0.03038724511861801,-0.4110930860042572,0.314828097820282,-0.8555032014846802,-0.03273937106132507,-0.025048434734344482,-0.01809293031692505,0.9480463958648825,-0.12315460303085767,-0.2389170085829301,0.17017529619892502
1729787707874069800,2.82806982421875,-0.06470945477485657,-0.011236271820962429,0.05969107151031494,-0.4106151759624481,0.31630122661590576,-0.8551892638206482,-0.03980901837348938,-0.005739122629165649,-0.0012254714965820312,0.9479442579151032,-0.12393088023261052,-0.2388441008491283,0.17028283031758007
1729787707884099800,2.838099853515625,-0.0017431407468393445,0.009010035544633865,0.026355750858783722,-0.410544216632843,0.3167041838169098,-0.8550742268562317,-0.01146814227104187,0.01431998610496521,-0.06356585025787354,0.9478776234475035,-0.1240948253107044,-0.23887939389941992,0.1704851009349588
1729787707894130700,2.848130615234375,0.011872801929712296,0.04983256757259369,0.04500932991504669,-0.4106386601924896,0.3169676661491394,-0.8549312353134155,-0.006979197263717651,0.031115859746932983,-0.04893839359283447,0.9478258024767527,-0.124204034318564,-0.2389722477460125,0.1705639204677102
1729787707904161800,2.858161865234375,0.14152540266513824,0.07180188596248627,0.04528869688510895,-0.41032636165618896,0.3164980411529541,-0.855255126953125,-0.011304587125778198,0.042938023805618286,0.043853759765625,0.9478647711904736,-0.1239207171592714,-0.23878042730484542,0.1708219559260142
1729787707914194400,2.8681943359375,0.17065772414207458,0.14448808133602142,-0.004344904329627752,-0.4093765616416931,0.3153083026409149,-0.8561492562294006,-0.015992790460586548,0.0012658238410949707,-0.00929868221282959,0.9480602579657217,-0.12332473887433494,-0.23815199198647746,0.17104567820884192
1729787707924225300,2.878225341796875,0.19279977679252625,0.19327159225940704,-0.03180262818932533,-0.4077718257904053,0.313936322927475,-0.8574182987213135,-0.046207696199417114,-0.022783368825912476,-0.016849219799041748,0.9483850812332425,-0.12273106333696067,-0.23712429038581856,0.17109951451771382
1729787707934255400,2.88825537109375,0.14022138714790344,0.24510207772254944,-0.01421591080725193,-0.4058462679386139,0.31210094690322876,-0.8590005040168762,-0.046424299478530884,-0.02270275354385376,0.01102381944656372,0.9488143565367642,-0.12195440653953628,-0.2358535015526338,0.1710315417047239
1729787707944286500,2.898286376953125,0.09310334175825119,0.1999858021736145,-0.02774903178215027,-0.40459612011909485,0.31043824553489685,-0.8601919412612915,-0.015447884798049927,-0.01865968108177185,0.016441941261291504,0.9491643386238228,-0.12124516554143783,-0.23495457469192046,0.1708310749074653
1729787707954317300,2.9083173828125,0.0031191259622573853,0.14571857452392578,-0.05402670428156853,-0.40406137704849243,0.3097134232521057,-0.8607043623924255,0.002175360918045044,-0.0147305428981781,0.0057392120361328125,0.9493619512908195,-0.12099991097323383,-0.23453538219510223,0.17048177150130978
1729787707964348700,2.9183486328125,-0.0372108519077301,0.06166158616542816,-0.034589093178510666,-0.40319812297821045,0.30972129106521606,-0.861106276512146,-0.012436062097549438,-0.0022414028644561768,-0.010155260562896729,0.949523038427992,-0.12115019636564875,-0.23402880792562877,0.17017453669166877
1729787707974378200,2.928378173828125,-0.08152372390031815,0.048974014818668365,0.07413392513990402,-0.4024982452392578,0.31083595752716064,-0.8610320687294006,-0.024320662021636963,0.023148447275161743,-0.004904210567474365,0.9494976539819502,-0.1217765950511752,-0.2337828901924278,0.17020659466845706
1729787707984409300,2.938409423828125,-0.036923766136169434,0.06904743611812592,0.13084886968135834,-0.40227803587913513,0.3130628764629364,-0.8603278398513794,-0.018620461225509644,0.0243547260761261,0.04880446195602417,0.9492280560700981,-0.12283271227494265,-0.2339833229928299,0.17067536087892812
1729787707994440400,2.9484404296875,-0.020317092537879944,0.12685400247573853,0.08331730216741562,-0.4013105034828186,0.31369152665138245,-0.8605507612228394,-0.00908997654914856,-0.0010083913803100586,0.07994163036346436,0.9492129775682339,-0.12313636839075102,-0.23358523997633437,0.1710858350605871
1729787708004471600,2.958471435546875,-0.009775633923709393,0.10645473003387451,0.04784266650676727,-0.4005458950996399,0.3137807250022888,-0.860874354839325,-0.00816085934638977,-0.02149862051010132,0.07077431678771973,0.9492741869925996,-0.12321246997717696,-0.23319841646299733,0.171218775288042
1729787708014502400,2.96850244140625,0.0006024385802447796,0.08203114569187164,0.032283682376146317,-0.40014833211898804,0.3136911690235138,-0.8610918521881104,0.02231016755104065,-0.019501715898513794,0.05788451433181763,0.9493229830774486,-0.12318711629949484,-0.2329785536457552,0.17126566479016106
1729787708024532500,2.978532470703125,-0.03592687472701073,0.0779685452580452,0.013175499625504017,-0.3996976613998413,0.31369999051094055,-0.8612979650497437,0.04709750413894653,-0.013498544692993164,0.012894034385681152,0.9493793562579698,-0.12323137712769552,-0.23273386220214692,0.1712542647294081
1729787708034563600,2.9885634765625,-0.10168006271123886,0.0827111005783081,0.021383095532655716,-0.39899998903274536,0.31421586871147156,-0.8614333271980286,0.022962331771850586,-0.0004951357841491699,0.00559842586517334,0.9494290670830926,-0.12357491020812694,-0.23240603148176497,0.17117593909863377
1729787708044594400,2.998594482421875,-0.04955580458045006,0.04964151233434677,-0.004507357254624367,-0.39854347705841064,0.3148277997970581,-0.8614212870597839,-0.00872892141342163,0.0029059648513793945,-0.012724220752716064,0.9494457430107959,-0.12395614955792898,-0.23221594010337698,0.1710660699814982
1729787708054625500,3.00862548828125,-0.08634684234857559,0.05343438684940338,-0.05423789471387863,-0.39848679304122925,0.3153146505355835,-0.8612693548202515,-0.03142964839935303,-0.017341017723083496,-0.06411510705947876,0.9494507332117486,-0.12427428938171568,-0.23220940991547795,0.17081569963785814
1729787708064656400,3.018656494140625,-0.18421228229999542,0.0765267089009285,-0.00949199590831995,-0.3983173966407776,0.31677401065826416,-0.8608121275901794,-0.04597282409667969,-0.023988336324691772,-0.05288410186767578,0.9494011475690646,-0.12514081213657105,-0.23223633018924297,0.1704219737729704
1729787708074686500,3.0286865234375,-0.023259883746504784,0.06332435458898544,-0.013537071645259857,-0.39818552136421204,0.31795379519462585,-0.8604381084442139,-0.02307918667793274,-0.002691924571990967,0.019587278366088867,0.9493418078738193,-0.12581663700393053,-0.23227381628501081,0.17020386391926118
1729787708084717600,3.038717529296875,0.10970349609851837,0.14348049461841583,-0.10443874448537827,-0.39786002039909363,0.3172031044960022,-0.8608656525611877,0.008089452981948853,-0.004642069339752197,-0.036839425563812256,0.9495129524007877,-0.12553359990885266,-0.23196658697824254,0.16987696062199087
1729787708094748400,3.04874853515625,0.220854252576828,0.20146150887012482,-0.08257152885198593,-0.3967118263244629,0.3153625428676605,-0.8620709180831909,-0.024827569723129272,0.018835484981536865,-0.04271423816680908,0.9499036085974654,-0.12477219266425191,-0.23107670249651785,0.1694662799577283
1729787708104779500,3.058779541015625,0.2538647949695587,0.20007207989692688,-0.03165429085493088,-0.3948342800140381,0.312972754240036,-0.8638020157814026,-0.02456885576248169,0.03633147478103638,0.03140461444854736,0.9503699360493981,-0.12370035299161072,-0.2297764156200742,0.1694050061852464
1729787708114810400,3.068810302734375,0.10490594059228897,0.14436806738376617,-0.06271474063396454,-0.39335304498672485,0.3112385869026184,-0.8651034235954285,0.0012478828430175781,-0.0052235424518585205,-0.018761873245239258,0.9507291869998132,-0.12294487309085045,-0.22876371499210513,0.16931012888338945
1729787708124840400,3.07884033203125,-0.06495260447263718,0.06703818589448929,-0.07722736895084381,-0.39270031452178955,0.31085440516471863,-0.8655380010604858,-0.009780824184417725,-0.03131338953971863,0.01481473445892334,0.95091469683265,-0.12289493691682818,-0.22831520066488137,0.16890950604879207
1729787708134871600,3.08887158203125,-0.18011513352394104,0.07248648256063461,-0.04903354495763779,-0.3924682140350342,0.31143197417259216,-0.8654356598854065,-0.004351913928985596,-0.022552549839019775,0.05501091480255127,0.9509808681478901,-0.12333853801725161,-0.22818802788898965,0.16838480431827343
1729787708144902400,3.09890234375,-0.21366144716739655,0.07549148052930832,0.03573859855532646,-0.3920457065105438,0.3128957748413086,-0.8650990724563599,0.0069290995597839355,0.009446144104003906,0.06070154905319214,0.9509556992029424,-0.12421649036999423,-0.22808053023573988,0.16802619817128026
1729787708154933500,3.10893359375,-0.07295600324869156,0.05410124361515045,0.04259197786450386,-0.3916201591491699,0.3144973814487457,-0.8647109866142273,-0.0021634697914123535,0.030259698629379272,0.039515674114227295,0.9508561400364038,-0.12508357408425805,-0.228032041221928,0.16801240408708631
1729787708164963600,3.118963623046875,0.08108390122652054,0.10612891614437103,-0.029955457895994186,-0.3908449113368988,0.3143874704837799,-0.8651016354560852,-0.0038084685802459717,0.016697734594345093,-0.034922778606414795,0.9509615526904796,-0.12509214841715435,-0.22759866017611763,0.16799710713932048
1729787708174994400,3.128994384765625,0.31694862246513367,0.16419808566570282,-0.0358080230653286,-0.3898695409297943,0.3125722110271454,-0.8661987781524658,-0.018089503049850464,0.013813316822052002,-0.027813613414764404,0.9512558911437793,-0.12423780776965873,-0.2268602476774514,0.16796314736749812
1729787708185025500,3.139025634765625,0.3959917724132538,0.1976822167634964,-0.03998758643865585,-0.3887627422809601,0.3095153570175171,-0.8677924871444702,-0.0032813847064971924,0.022454887628555298,0.026773810386657715,0.9516488965859806,-0.12270920891373376,-0.22593407565285123,0.16810916432075348
1729787708195056400,3.149056396484375,0.3602375090122223,0.09074564278125763,-0.04801968112587929,-0.387488454580307,0.30610066652297974,-0.8695718050003052,0.00041866302490234375,0.01853010058403015,0.007679104804992676,0.9520917619448891,-0.12101263540083874,-0.2248778297697827,0.16824779075725818
1729787708205087500,3.15908740234375,0.050243958830833435,0.09106122702360153,-0.09168407320976257,-0.3872954249382019,0.30366262793540955,-0.8705121278762817,-0.005710005760192871,-0.007382690906524658,0.0010052919387817383,0.9523762747116479,-0.1198184674365107,-0.22447156787152786,0.16803485953666367
1729787708215117600,3.16911767578125,-0.1321074664592743,0.04960060492157936,-0.05141574144363403,-0.38718584179878235,0.30380532145500183,-0.8705110549926758,-0.03610828518867493,-0.02434059977531433,0.04203510284423828,0.9524592216370514,-0.12001228953660764,-0.22436916436950055,0.1675624729000513
1729787708225148400,3.1791484375,-0.25950831174850464,0.12545356154441833,-0.10155214369297028,-0.3869462311267853,0.30570030212402344,-0.869953989982605,-0.054536372423172,-0.028722763061523438,0.08716285228729248,0.9524182972204197,-0.1211521710480998,-0.2243772537615297,0.1669626100767271
1729787708235179500,3.189179443359375,-0.19725024700164795,0.17656441032886505,-0.15034127235412598,-0.386073499917984,0.30784469842910767,-0.8695855140686035,-0.054814040660858154,-0.022917330265045166,0.052217960357666016,0.9524889227615106,-0.12255566512394575,-0.2240253470877188,0.16600549985814697
1729787708245210400,3.19921044921875,0.0047889272682368755,0.1275615096092224,-0.21147572994232178,-0.3852560520172119,0.30816954374313354,-0.8698329329490662,-0.04290562868118286,0.022274792194366455,0.028310775756835938,0.9527359858843288,-0.12303425178987701,-0.22348624732450484,0.1649569942842741
1729787708255241500,3.209241455078125,0.22777912020683289,0.0349934846162796,-0.27067431807518005,-0.3852572441101074,0.3062986135482788,-0.8704929947853088,-0.024258196353912354,0.06874719262123108,-0.1283320188522339,0.9530936357032003,-0.12231662108142198,-0.22314153947166082,0.16388748880195347
1729787708265271600,3.219271484375,0.35538601875305176,0.04784856736660004,-0.3121117651462555,-0.38597074151039124,0.30259448289871216,-0.8714718222618103,-0.06587257981300354,0.08645886182785034,-0.13461637496948242,0.9535375678522218,-0.12060099487937638,-0.22297866639269875,0.16279436005841486
1729787708275302400,3.229302490234375,0.3024897873401642,0.12342001497745514,-0.2821384370326996,-0.3861696422100067,0.29850083589553833,-0.872794508934021,-0.15704327821731567,0.07720106840133667,-0.07105308771133423,0.9540703079384751,-0.1187246534893062,-0.22250213407819155,0.16170067693744308
1729787708285333500,3.23933349609375,0.16554585099220276,0.188757061958313,-0.2979395091533661,-0.38559988141059875,0.29538586735725403,-0.8741052150726318,-0.20647171139717102,0.04451894760131836,0.06374150514602661,0.9546148496249842,-0.11743591021454461,-0.221711950828098,0.16050948866238743
1729787708295364400,3.2493642578125,0.02046855539083481,0.2907545268535614,-0.37558847665786743,-0.3844316005706787,0.29341644048690796,-0.875282347202301,-0.19389182329177856,0.0001474320888519287,0.12320715188980103,0.9552019454075378,-0.11689352523423155,-0.22066884290650907,0.158841176859077
1729787708305395500,3.2593955078125,0.06030705198645592,0.2991107404232025,-0.4763198792934418,-0.38317587971687317,0.2914208769798279,-0.876498818397522,-0.1666593849658966,-0.01696103811264038,0.18475687503814697,0.955877122701007,-0.11645453888267236,-0.21951980427827184,0.15667930708785044
1729787708315425300,3.26942529296875,0.1812766194343567,0.4468402862548828,-0.5112832188606262,-0.38131046295166016,0.2884828746318817,-0.8782824277877808,-0.15624144673347473,0.027892857789993286,0.07585322856903076,0.9567472308144664,-0.11564226536365495,-0.21791203545192203,0.15419534613009073
1729787708325456400,3.279456298828125,0.21697862446308136,0.31417980790138245,-0.5731886625289917,-0.37930232286453247,0.2846616506576538,-0.8803962469100952,-0.1832740306854248,0.11125817894935608,-0.10123217105865479,0.9577097900358927,-0.11439689141122068,-0.2161370822282436,0.15162508108434866
1729787708335487500,3.289487548828125,0.25515955686569214,0.12477977573871613,-0.7304040789604187,-0.37925922870635986,0.2800622284412384,-0.8818886876106262,-0.1965617835521698,0.1288428008556366,-0.4680563807487488,0.9585691369828251,-0.1127011875581153,-0.21530003464231884,0.1486262698629078
1729787708345518300,3.299518310546875,0.12189744412899017,0.041803665459156036,-0.7821424007415771,-0.38070136308670044,0.2753548324108124,-0.8827492594718933,-0.16724184155464172,0.09628826379776001,-0.4218161702156067,0.9593321882908038,-0.11096213047388266,-0.21520406543685974,0.14510816559860243
1729787708355548400,3.30954833984375,-0.0862208753824234,-0.0027843052521348,-0.7094056010246277,-0.38259145617485046,0.2724156379699707,-0.8828439712524414,-0.1430281102657318,0.0573267936706543,-0.08454793691635132,0.9598964127759732,-0.11012901116235381,-0.2155216992249429,0.14149562885089798
1729787708365579300,3.319579345703125,-0.1331821233034134,-0.06340141594409943,-0.6691098213195801,-0.3848034143447876,0.27077025175094604,-0.882388710975647,-0.15265697240829468,0.050579845905303955,0.06076395511627197,0.9602727659279899,-0.10989933514101569,-0.21616610257707536,0.13809652453310634
1729787708375610400,3.3296103515625,-0.24865998327732086,-0.13220924139022827,-0.7461931705474854,-0.38752761483192444,0.26991531252861023,-0.8814579248428345,-0.16267386078834534,0.03782397508621216,0.10370224714279175,0.960532205200643,-0.11008265129794964,-0.21714705243349755,0.1345618908279545
1729787708385641200,3.33964111328125,-0.1963585615158081,-0.04360166937112808,-0.845962405204773,-0.3905385434627533,0.2687589228153229,-0.8804818987846375,-0.16086837649345398,0.053399890661239624,0.18481844663619995,0.960838390419008,-0.11022063270530282,-0.21819824965849774,0.1305017296742352
1729787708395672600,3.349672607421875,-0.02483527734875679,-0.1558413952589035,-0.8720139861106873,-0.39364492893218994,0.26641130447387695,-0.8798117637634277,-0.14993423223495483,0.04221296310424805,0.36636877059936523,0.9612253209940043,-0.10977886533857019,-0.219186511742064,0.12630078617651402
1729787708405702400,3.359702392578125,0.1999935656785965,-0.08099910616874695,-0.8975451588630676,-0.3972416818141937,0.26230770349502563,-0.8794280886650085,-0.14653584361076355,0.051031529903411865,0.22096556425094604,0.9616599780453443,-0.1083957230938942,-0.2203096321562917,0.12216455457651272
1729787708415733200,3.369733154296875,0.3893326222896576,-0.013401689939200878,-0.8633115291595459,-0.3998655080795288,0.2558920085430145,-0.8801289200782776,-0.17896148562431335,0.10102635622024536,0.2059956192970276,0.9623249983345221,-0.10581551826558218,-0.22076826290954787,0.11830087958831552
1729787708425764600,3.3797646484375,0.3081563413143158,-0.19880691170692444,-0.9050257205963135,-0.4028816223144531,0.24939851462841034,-0.8806172609329224,-0.22845083475112915,0.08888883888721466,-0.05134373903274536,0.9629093159021289,-0.10316345340958576,-0.22146932782805664,0.11451792698033537
1729787708435795500,3.38979541015625,0.22619222104549408,-0.376028835773468,-1.0319626331329346,-0.4079251289367676,0.24296453595161438,-0.8800939321517944,-0.2097506821155548,0.06907770037651062,-0.3450799584388733,0.9632666729565699,-0.10055282513095319,-0.2232535798039928,0.11029199234744011
1729787708445825300,3.3998251953125,-0.0871007889509201,-0.49518123269081116,-0.9801819920539856,-0.4141837954521179,0.23810583353042603,-0.8784972429275513,-0.11825644969940186,0.057334840297698975,-0.24795228242874146,0.9633710452465724,-0.09881299907016038,-0.22580382754519723,0.10566398104547961
1729787708455856600,3.409856689453125,-0.19822436571121216,-0.5945243239402771,-0.9236558675765991,-0.4213215410709381,0.23548202216625214,-0.8758060932159424,-0.033481985330581665,0.08489151298999786,-0.05174511671066284,0.9631495826778403,-0.09817507078924381,-0.22903841876513611,0.10122203140707275
1729787708465887500,3.419887451171875,-0.09055723249912262,-0.6681423783302307,-1.077783465385437,-0.42932283878326416,0.23278965055942535,-0.8726344704627991,-0.011503636837005615,0.05503690242767334,0.019897043704986572,0.962803150434807,-0.09754569483063348,-0.2327393729199022,0.09657808260762948
1729787708475918600,3.429918701171875,0.06327441334724426,-0.4995054006576538,-1.258453607559204,-0.43713903427124023,0.22770623862743378,-0.8700916171073914,-0.09151703119277954,0.024063795804977417,0.08588141202926636,0.962669653707334,-0.09590403495939648,-0.23612840238067828,0.09117587491364866
1729787708485949400,3.439949462890625,0.19615621864795685,-0.43518200516700745,-1.191511631011963,-0.44377371668815613,0.22121137380599976,-0.8684068918228149,-0.19235002994537354,0.024516165256500244,0.29598867893218994,0.962748212915082,-0.09366489216124615,-0.23879584731694328,0.08555417508134462
1729787708495979500,3.4499794921875,0.5789414048194885,-0.1969851553440094,-1.0085313320159912,-0.44974038004875183,0.21286427974700928,-0.867422878742218,-0.22730740904808044,0.031108513474464417,0.344626247882843,0.962897717145839,-0.09028327957884336,-0.2411171863035151,0.08086762176428693
1729787708506010600,3.4600107421875,0.3619896471500397,0.22066065669059753,-0.8161008954048157,-0.4500661790370941,0.20500023663043976,-0.8691463470458984,-0.17670392990112305,0.02684180438518524,0.35629844665527344,0.9636603017687545,-0.08714479417780154,-0.24048411324948418,0.07702021635345734
1729787708516041500,3.47004150390625,0.6701520085334778,-0.3800818920135498,-1.091317057609558,-0.4532570242881775,0.1960821896791458,-0.8695457577705383,-0.22623217105865479,0.07791990041732788,-0.1371985673904419,0.9640612515951449,-0.08336506834288068,-0.24140706690937921,0.07320441143433917
1729787708526072600,3.480072509765625,0.39670103788375854,-0.6979644894599915,-1.271302580833435,-0.4601815342903137,0.18555070459842682,-0.8682188391685486,-0.16434553265571594,0.05636213719844818,-0.7932038903236389,0.9640777538530069,-0.07893048377946371,-0.24425513553601505,0.06829018812040469
1729787708536103400,3.490103515625,0.023139439523220062,-0.7287165522575378,-1.0168430805206299,-0.46867668628692627,0.17865605652332306,-0.8651151061058044,-0.006924569606781006,0.09847408533096313,-0.2960786819458008,0.963620546576304,-0.07642449995416428,-0.248196954021782,0.06319097127283409
1729787708546133500,3.500133544921875,-0.023998979479074478,-0.6671536564826965,-0.8650601506233215,-0.47639814019203186,0.17430821061134338,-0.8617780804634094,0.07292518019676208,0.08504542708396912,-0.12421435117721558,0.963019125258071,-0.07506036862868597,-0.2519462297399998,0.05901869472906046
1729787708556164600,3.51016455078125,-0.5303322076797485,-0.7639364004135132,-0.9733358025550842,-0.4839594066143036,0.17222179472446442,-0.8579760789871216,0.07668700814247131,-0.06959117949008942,-0.11912047863006592,0.9622967765710111,-0.07499585372187607,-0.2557099615706515,0.05452516426537118
1729787708566195500,3.520195556640625,-0.42722398042678833,-0.5846481919288635,-1.091615080833435,-0.4918171167373657,0.17177052795886993,-0.8535870313644409,-0.030018240213394165,-0.04503104090690613,0.024928033351898193,0.9614475337223024,-0.07606482098940237,-0.2596548150501896,0.04911492836948824
1729787708576226600,3.5302265625,-0.12565669417381287,-0.2591608464717865,-1.0870472192764282,-0.49722057580947876,0.16842786967754364,-0.8511191606521606,-0.07129144668579102,-0.031999051570892334,0.40003883838653564,0.9610700038278481,-0.07572361740006978,-0.26211897945009655,0.04363759048150321
1729787708586257400,3.54025732421875,0.15844373404979706,-0.2176995426416397,-0.9287893772125244,-0.5007362961769104,0.16352859139442444,-0.8500127196311951,-0.16119003295898438,-0.02816787362098694,0.14224904775619507,0.9609875913287486,-0.07442943755688164,-0.26354110454311663,0.03884984362136765
1729787708596287500,3.55028759765625,0.6741076111793518,-0.14300745725631714,-0.8661986589431763,-0.5039569735527039,0.1554156392812729,-0.8496313095092773,-0.14039117097854614,0.13314330577850342,0.03005129098892212,0.9610279252353828,-0.07115186260324241,-0.26480513107223724,0.035229261575849026
1729787708606318600,3.560318603515625,0.6663615107536316,0.31090933084487915,-0.807415783405304,-0.5043171048164368,0.14508698880672455,-0.8512426614761353,-0.07447934150695801,0.12452055513858795,0.15893614292144775,0.9615577815803158,-0.06662551983769935,-0.2644611843125066,0.03206219949662743
1729787708616349400,3.570349365234375,0.763472318649292,-0.21264177560806274,-0.8440699577331543,-0.505034327507019,0.13492655754089355,-0.8524876236915588,-0.15123099088668823,0.06760333478450775,-0.09135991334915161,0.961976578187829,-0.06214129260260107,-0.26437593344743004,0.02906773929549974
1729787708626380500,3.580380615234375,0.579007625579834,-0.5689792037010193,-0.9657564163208008,-0.5094053745269775,0.12439903616905212,-0.8514875173568726,-0.11390095949172974,-0.00019250065088272095,-0.7199540734291077,0.9618115585157306,-0.057542607691247055,-0.26635517253316654,0.025733954534165684
1729787708636411400,3.590411376953125,0.243104949593544,-0.730090320110321,-0.8825874924659729,-0.5164427757263184,0.11604394763708115,-0.8484224677085876,0.10003030300140381,0.03239354491233826,-0.5169034004211426,0.9611086733433224,-0.054208680187988224,-0.26990773471495816,0.021939128634154988
1729787708646441500,3.60044140625,-0.046796299517154694,-0.8665339946746826,-0.7095810770988464,-0.5238057374954224,0.11101493239402771,-0.8445728421211243,0.2234211564064026,0.0657581239938736,-0.19911301136016846,0.9601790266104453,-0.05253084210284746,-0.27377745340289555,0.01851304083263413
1729787708656472300,3.610472412109375,-0.7002862691879272,-1.0677027702331543,-0.8197557926177979,-0.533284068107605,0.10996636003255844,-0.8387583494186401,0.2300155758857727,-0.020900815725326538,-0.25363361835479736,0.9587293926514582,-0.053062422936056335,-0.27893586306332085,0.01473698680987276
1729787708666503400,3.62050341796875,-1.3759732246398926,-0.42047688364982605,-0.9469020366668701,-0.5406001806259155,0.1144942045211792,-0.8334521651268005,0.15493422746658325,-0.1263350248336792,0.2749195098876953,0.9574153311252342,-0.05711674469709152,-0.282863182502487,0.009059703999899367
1729787708676534500,3.630534423828125,-0.7633577585220337,-0.3180359899997711,-0.9057961702346802,-0.5447093844413757,0.11879223585128784,-0.8301687240600586,-0.05764669179916382,-0.20521803200244904,0.8967886567115784,0.9565954630684509,-0.06116931931009873,-0.28491040731630873,0.0030950983575290998
1729787708686564400,3.640564453125,0.15955619513988495,0.0798543244600296,-0.8764877915382385,-0.546822190284729,0.11634988337755203,-0.8291249871253967,-0.28794044256210327,-0.15840309858322144,0.205940842628479,0.9563264062471626,-0.06130759367555061,-0.28579517616923533,-0.001592501702790182
1729787708696595500,3.650595458984375,0.5530180335044861,0.5869010090827942,-0.6199873089790344,-0.5449561476707458,0.108823262155056,-0.8313725590705872,-0.2953606843948364,0.1451897919178009,0.06771594285964966,0.9569032136722341,-0.05827479702732767,-0.28446049863397593,-0.0047518397106153
1729787708706626300,3.660626220703125,0.7804566025733948,0.2700178623199463,-0.5214236974716187,-0.5414499640464783,0.10041090101003647,-0.8347152471542358,-0.2479482889175415,0.37796738743782043,-0.010926783084869385,0.9577652943414805,-0.05435879003676798,-0.282289716943789,-0.006580156838530537
1729787708716657400,3.670657470703125,0.875770628452301,-0.19472716748714447,-0.6243852376937866,-0.541624128818512,0.09008294343948364,-0.835780143737793,-0.10072523355484009,0.25105780363082886,-0.548619270324707,0.9580315386110518,-0.04940374122453989,-0.28225733780091783,-0.008109162629701726
1729787708726688500,3.6806884765625,0.09190818667411804,-0.8309969902038574,-0.6536967754364014,-0.5466737151145935,0.08223140984773636,-0.8332982063293457,0.19892585277557373,-0.027467623353004456,-0.5217280387878418,0.9573621053441048,-0.04602809087275393,-0.28501283500681723,-0.010349863658509954
1729787708736718300,3.69071826171875,-0.3436374366283417,-0.9894044399261475,-0.607242226600647,-0.5549695491790771,0.08038242906332016,-0.8279779553413391,0.3731151819229126,-0.12654027342796326,-0.2372685670852661,0.9559335423747168,-0.04611016226776571,-0.2896288498535005,-0.01342075554632054
1729787708746749400,3.70074951171875,-0.5266023874282837,-1.0565185546875,-0.6742915511131287,-0.56382817029953,0.08016964793205261,-0.8219918608665466,0.34915220737457275,-0.1744537055492401,0.0020608901977539062,0.9543133798897372,-0.047187253624468725,-0.2945800841940108,-0.01679205634476977
1729787708756780300,3.7107802734375,-1.189996600151062,-0.8143125176429749,-0.8008244633674622,-0.5726844668388367,0.08289914578199387,-0.8155735731124878,0.17514723539352417,-0.21787841618061066,-0.05332285165786743,0.9525384803797144,-0.05023771682764223,-0.29948186851976916,-0.021382880442549955
1729787708766811400,3.720811279296875,-1.1159694194793701,-0.17214801907539368,-0.6866808533668518,-0.577124834060669,0.08868824690580368,-0.8118259310722351,-0.021813273429870605,-0.021473295986652374,0.5325901508331299,0.9514186321444935,-0.0550930885554908,-0.30174786380766483,-0.026752363844921266
1729787708776842200,3.73084228515625,-0.206731379032135,0.137823686003685,-0.48766735196113586,-0.5777809023857117,0.09081117063760757,-0.8111242651939392,-0.2274864912033081,0.08953244239091873,0.610196590423584,0.9511196162444244,-0.05743801958851883,-0.3018919368096526,-0.030556762569939278
1729787708786872300,3.740872314453125,0.4198734760284424,0.3095133304595947,-0.44173580408096313,-0.5763155817985535,0.08688453584909439,-0.8125954866409302,-0.3237546682357788,0.10174460709095001,-0.06890469789505005,0.9514408002772745,-0.055949661522463785,-0.3009516239776972,-0.03253188600856545
1729787708796903400,3.7509033203125,0.46591606736183167,0.4648756980895996,-0.49695804715156555,-0.5733054876327515,0.08070205897092819,-0.8153576254844666,-0.2072426676750183,0.1843125820159912,-0.08201175928115845,0.9521062372350441,-0.05314035512533248,-0.29916099726447665,-0.0342432114053457
1729787708806934300,3.760934326171875,0.44877997040748596,-0.15792244672775269,-0.4548500180244446,-0.5721054673194885,0.0741351842880249,-0.8168227076530457,-0.06833642721176147,0.1329723298549652,-0.14370274543762207,0.9524323407462265,-0.05014772418212808,-0.2984524361833596,-0.03583392181538144
1729787708816965400,3.77096533203125,0.12830553948879242,-0.9155502319335938,-0.5919961333274841,-0.5770454406738281,0.06856976449489594,-0.8138284683227539,0.14136117696762085,-0.07616865634918213,-0.5967854857444763,0.9515749993567157,-0.047958940768967825,-0.30130665649807215,-0.037674730014191055
1729787708826995500,3.780995361328125,-0.47354215383529663,-1.1098601818084717,-0.6951971054077148,-0.586032509803772,0.06621123105287552,-0.8075778484344482,0.372012734413147,-0.116946741938591,-0.3650752902030945,0.9498015591856815,-0.04802392734752709,-0.3064388612870129,-0.04081592418389833
1729787708837026300,3.7910263671875,-0.950127899646759,-1.127982258796692,-0.6287251114845276,-0.5955089330673218,0.06819573789834976,-0.8004489541053772,0.3461039662361145,-0.05319635570049286,0.0772739052772522,0.9477420330824211,-0.05072505322387177,-0.3117731486687542,-0.04482873589158742
1729787708847057400,3.801057373046875,-1.269945502281189,-0.750306248664856,-0.5988889336585999,-0.6035758852958679,0.07352812588214874,-0.7939079403877258,0.17410200834274292,-0.07529817521572113,0.0814598798751831,0.945794843067424,-0.05533859257352752,-0.31620196443881105,-0.04925615336304141
1729787708857088300,3.811088134765625,-1.1453133821487427,-0.4421956241130829,-0.5098599791526794,-0.6088033318519592,0.08014709502458572,-0.7892622947692871,0.020287036895751953,-0.08072695136070251,0.3611617088317871,0.9443211228974908,-0.060587388141489534,-0.3189012670152686,-0.053748302714276705
1729787708867119600,3.82111962890625,-0.2415763884782791,0.10330463200807571,-0.3673348128795624,-0.6105507612228394,0.0831267237663269,-0.7876025438308716,-0.13795393705368042,0.009616196155548096,0.4245196580886841,0.9436976215754047,-0.06331322351405558,-0.31967198133244407,-0.056886993440140185
1729787708877149400,3.8311494140625,0.508521556854248,0.26170065999031067,-0.28631266951560974,-0.6090667843818665,0.07992386072874069,-0.7890816330909729,-0.22693181037902832,0.12748883664608002,0.061237454414367676,0.944008035665886,-0.06199225453615415,-0.31877286049708176,-0.05822094511686603
1729787708887180300,3.84118017578125,0.6863239407539368,0.28122058510780334,-0.2987664043903351,-0.6072781085968018,0.0730542466044426,-0.7911234498023987,-0.22318154573440552,0.2023973912000656,-0.28008925914764404,0.9445223850310223,-0.058407544341023396,-0.317847166761727,-0.05864488112835684
1729787708897211600,3.851211669921875,0.3631128668785095,0.08835764229297638,-0.3312907814979553,-0.6055963039398193,0.06701652705669403,-0.7929450869560242,-0.07454901933670044,0.15660102665424347,-0.22026896476745605,0.9449594215891068,-0.0553724734039453,-0.3169563635654484,-0.05936613893068615
1729787708907241200,3.8612412109375,0.1487080156803131,-0.44248637557029724,-0.34987354278564453,-0.6074695587158203,0.06284017860889435,-0.7918534278869629,0.06356996297836304,-0.017796263098716736,-0.26329177618026733,0.9446001613919794,-0.05362966080679653,-0.31811496783762655,-0.06047655417752026
1729787708917272000,3.87127197265625,-0.2715846002101898,-0.6852965950965881,-0.4110756516456604,-0.6122263073921204,0.06089392676949501,-0.7883342504501343,0.24610686302185059,-0.1187857985496521,-0.31403690576553345,0.943555469113079,-0.05342642081977451,-0.32090261039387846,-0.06221148749845153
1729787708927302100,3.88130224609375,-0.6921659111976624,-0.766404390335083,-0.3925248682498932,-0.6182821393013,0.062321968376636505,-0.7834814786911011,0.36330777406692505,-0.061421725898981094,0.02473825216293335,0.9420991839040809,-0.05536059647714216,-0.32433696959923597,-0.06472955984821943
1729787708937333000,3.8913330078125,-0.8315762877464294,-0.6277974843978882,-0.4059658348560333,-0.6243173480033875,0.06591873615980148,-0.7783846259117126,0.2583962678909302,0.024474315345287323,0.10310691595077515,0.9405401347950593,-0.05861211643593862,-0.3276771598008831,-0.06765097165385235
1729787708947364000,3.901364013671875,-0.7544662952423096,-0.20336560904979706,-0.3304164707660675,-0.6275516748428345,0.06998789310455322,-0.7754229307174683,0.07832670211791992,0.03976857662200928,0.18634212017059326,0.9395302376773611,-0.06201679131694916,-0.3293060314557206,-0.07067196729567753
1729787708957395200,3.911395263671875,-0.4571813642978668,0.12573158740997314,-0.1613188087940216,-0.6283632516860962,0.07310503721237183,-0.7744774222373962,-0.11252731084823608,-0.00561542809009552,0.23399591445922852,0.9391156151306609,-0.06447097318983794,-0.3295523890587823,-0.07280536119861486
1729787708967426000,3.921426025390625,-0.046657219529151917,0.4900144636631012,-0.020788326859474182,-0.625657856464386,0.07472200691699982,-0.7765106558799744,-0.1953718066215515,-0.006057478487491608,0.10384231805801392,0.939582086655107,-0.06549757611020654,-0.327802885462007,-0.07376184743765454
1729787708977456000,3.9314560546875,0.3199724555015564,0.4130922555923462,-0.06653983891010284,-0.6221830248832703,0.07320432364940643,-0.7794417142868042,-0.1608370542526245,0.01801268756389618,-0.013969480991363525,0.9403607848535571,-0.06448035147646422,-0.3257628321417013,-0.07377340108620462
1729787708987487000,3.941487060546875,0.10055127739906311,0.23476667702198029,-0.19794447720050812,-0.6195563673973083,0.07055989652872086,-0.7817744612693787,-0.0277521014213562,-0.009234853088855743,-0.21187788248062134,0.9409495822854603,-0.06305279391900183,-0.3242485591056583,-0.07417011273228219
1729787708997518000,3.95151806640625,-0.19452564418315887,-0.14966994524002075,-0.14727889001369476,-0.6194871664047241,0.06988513469696045,-0.781889796257019,0.12070786952972412,0.05458078533411026,-0.033905982971191406,0.9409070150820137,-0.0630085272638158,-0.32416818778761564,-0.07509249757113515
1729787709007549000,3.961548828125,-0.37571805715560913,-0.22483083605766296,-0.1777864694595337,-0.6211499571800232,0.07122321426868439,-0.7804486155509949,0.18937188386917114,0.11560537666082382,-0.0044634342193603516,0.9404315256153825,-0.06421907059453662,-0.32504091454644185,-0.07624280567137469
1729787709017579000,3.9715791015625,-0.6102272868156433,-0.0710412859916687,-0.20535311102867126,-0.6225422620773315,0.07379743456840515,-0.7790988683700562,0.19044381380081177,0.07712723314762115,0.04319804906845093,0.93993470515098,-0.06625607627443061,-0.3256696070423135,-0.07792458745143602
1729787709027610000,3.981610107421875,-0.6637391448020935,0.0948910117149353,-0.1357167810201645,-0.6226302981376648,0.07781796902418137,-0.7786372303962708,0.13523399829864502,0.03996460139751434,0.10432082414627075,0.9396515119244566,-0.06905834424509374,-0.3254417601284486,-0.07983546218708014
1729787709037641000,3.991640869140625,-0.42577478289604187,0.2608107626438141,-0.08227192610502243,-0.6212138533592224,0.08152715116739273,-0.7793886661529541,0.09937846660614014,-0.016585759818553925,0.08010894060134888,0.9397271829529878,-0.07143393218379555,-0.32434988207937826,-0.08128516421892279
1729787709047672000,4.001672119140625,-0.028701720759272575,0.24329747259616852,-0.09873558580875397,-0.6193575263023376,0.08279824256896973,-0.7807309031486511,0.04449784755706787,-0.10448098927736282,-0.09234648942947388,0.940006145598024,-0.07229126109513907,-0.3231230885889514,-0.08218264448168175
1729787709057703000,4.011702880859375,0.04732247442007065,0.35950133204460144,0.0448700450360775,-0.6170156598091125,0.08215218037366867,-0.7826511263847351,0.028590917587280273,-0.13398629426956177,-0.1647518277168274,0.940497712194602,-0.07186265580691716,-0.3217300215348908,-0.08240005935138421
1729787709067733000,4.02173291015625,-0.03910023346543312,0.19704897701740265,0.18926769495010376,-0.6145444512367249,0.08321884274482727,-0.784480631351471,0.09920930862426758,-0.05889635533094406,-0.04895436763763428,0.941024197288748,-0.0721027811061811,-0.32025127726653246,-0.08193891362853677
1729787709077764000,4.03176416015625,0.2270347774028778,0.1223377138376236,0.14975091814994812,-0.6133648753166199,0.08345627784729004,-0.7853779792785645,0.1730724573135376,0.014245741069316864,-0.01767677068710327,0.941343949225349,-0.0718292789403754,-0.3196115629437823,-0.08099806920703585
1729787709087795000,4.041794921875,0.10034187883138657,0.13081759214401245,0.052492015063762665,-0.6121357679367065,0.08281189203262329,-0.786404550075531,0.17463570833206177,0.048444196581840515,-0.044405996799468994,0.941677903738929,-0.0711627923074694,-0.31895703703202827,-0.08028191763433576
1729787709097826000,4.051825927734375,0.3429212272167206,0.05280694365501404,-0.021281808614730835,-0.6116002202033997,0.08133579045534134,-0.7869750261306763,0.10444378852844238,0.15270349383354187,-0.039318859577178955,0.9418585950166901,-0.07022865760470254,-0.3187168337131273,-0.07993794737520846
1729787709107857000,4.06185693359375,0.5973196029663086,0.1425102949142456,-0.03619258105754852,-0.6106657385826111,0.07736067473888397,-0.7881007194519043,0.05637490749359131,0.19055312871932983,-0.17399638891220093,0.9422072486564007,-0.06786222969733698,-0.31834627604840754,-0.0793473970325027
