time,seconds_elapsed,rotationRateX,rotationRateY,rotationRateZ,gravityX,gravityY,gravityZ,accelerationX,accelerationY,accelerationZ,quaternionW,quaternionX,quaternionY,quaternionZ
1728063256598226200,0.06022607421875,-0.1288570761680603,-0.03060096874833107,-0.008875779807567596,0.028988150879740715,-0.268702894449234,-0.9627867937088013,0.010638928040862083,-0.01765879988670349,0.019946277141571045,0.990652947409675,0.13561908536108838,0.014630830261393673,1.3001343626700221e-17
1728063256608257000,0.070257080078125,-0.15420503914356232,-0.029727187007665634,-0.024197211489081383,0.030040964484214783,-0.2668664753437042,-0.9632651805877686,0.0016973186284303665,-0.014490365982055664,0.022270917892456055,0.9907737727971558,0.13467862130943342,0.015135162973048797,-0.0001853274693998426
1728063256618287000,0.080287109375,-0.158001109957695,-0.0259343683719635,-0.009594300761818886,0.030469002202153206,-0.2651418447494507,-0.9637278914451599,-0.006665287539362907,-0.017130523920059204,0.024137437343597412,0.9908903695674851,0.1337948172828684,0.01532984364798246,-0.000331153413228483
1728063256628318000,0.09031787109375,-0.1484115868806839,-0.010704280808568,0.01181059144437313,0.03085188940167427,-0.2637973427772522,-0.9640846252441406,0.0007490664720535278,-0.01392790675163269,0.016544342041015625,0.9909804170300758,0.13310477908567805,0.015518212860895438,-0.0003583651269688424
1728063256638348000,0.10034814453125,-0.12580788135528564,-0.004400151781737804,0.0349220335483551,0.031102381646633148,-0.2627986967563629,-0.9643492698669434,0.00582389160990715,-0.003924965858459473,-0.0006165504455566406,0.9910472664796823,0.13259039859311145,0.01565746136430625,-0.00025572275694304877
1728063256648379100,0.110379150390625,-0.09348030388355255,0.005355539731681347,0.052921805530786514,0.03096902184188366,-0.2621873617172241,-0.9645199179649353,0.004553442820906639,0.0018571317195892334,-0.013827800750732422,0.991090323684229,0.13227246688998023,0.015621317535103952,-0.00001794646247775601
1728063256658409200,0.1204091796875,-0.05503198131918907,0.015415470115840435,0.06529431790113449,0.03072234056890011,-0.26234155893325806,-0.9644858837127686,0.007455149665474892,0.006177008152008057,-0.01862257719039917,0.9910816512590886,0.13234611929138643,0.015542097927864575,0.0003197492393066006
1728063256668440000,0.130440185546875,-0.04611651599407196,0.015223190188407898,0.07705990225076675,0.030794983729720116,-0.2628993093967438,-0.9643316864967346,0.005963440984487534,0.010747820138931274,-0.014687418937683105,0.9910425375135008,0.13262684787140572,0.015629195172605033,0.0006914526464068464
1728063256678471200,0.14047119140625,-0.03900887072086334,-0.008424774743616581,0.09626156091690063,0.03085377998650074,-0.26332414150238037,-0.9642139077186584,0.007476301863789558,0.011248916387557983,-0.004078328609466553,0.9910123592338181,0.13283826854289296,0.015717764618179902,0.001126249576176196
1728063256688501000,0.1505009765625,-0.02804144285619259,-0.01506776362657547,0.11144477128982544,0.03046857938170433,-0.26368752121925354,-0.9641268253326416,0.015155201777815819,0.00575295090675354,0.014938652515411377,0.9909897353418529,0.13301673985157889,0.0155926132436192,0.0016376143228564982
1728063256698532000,0.160531982421875,-0.04398472234606743,-0.015334772877395153,0.10550352185964584,0.029833853244781494,-0.26409050822257996,-0.9640364050865173,0.016659678891301155,0.00028127431869506836,0.019349515438079834,0.9909658276057816,0.13321522868242228,0.015346458059193524,0.002183599879335983
1728063256708562200,0.170562255859375,-0.06732865422964096,-0.013708113692700863,0.11394494771957397,0.029481790959835052,-0.26405027508735657,-0.9640582203865051,0.011961083859205246,0.006649762392044067,0.013969719409942627,0.9909701131896628,0.13318634271208057,0.015240813009737762,0.0027202104426951802
1728063256718593000,0.180593017578125,-0.07941761612892151,-0.01914447732269764,0.11461979150772095,0.02923353761434555,-0.26343148946762085,-0.9642350673675537,0.006685657426714897,0.009509950876235962,0.013734579086303711,0.9910129616108718,0.13286004639840815,0.015188149992032862,0.00327325385380407
1728063256728623000,0.190623046875,-0.09508632868528366,-0.0012562908232212067,0.10249149054288864,0.029014091938734055,-0.26243409514427185,-0.9645135998725891,0.004189034923911095,0.0023327767848968506,0.008886218070983887,0.991081361573299,0.13233981798312303,0.015144735939805268,0.003797943375605855
1728063256738654200,0.200654296875,-0.11123061180114746,0.03594045341014862,0.10042514652013779,0.029163727536797523,-0.26116320490837097,-0.9648540019989014,-0.009205227717757225,-0.002539217472076416,0.007731199264526367,0.9911652362863018,0.13167928548232116,0.015282710372017328,0.004297011615126791
1728063256748684000,0.21068408203125,-0.12984050810337067,0.05837518721818924,0.10674961656332016,0.0295669287443161,-0.2596881091594696,-0.9652398228645325,-0.018458528444170952,-0.0007031559944152832,0.007033646106719971,0.991260042552243,0.13091295925638766,0.015552914204990848,0.004839228723663343
1728063256758715100,0.220715087890625,-0.126040518283844,0.0549725741147995,0.11851679533720016,0.03009646385908127,-0.2582288086414337,-0.9656148552894592,-0.01325075700879097,0.0012097358703613281,0.013466477394104004,0.9913515967965386,0.13015376704650716,0.01589210306953643,0.00542765775071967
1728063256768746200,0.230746337890625,-0.11604912579059601,0.05370836704969406,0.13450375199317932,0.030754024162888527,-0.2572055160999298,-0.9658672213554382,-0.002525264397263527,0.0027652084827423096,0.020768404006958008,0.9914114451638855,0.12961695432434409,0.016304279181524512,0.00607356410353303
1728063256778775800,0.24077587890625,-0.12671302258968353,0.05505385249853134,0.14996767044067383,0.03138178586959839,-0.25641804933547974,-0.9660564064979553,0.01085454598069191,0.007943928241729736,0.020087778568267822,0.991454508767724,0.1291995399794068,0.01671168268108478,0.00679553294249828
1728063256788807000,0.250806884765625,-0.13736246526241302,0.04030100628733635,0.1633942574262619,0.031724490225315094,-0.25532838702201843,-0.96633380651474,0.019911255687475204,0.012561023235321045,0.02570575475692749,0.9915186119344452,0.1286260093815645,0.01698404821667723,0.007601528534254709
1728063256798837000,0.2608369140625,-0.16364002227783203,0.027576476335525513,0.17984327673912048,0.031739480793476105,-0.2540161609649658,-0.966679036617279,0.026152368634939194,0.004077166318893433,0.04044002294540405,0.9915984561533211,0.12793793567027706,0.017098539023135937,0.008481809233614756
1728063256808867800,0.270867919921875,-0.2015940546989441,0.035225607454776764,0.18884795904159546,0.03157984837889671,-0.2524747848510742,-0.967087984085083,0.02184116840362549,-0.008008003234863281,0.04448062181472778,0.9916929135497139,0.1271318343815138,0.017131843153322234,0.009435896353956084
1728063256818898000,0.28089794921875,-0.24827967584133148,0.05625339597463608,0.20166495442390442,0.03133770823478699,-0.25056955218315125,-0.9675912857055664,0.015110049396753311,-0.007960140705108643,0.047257423400878906,0.9918094418848548,0.1261385509178544,0.017129926502118118,0.010470784606204608
1728063256828929000,0.290928955078125,-0.29018741846084595,0.09204041957855225,0.20857106149196625,0.031274739652872086,-0.24815188348293304,-0.9682161808013916,0.008352335542440414,-0.013444826006889343,0.0466921329498291,0.9919546879683019,0.12488129977854216,0.01722152581046306,0.011575813354053133
1728063256838959000,0.300958984375,-0.3339555561542511,0.1361883282661438,0.2088344544172287,0.03169837221503258,-0.24535392224788666,-0.9689152240753174,-0.004659794270992279,-0.02072887122631073,0.04197430610656738,0.9921167666191265,0.12342654683948438,0.017558096089019704,0.012724131445994732
1728063256848990000,0.310989990234375,-0.40303927659988403,0.19395601749420166,0.19177371263504028,0.03279279172420502,-0.24199259281158447,-0.9697237610816956,-0.014482244849205017,-0.020672231912612915,0.028607487678527832,0.9923052878733177,0.12167997912624039,0.018223346901654506,0.013861991324914853
1728063256859021000,0.32102099609375,-0.4474838376045227,0.22881796956062317,0.1583467721939087,0.03455076366662979,-0.2380256950855255,-0.9706441164016724,-0.027104470878839493,-0.025508880615234375,0.03442585468292236,0.9925222120985765,0.11962140449824855,0.019200450296341095,0.014892751542594226
1728063256869051000,0.33105078125,-0.48173314332962036,0.2527105212211609,0.14867736399173737,0.03673267364501953,-0.2336774617433548,-0.9716200828552246,-0.03332995995879173,-0.02880425751209259,0.03552389144897461,0.9927535855672486,0.11736683678153481,0.020371313835480784,0.015825242552440385
1728063256879082000,0.34108203125,-0.5272408723831177,0.251359760761261,0.14064954221248627,0.03885430470108986,-0.22879895567893982,-0.9726979732513428,-0.014074031263589859,-0.015524789690971375,0.01691800355911255,0.9930097673444124,0.11484218780740929,0.021500659494796483,0.016746574631473894
1728063256889112000,0.351112060546875,-0.5459205508232117,0.21083924174308777,0.13365447521209717,0.04078586399555206,-0.223597913980484,-0.9738277196884155,0.017380643635988235,0.0005143880844116211,0.016628682613372803,0.9932790647633504,0.11215600745396223,0.02252018229974342,0.017617369203009086
1728063256899143000,0.361142822265625,-0.584823727607727,0.16894936561584473,0.12940433621406555,0.04233589395880699,-0.21813583374023438,-0.974999725818634,0.04546317830681801,0.005596131086349487,0.011208832263946533,0.9935591026552772,0.10934185584528702,0.02333464736162382,0.018441288746960015
1728063256909173000,0.371173095703125,-0.6557040214538574,0.12617447972297668,0.15780295431613922,0.04347344860434532,-0.21214444935321808,-0.976270854473114,0.05859259143471718,0.006883189082145691,-0.005723774433135986,0.9938626227047493,0.10626249770466349,0.02393432906475659,0.019298532721608946
1728063256919204000,0.3812041015625,-0.6918869614601135,0.06476011872291565,0.20869089663028717,0.04404202848672867,-0.20558492839336395,-0.9776477813720703,0.06801851838827133,0.004077315330505371,-0.008436203002929688,0.9941878057886617,0.10289679385851773,0.02425639379737144,0.02035434082222019
1728063256929235000,0.39123486328125,-0.7350506782531738,-0.00710501940920949,0.2564128637313843,0.04377630725502968,-0.19866950809955597,-0.9790883660316467,0.07994195818901062,-0.010772660374641418,-0.011710584163665771,0.9945237376445518,0.09935679216857919,0.024166851018307012,0.021602491720205567
1728063256939265000,0.40126513671875,-0.755468487739563,-0.015219349414110184,0.33330684900283813,0.043103475123643875,-0.19142477214336395,-0.9805603623390198,0.08708450943231583,-0.014874070882797241,-0.01997363567352295,0.9948589890245692,0.09565120335236461,0.023888516307971328,0.02314625642243901
1728063256949295900,0.4112958984375,-0.8320703506469727,-0.0018247156403958797,0.4646201431751251,0.04246808588504791,-0.1837611198425293,-0.9820531010627747,0.09064958989620209,-0.0005040466785430908,-0.003664672374725342,0.995183123168499,0.09172517762334782,0.023663011918268986,0.025238299438943807
1728063256959326000,0.421325927734375,-0.8088920712471008,-0.10673994570970535,0.5647938847541809,0.040879733860492706,-0.17585663497447968,-0.9835666418075562,0.1179947778582573,0.022978797554969788,0.0019840002059936523,0.9954928983551242,0.08768271671994869,0.022987686679057994,0.02787563688476246
1728063256969357000,0.431357177734375,-0.8683178424835205,-0.17429262399673462,0.7393686175346375,0.038379278033971786,-0.16789020597934723,-0.9850583076477051,0.16022911667823792,0.03153763711452484,0.018520891666412354,0.9957713231794154,0.08361762789693046,0.021884441221165795,0.031120950098289298
1728063256979387100,0.44138720703125,-0.9844722151756287,-0.1809765100479126,0.9553549885749817,0.035166531801223755,-0.15902452170848846,-0.9866481423377991,0.15311166644096375,-0.022692427039146423,0.009521067142486572,0.9960274846094205,0.07910204239711666,0.020464771939442173,0.03539996913079963
1728063256989418000,0.45141796875,-1.0235705375671387,-0.1852295845746994,1.1133617162704468,0.03174249455332756,-0.14935164153575897,-0.9882745146751404,0.14074285328388214,-0.021378979086875916,0.03937619924545288,0.9962367428408816,0.07418514223768494,0.018955530623999368,0.04061390878176775
1728063256999448000,0.461447998046875,-1.0324432849884033,-0.1801195591688156,1.209818720817566,0.028329797089099884,-0.13952234387397766,-0.9898135662078857,0.12181668728590012,-0.011142969131469727,0.04314309358596802,0.9963686554391068,0.0692025626258508,0.017441658292551197,0.04643503484527885
1728063257009479200,0.471479248046875,-1.0418797731399536,-0.19467267394065857,1.2521445751190186,0.02482898160815239,-0.12955288589000702,-0.9912616014480591,0.11262218654155731,-0.008188232779502869,0.023152470588684082,0.9964242736663133,0.06417188157048943,0.015848251162272363,0.05262572260504805
1728063257019510000,0.481510009765625,-1.121453881263733,-0.27002042531967163,1.2938950061798096,0.020926015451550484,-0.11911176145076752,-0.9926602840423584,0.12229298055171967,-0.0050948187708854675,0.020355045795440674,0.9964186410319205,0.058941661492302615,0.01399019708722415,0.05899198568700995
1728063257029540000,0.4915400390625,-1.2293624877929688,-0.32467302680015564,1.3569592237472534,0.01638045161962509,-0.107598215341568,-0.9940595030784607,0.1368483006954193,-0.014426365494728088,0.010477960109710693,0.9963537858534446,0.05322342086726823,0.011726630486931617,0.06564115614074333
1728063257039571000,0.501571044921875,-0.8402252197265625,-0.450154572725296,1.2102235555648804,0.011466134339571,-0.09697157144546509,-0.9952210783958435,0.1521386057138443,-0.0209178626537323,0.006009101867675781,0.99620366961734,0.0480034647243021,0.009225873747039285,0.07203192463225624
1728063257049601000,0.51160107421875,-1.2252458333969116,0.05038229748606682,1.5584129095077515,0.0072952741757035255,-0.08717592805624008,-0.9961662292480469,0.12486109882593155,-0.0537237673997879,-0.019794464111328125,0.9959714080034436,0.04320975669204869,0.007057458980348343,0.07825524998169385
1728063257059632000,0.521632080078125,-1.5847089290618896,-0.49839141964912415,2.1525485515594482,0.004323020577430725,-0.07276386022567749,-0.9973398447036743,0.08867929875850677,-0.05354844033718109,-0.034688353538513184,0.9954428462200652,0.03607366822335125,0.005364392107505004,0.08810956936064901
1728063257069662200,0.531662109375,-1.6765331029891968,-0.7615655660629272,1.5346719026565552,-0.0033207403030246496,-0.05651962012052536,-0.9983959794044495,0.41883280873298645,0.009644579142332077,0.09919553995132446,0.9948422680702717,0.02829847382360572,0.0011015718403987968,0.09739961247398991
1728063257079693000,0.541693115234375,-1.962849736213684,-0.6835060119628906,1.5919197797775269,-0.010907281190156937,-0.03826954960823059,-0.9992079138755798,0.35178864002227783,-0.10508681833744049,0.11874526739120483,0.9942832676349715,0.01960525745519705,-0.0034165126692829346,0.1049034463150693
1728063257089723100,0.55172314453125,-2.148482322692871,-1.031455159187317,1.4102559089660645,-0.019847698509693146,-0.017337176948785782,-0.9996526837348938,0.06646329164505005,-0.1970793753862381,0.0317724347114563,0.9935750341179118,0.009730076155826776,-0.008887237206858094,0.1124052807464524
1728063257099754000,0.56175390625,-2.2874882221221924,-1.4156068563461304,1.4172009229660034,-0.032540611922740936,0.005250312387943268,-0.9994566440582275,0.36560946702957153,-0.15663281083106995,0.04221177101135254,0.9927424850908251,-0.0006680977304091475,-0.016469420349051606,0.11912424170318439
1728063257109785000,0.57178515625,-2.3922057151794434,-1.307945966720581,1.6206848621368408,-0.046023666858673096,0.029431357979774475,-0.9985066652297974,0.3362916111946106,-0.12983423471450806,0.004686534404754639,0.9915888952189842,-0.011689420085395696,-0.024698396643339636,0.12650943363944586
1728063257119815200,0.581815185546875,-2.2371795177459717,-1.2417826652526855,1.7690393924713135,-0.05806226655840874,0.05367932468652725,-0.9968687295913696,0.22041578590869904,0.01263532042503357,-0.036151230335235596,0.9900971518309264,-0.022699142596553198,-0.03240947905708513,0.13469225785474734
1728063257129846000,0.591845947265625,-2.0124752521514893,-1.1823774576187134,1.8994477987289429,-0.06897256523370743,0.07599755376577377,-0.9947196245193481,0.19699379801750183,0.05293916165828705,-0.08511435985565186,0.98829914916572,-0.03268779392206446,-0.039644538700771274,0.14361270333116682
1728063257139876000,0.6018759765625,-1.889723777770996,-1.1521786451339722,1.9470064640045166,-0.0788983479142189,0.09683200716972351,-0.992168664932251,0.2088879644870758,0.04470846801996231,-0.11578726768493652,0.9862502220734439,-0.04188038296247863,-0.04649422370712738,0.15295379016748095
1728063257149907200,0.6119072265625,-1.756442904472351,-1.207906723022461,1.9352656602859497,-0.0885029062628746,0.11659058183431625,-0.9892289042472839,0.1929340660572052,0.05949578434228897,-0.09165787696838379,0.9839976934564437,-0.05044916936121126,-0.05329556888918412,0.16236667942146538
1728063257159937000,0.62193701171875,-1.7331913709640503,-1.254841923713684,1.8777490854263306,-0.09830857813358307,0.1355721354484558,-0.9858781099319458,0.19762803614139557,0.037477731704711914,-0.0510023832321167,0.9815748048714594,-0.05851489805437533,-0.060307204992561377,0.1716100283874424
1728063257169968000,0.631968017578125,-1.7926642894744873,-1.316335916519165,1.8277705907821655,-0.10830740630626678,0.15489605069160461,-0.9819759130477905,0.20747427642345428,-0.00035509467124938965,-0.027270913124084473,0.9789758084869031,-0.06664351601349186,-0.06760680945135955,0.18053859363969066
1728063257179998000,0.641998046875,-1.864839792251587,-1.327556848526001,1.9624147415161133,-0.11780351400375366,0.17476122081279755,-0.9775381684303284,0.20552629232406616,0.0014777332544326782,-0.002808511257171631,0.9760989904751535,-0.07495819192807138,-0.07491456416786331,0.18973608397663502
1728063257190029000,0.652029052734375,-2.0860202312469482,-1.5111842155456543,1.8487017154693604,-0.1282050907611847,0.19642075896263123,-0.9721020460128784,0.2471931278705597,0.023916095495224,-0.027669131755828857,0.9728757246306345,-0.08396736014808413,-0.08305704699528661,0.19890630335919204
1728063257200060200,0.66206005859375,-2.364877462387085,-1.6663707494735718,1.5858546495437622,-0.14006158709526062,0.22034333646297455,-0.9653142094612122,0.2806865870952606,0.06896324455738068,-0.03782910108566284,0.9694339147473632,-0.09393585674825386,-0.09229808828557882,0.2070147125606941
1728063257210090000,0.672090087890625,-2.6165921688079834,-1.8036497831344604,1.3592859506607056,-0.15338240563869476,0.246599480509758,-0.9569025635719299,0.20460616052150726,0.09657062590122223,-0.07923024892807007,0.9657955411452085,-0.10495094212114761,-0.10263534622372174,0.21375276984374267
1728063257220121000,0.68212109375,-2.6592416763305664,-1.9233036041259766,1.2242411375045776,-0.16784170269966125,0.2740218937397003,-0.9469642043113708,0.16291312873363495,0.13207542896270752,-0.12089163064956665,0.9619081525018826,-0.1164528220971221,-0.1138272856905775,0.21957856014680163
1728063257230151000,0.69215087890625,-2.4945435523986816,-1.9603748321533203,1.0869543552398682,-0.1828666478395462,0.3005342483520508,-0.9360763430595398,0.1642204076051712,0.20135778188705444,-0.1710708737373352,0.9578637833936143,-0.12745488360829496,-0.12536774740919523,0.22480031923556534
1728063257240182000,0.70218212890625,-2.1196963787078857,-2.002666711807251,0.8739022016525269,-0.1982957422733307,0.3240872323513031,-0.9250114560127258,0.1653367578983307,0.31286031007766724,-0.2271796464920044,0.9538964301494042,-0.1369720375239162,-0.1368682625879975,0.22931891961101095
1728063257250211800,0.7122119140625,-1.6009632349014282,-1.9368947744369507,0.6568332314491272,-0.2139866054058075,0.3429090082645416,-0.9146710634231567,0.1416294276714325,0.4399278461933136,-0.21638667583465576,0.9502813711995511,-0.1441478641250773,-0.1479387151730336,0.23302532665288128
1728063257260243000,0.722242919921875,-0.9639087319374084,-1.7623904943466187,0.8501939177513123,-0.2278652787208557,0.3562926948070526,-0.9061638712882996,0.09377104043960571,0.5562133193016052,-0.20524060726165771,0.9470499808143592,-0.14868529042613954,-0.15751432361438494,0.23701940342158764
1728063257270274000,0.732274169921875,-0.43083655834198,-1.5947266817092896,0.811348021030426,-0.24016091227531433,0.3644421398639679,-0.8997247815132141,0.07763956487178802,0.6334825754165649,-0.1906072497367859,0.9441520811236793,-0.1505648946177681,-0.16573421356086265,0.24174192941446176
1728063257280303900,0.742303955078125,-0.1972847282886505,-1.3581421375274658,0.5169168710708618,-0.2509530186653137,0.36877113580703735,-0.8950030207633972,0.07472926378250122,0.6642640829086304,-0.18690615892410278,0.9418500861857109,-0.15073420730732798,-0.17256212340910912,0.24580449937267193
1728063257290335000,0.7523349609375,-0.18485628068447113,-1.1710734367370605,0.0997348502278328,-0.26109734177589417,0.37125736474990845,-0.8910645842552185,-0.08919867873191833,0.6184886693954468,-0.1802549958229065,0.9402229203160581,-0.15034267612644842,-0.17850706657598964,0.2480184548154683
1728063257300365000,0.762364990234375,-0.2214665561914444,-1.0220240354537964,-0.20375019311904907,-0.271090030670166,0.3728741705417633,-0.8873979449272156,-0.22300481796264648,0.5293779373168945,-0.0924299955368042,0.9391564991259883,-0.1498669207723075,-0.18395909416293918,0.24836279176669626
1728063257310396000,0.77239599609375,-0.3844413757324219,-0.9168441295623779,-0.33262428641319275,-0.2806888222694397,0.3747982680797577,-0.8835949301719666,-0.2834896445274353,0.40086695551872253,0.03621333837509155,0.9383681659430039,-0.14983303741433282,-0.18908354824352874,0.2475126809664342
1728063257320426000,0.782426025390625,-0.6273353695869446,-0.8042673468589783,-0.3794272243976593,-0.289665549993515,0.3782215416431427,-0.8792282342910767,-0.2758099138736725,0.2951182425022125,0.15783846378326416,0.9375959722540503,-0.1507822523308076,-0.19403757850181252,0.24602418587088667
1728063257330457000,0.79245703125,-0.9924036264419556,-0.6297695636749268,-0.46433624625205994,-0.29759106040000916,0.3841438293457031,-0.8739983439445496,-0.25456345081329346,0.2396048605442047,0.25748223066329956,0.9367755076358218,-0.1533065418050191,-0.1987408736103217,0.24382551876740702
1728063257340487000,0.80248681640625,-1.1911629438400269,-0.47991442680358887,-0.6107102632522583,-0.30448034405708313,0.3922668695449829,-0.8679967522621155,-0.25090906023979187,0.23406058549880981,0.3162999749183655,0.9359984416239028,-0.1573303600404344,-0.20309794490138783,0.24063495150705375
1728063257350518000,0.81251806640625,-1.1813993453979492,-0.3480892777442932,-0.7787525057792664,-0.31084275245666504,0.4004961848258972,-0.861962616443634,-0.27132582664489746,0.212327241897583,0.39484530687332153,0.9354431841879753,-0.1617274125224896,-0.20703364091304577,0.23648951927041273
1728063257360548900,0.822548828125,-1.1672248840332031,-0.20604325830936432,-0.9449912905693054,-0.31671977043151855,0.40796563029289246,-0.8563017249107361,-0.28942036628723145,0.15940183401107788,0.3734372854232788,0.9351921208133307,-0.16604153921167925,-0.21042658277076368,0.23144451896683998
1728063257370579000,0.832578857421875,-1.0020705461502075,-0.111335389316082,-1.0937141180038452,-0.32229083776474,0.4141187369823456,-0.8512545228004456,-0.3003135323524475,0.15781113505363464,0.28059107065200806,0.9352644767607631,-0.16993504773229295,-0.2132951383724218,0.22562706287235518
1728063257380610000,0.842610107421875,-0.8068686127662659,0.03538166731595993,-1.2121840715408325,-0.32745859026908875,0.41806650161743164,-0.8473436236381531,-0.30985522270202637,0.1698545515537262,0.16518419981002808,0.9357282434047318,-0.17289205584406317,-0.2154913434552412,0.219281541651453
1728063257390640000,0.85264013671875,-0.5870223045349121,0.1703546643257141,-1.2749449014663696,-0.33180758357048035,0.4199775457382202,-0.8447026610374451,-0.30486536026000977,0.18317177891731262,-0.010430395603179932,0.9365738315216295,-0.17499399605713023,-0.216854287146076,0.21255735820591665
1728063257400671000,0.8626708984375,-0.171958327293396,0.20352642238140106,-1.2906378507614136,-0.33562910556793213,0.41894736886024475,-0.8437038660049438,-0.2968476712703705,0.19482207298278809,-0.07609593868255615,0.9377824070219923,-0.17560207533787076,-0.21751319183264137,0.20595139122802605
1728063257410701000,0.872701171875,-0.01982605829834938,0.28045156598091125,-1.3344042301177979,-0.3391053378582001,0.415167897939682,-0.8441819548606873,-0.28574204444885254,0.11274033784866333,-0.06985002756118774,0.9393071870701682,-0.17477932352457445,-0.21762630729771243,0.19948173159947089
1728063257420732000,0.88273193359375,-0.06902662664651871,0.2809193730354309,-1.3472979068756104,-0.34225398302078247,0.41099509596824646,-0.8449527621269226,-0.28372254967689514,0.020431816577911377,-0.06685137748718262,0.9408959257438992,-0.17382554709624842,-0.21750468062069575,0.19285010222209897
1728063257430763000,0.892762939453125,-0.15871018171310425,0.21418534219264984,-1.309436559677124,-0.34567874670028687,0.40737348794937134,-0.8453124165534973,-0.28742367029190063,-0.023401379585266113,0.03983139991760254,0.9423212273109134,-0.17313925357908433,-0.2176386845104258,0.18624422437642202
1728063257440793000,0.90279296875,-0.21562831103801727,0.12317565083503723,-1.2440035343170166,-0.3493781089782715,0.4046797752380371,-0.8450853228569031,-0.2524590492248535,-0.07864528894424438,0.06568163633346558,0.943505685469378,-0.17288525626029227,-0.21810092223771343,0.17983263012326187
1728063257450823400,0.912823486328125,-0.22815288603305817,-0.008217793889343739,-1.2600045204162598,-0.35400980710983276,0.40210041403770447,-0.8443887233734131,-0.20220354199409485,-0.12837308645248413,-0.032884836196899414,0.9444741585072419,-0.172572655385949,-0.21914453172606949,0.17367436430450503
1728063257460853200,0.922853271484375,-0.4309682548046112,-0.035187412053346634,-1.2937380075454712,-0.3593653440475464,0.40036624670028687,-0.8429492115974426,-0.16018113493919373,-0.18475964665412903,-0.13266724348068237,0.9452548220964182,-0.17273905570890538,-0.22065042056252454,0.1672360479067163
1728063257470884400,0.93288427734375,-0.4338415563106537,-0.175154909491539,-1.2033026218414307,-0.365263968706131,0.39965638518333435,-0.8407478928565979,-0.15052887797355652,-0.1631757616996765,-0.17649459838867188,0.9457776263587416,-0.1734222815519187,-0.22260002716270957,0.16086826977558488
1728063257480914400,0.94291455078125,-0.46230512857437134,-0.31536734104156494,-1.160235047340393,-0.3721417188644409,0.39897608757019043,-0.8380504846572876,-0.1143694818019867,-0.15973365306854248,-0.1812824010848999,0.9460379345594779,-0.1739613635259832,-0.22519371557432707,0.15503984076533497
1728063257490945300,0.9529453125,-0.7554238438606262,-0.31848323345184326,-1.1614279747009277,-0.3794645071029663,0.3997689187526703,-0.8343809247016907,-0.0815339982509613,-0.23209017515182495,-0.2203829288482666,0.9460227756616983,-0.1753243504750532,-0.22819053688390664,0.14910187363161737
1728063257500975400,0.962975341796875,-0.8591079115867615,-0.43812263011932373,-1.078041672706604,-0.3871541917324066,0.40230831503868103,-0.8296141624450684,-0.120871901512146,-0.2397870421409607,-0.18265390396118164,0.9456789444831206,-0.17764645536911583,-0.23159156462166422,0.14317294721174573
1728063257511006500,0.97300634765625,-0.9933133721351624,-0.47924476861953735,-0.9885680675506592,-0.3952273726463318,0.4059985876083374,-0.8239905834197998,-0.11968043446540833,-0.23760268092155457,-0.1229851245880127,0.9450200723800523,-0.18053581990567755,-0.23539653786229625,0.1375947040531338
1728063257521037300,0.983037353515625,-0.841327428817749,-0.5636045932769775,-0.8697593808174133,-0.4032951593399048,0.4101119339466095,-0.8180227279663086,-0.06757578253746033,-0.22303923964500427,-0.1751718521118164,0.9441640114624664,-0.18358517956779208,-0.2393430796765431,0.13253543963278577
1728063257531067400,0.9930673828125,-0.5481123328208923,-0.6086937189102173,-0.8248230814933777,-0.41170209646224976,0.4123525321483612,-0.8126910924911499,-0.018107473850250244,-0.16834929585456848,-0.1762310266494751,0.9433402645060925,-0.18545752334727025,-0.24343369276345994,0.12827604936321443
1728063257541098200,1.00309814453125,-0.2848099172115326,-0.5626971125602722,-0.79820716381073,-0.41987043619155884,0.4124051332473755,-0.8084743618965149,0.03785145282745361,-0.15527939796447754,-0.2428714632987976,0.9427346146576334,-0.18608760541614014,-0.24725337973267128,0.1244526701966974
1728063257551128300,1.01312841796875,-0.1338646113872528,-0.5109580159187317,-0.7184111475944519,-0.4274079501628876,0.41083401441574097,-0.8053184151649475,0.04372569918632507,-0.10535314679145813,-0.2608436942100525,0.9423355195667182,-0.1857782041261108,-0.2506536337044435,0.1210898397600852
1728063257561159400,1.023159423828125,-0.0917835384607315,-0.47578930854797363,-0.5842424035072327,-0.4341138005256653,0.4089450240135193,-0.802688717842102,0.06141790747642517,-0.08095744252204895,-0.24397265911102295,0.9419891071492935,-0.18519829717277547,-0.25368725721987245,0.11832574722579328
1728063257571189500,1.033189453125,-0.2044229954481125,-0.4916590750217438,-0.42757877707481384,-0.4400885999202728,0.40792277455329895,-0.7999506592750549,0.08678662776947021,-0.11135300993919373,-0.17423152923583984,0.941524333049428,-0.18496175770196666,-0.2565420692675203,0.11622026368087329
1728063257581220400,1.043220458984375,-0.4107361435890198,-0.5253420472145081,-0.32013165950775146,-0.445738822221756,0.4087538421154022,-0.7963901162147522,0.10261443257331848,-0.21576076745986938,-0.07647371292114258,0.9407825397728976,-0.18564239097749183,-0.2595030878155588,0.11455664924691443
1728063257591251500,1.05325146484375,-0.8494866490364075,-0.5342170000076294,-0.2212759107351303,-0.45111966133117676,0.41250723600387573,-0.7914093732833862,0.09002044796943665,-0.3438580334186554,0.04450690746307373,0.9396526588282454,-0.18793006161846593,-0.26263585159267305,0.11294970034675912
1728063257601281300,1.06328125,-1.2004470825195312,-0.6420150399208069,-0.0968535766005516,-0.4564129710197449,0.42001840472221375,-0.7843925952911377,0.06525394320487976,-0.4284260869026184,0.1136009693145752,0.9379693055171865,-0.1922895024111025,-0.2661361374747606,0.11139996509206018
1728063257611312400,1.0733125,-1.6298152208328247,-0.6732043623924255,-0.003307642415165901,-0.4619758725166321,0.4307965934276581,-0.7752370834350586,0.061921000480651855,-0.46093279123306274,0.1788473129272461,0.9356979576767621,-0.19845462916247228,-0.2701799792976058,0.10994412121566363
1728063257621342500,1.083342529296875,-1.9240731000900269,-0.6158379316329956,0.08908167481422424,-0.46674680709838867,0.4448617398738861,-0.7643594741821289,0.07120847702026367,-0.42748206853866577,0.1374979019165039,0.9329745204215458,-0.20657684169018728,-0.274128185018966,0.10834328184222658
1728063257631373300,1.093373291015625,-1.9875633716583252,-0.5066254138946533,0.14076058566570282,-0.47055599093437195,0.46044135093688965,-0.7527089715003967,0.06328368186950684,-0.3170393407344818,0.13233232498168945,0.9300319371347078,-0.21566307059981896,-0.2777318125996474,0.10674734775156058
1728063257641403400,1.1034033203125,-1.8035788536071777,-0.3766425848007202,0.11830959469079971,-0.4732457995414734,0.4754200875759125,-0.7416293621063232,0.048349618911743164,-0.22168177366256714,0.07599520683288574,0.9272275833969826,-0.2245283204906931,-0.2806641386237628,0.10518332278961019
1728063257651434500,1.1134345703125,-1.4059643745422363,-0.2437593787908554,0.05411090701818466,-0.47514528036117554,0.4877616763114929,-0.7323424220085144,0.020372390747070312,-0.12959221005439758,0.018566787242889404,0.9248921393234155,-0.23198230336925876,-0.28286567135526386,0.10366131804544693
1728063257661464600,1.123464599609375,-1.1221518516540527,-0.03622130677103996,0.004113256465643644,-0.47588855028152466,0.4973256587982178,-0.7253944873809814,-0.016481995582580566,-0.056194156408309937,-0.01512974500656128,0.9231835560785816,-0.23793026011833332,-0.2840632691580356,0.10212344479695548
1728063257671495400,1.133495361328125,-0.5562291145324707,0.04750901088118553,-0.1625782549381256,-0.4763227105140686,0.503123939037323,-0.7210984826087952,-0.042338788509368896,0.0077250003814697266,-0.05412435531616211,0.9221881531570617,-0.24174196799620143,-0.284625329739922,0.10058972577422312
1728063257681526500,1.143526611328125,-0.12233598530292511,0.1106889396905899,-0.3454740345478058,-0.4769326150417328,0.5042678713798523,-0.7198951840400696,-0.051189273595809937,0.08597242832183838,-0.07405012845993042,0.922054278000643,-0.24294324947573265,-0.2846594216651748,0.09880959486342589
1728063257691556400,1.153556396484375,0.17811225354671478,0.030123524367809296,-0.46404463052749634,-0.47848743200302124,0.5020551085472107,-0.7204098105430603,-0.06577825546264648,0.13954627513885498,-0.1261020302772522,0.9224016389522031,-0.24224172167657454,-0.2848052580596939,0.09685006090480475
1728063257701587500,1.16358740234375,0.3722550570964813,-0.060957010835409164,-0.45459040999412537,-0.480972021818161,0.4978070557117462,-0.7217021584510803,-0.0477602481842041,0.18505418300628662,-0.029976367950439453,0.9229319791143804,-0.2402811270268961,-0.28533119619970654,0.09511891231408072
1728063257711617500,1.173617431640625,0.5078208446502686,-0.10989712923765182,-0.4015839099884033,-0.48375874757766724,0.49256259202957153,-0.7234359383583069,-0.009863048791885376,0.2037874162197113,-0.0013108253479003906,0.9235281968396158,-0.2375949512563459,-0.2860605988268566,0.09388102141921642
1728063257721648400,1.1836484375,0.681397020816803,-0.15599611401557922,-0.38070768117904663,-0.4866316318511963,0.48639997839927673,-0.7256753444671631,0.03722977638244629,0.1917920708656311,-0.041063547134399414,0.9242144989625647,-0.23424950474130884,-0.2868614404880215,0.09308746950764847
1728063257731678500,1.193678466796875,0.8070545196533203,-0.23658576607704163,-0.42905789613723755,-0.4900100827217102,0.4789765179157257,-0.7283347845077515,0.07146155834197998,0.15177592635154724,-0.09715044498443604,0.9249887390202463,-0.23010803946384575,-0.28789390002540466,0.09253726665688382
1728063257741709600,1.20370947265625,0.8801561594009399,-0.35918545722961426,-0.49208852648735046,-0.49440914392471313,0.4705717861652374,-0.7308363318443298,0.09060060977935791,0.11881408095359802,-0.15955978631973267,0.9257220283201291,-0.22541255322228612,-0.2894322243466012,0.0919611945926898
1728063257751740400,1.213740478515625,0.9899194240570068,-0.4988512396812439,-0.5139315128326416,-0.49993160367012024,0.46122807264328003,-0.7330327033996582,0.11394530534744263,0.1315910816192627,-0.2115931510925293,0.9263669846564978,-0.22016612536795432,-0.291565627929531,0.09143534993304608
1728063257761770500,1.2237705078125,1.1420550346374512,-0.6509643197059631,-0.44874370098114014,-0.506450355052948,0.45096349716186523,-0.7349420785903931,0.145213782787323,0.1432441771030426,-0.21522271633148193,0.9268889973868432,-0.21425564239894213,-0.294318660371896,0.09136544494779215
1728063257771801300,1.23380126953125,1.358121633529663,-0.7839103937149048,-0.3353399336338043,-0.5135209560394287,0.439788281917572,-0.7368055582046509,0.185380756855011,0.1234745979309082,-0.18436753749847412,0.9273130325683663,-0.2075625162478873,-0.297514720550232,0.09215917650030152
1728063257781831400,1.24383154296875,1.5785924196243286,-0.9075857400894165,-0.2912890911102295,-0.5211690068244934,0.4273214340209961,-0.7387687563896179,0.2330830693244934,0.05966272950172424,-0.17619407176971436,0.9276774184943021,-0.19987086158811174,-0.301110047198977,0.09380302611373041
1728063257791862500,1.253862548828125,1.7126057147979736,-1.012838363647461,-0.3290495276451111,-0.5296077132225037,0.4135036766529083,-0.7406283617019653,0.26111412048339844,-0.01889622211456299,-0.18176543712615967,0.9279737571716213,-0.19129931679603107,-0.3051071919609539,0.09580596538205703
1728063257801892600,1.263892578125,1.940565824508667,-1.16033935546875,-0.3098960816860199,-0.5390090346336365,0.3982805907726288,-0.7421872019767761,0.26602935791015625,-0.05153992772102356,-0.16668736934661865,0.9281536227274969,-0.18183263719326337,-0.30958569820636317,0.09810425617811037
1728063257811923500,1.27392333984375,2.2463059425354004,-1.3128114938735962,-0.1496691107749939,-0.549189567565918,0.3814324140548706,-0.7435725331306458,0.28008562326431274,-0.03778928518295288,-0.12715506553649902,0.9281777085142218,-0.17112864739519001,-0.3145293616001098,0.10135273084035695
1728063257821953300,1.283953369140625,2.621999740600586,-1.4022507667541504,0.12735024094581604,-0.5594396591186523,0.36324217915534973,-0.7450385093688965,0.31755733489990234,-0.003546804189682007,-0.11485534906387329,0.9280199409483824,-0.15909769405221305,-0.31963835384295985,0.10629278466354024
1728063257831984600,1.293984619140625,2.9678971767425537,-1.4018925428390503,0.38248664140701294,-0.569067120552063,0.34380969405174255,-0.7469655275344849,0.34956949949264526,0.03262457251548767,-0.08296000957489014,0.927737186096456,-0.1457478421985253,-0.32446079222119634,0.11307730943097809
1728063257842015500,1.304015380859375,3.3645849227905273,-1.393180012702942,0.6173758506774902,-0.5779024958610535,0.32301783561706543,-0.7494586110115051,0.34757107496261597,0.04957118630409241,-0.05147528648376465,0.9273372809000845,-0.1310698877729247,-0.32877253846552906,0.12155191167420047
1728063257852045300,1.31404541015625,3.71083402633667,-1.385097861289978,0.8448891639709473,-0.5860890746116638,0.30057841539382935,-0.75243079662323,0.3233022689819336,0.03384840488433838,0.02089393138885498,0.9267504188740169,-0.1149056719958679,-0.3325376382094074,0.13171539200509375
1728063257862076400,1.324076416015625,3.8991448879241943,-1.3390377759933472,1.0604747533798218,-0.5936591625213623,0.27739888429641724,-0.7553929686546326,0.31727683544158936,-0.0382784903049469,0.08084774017333984,0.9258359480895358,-0.09785663337861975,-0.33574930137167464,0.14326241765517847
1728063257872106200,1.334106201171875,4.032074451446533,-1.2593564987182617,1.2678282260894775,-0.6004598140716553,0.2543099522590637,-0.7581387758255005,0.30782681703567505,-0.120963454246521,0.168859601020813,0.9245251033112307,-0.08046577124787915,-0.33831327772501224,0.15595707200005493
1728063257882137300,1.344137451171875,4.004979610443115,-1.12260103225708,1.4261614084243774,-0.606289267539978,0.23176588118076324,-0.7607219219207764,0.2985958456993103,-0.2059328258037567,0.25049853324890137,0.9228394522870841,-0.06311067492719162,-0.3400824728399034,0.16949395518948976
1728063257892167400,1.35416748046875,3.817739248275757,-0.9316204786300659,1.5904505252838135,-0.6108140349388123,0.2110559195280075,-0.7631261944770813,0.26924604177474976,-0.2663233280181885,0.2943151593208313,0.9208241836074811,-0.0466812154907308,-0.3409659143585875,0.18342820215184438
1728063257902198300,1.3641982421875,3.710484027862549,-0.8094261288642883,1.739241361618042,-0.6140679121017456,0.19252103567123413,-0.765412449836731,0.22026914358139038,-0.2728128433227539,0.3912973999977112,0.9184793217546522,-0.03138057878622628,-0.3410411191021692,0.19774186615154207
1728063257912228400,1.374228271484375,3.625246524810791,-0.6329256892204285,1.7660324573516846,-0.6164498329162598,0.17517217993736267,-0.7676615715026855,0.19584137201309204,-0.27578872442245483,0.42418622970581055,0.9158675201682887,-0.01676827973326942,-0.34042334151324605,0.21217278032751513
1728063257922259500,1.384259521484375,3.5287578105926514,-0.35881155729293823,1.8077324628829956,-0.6172977089881897,0.1586218923330307,-0.7705729603767395,0.1584201455116272,-0.24156872928142548,0.3779795169830322,0.9132362345839093,-0.0028597651116114673,-0.3386817824539871,0.2264642200418595
1728063257932290300,1.394290283203125,3.4640936851501465,-0.07409805804491043,1.9071581363677979,-0.6161931157112122,0.14301061630249023,-0.7745024561882019,0.10223138332366943,-0.16342693567276,0.3572356104850769,0.9106280191156716,0.010244799210777792,-0.33562453821558186,0.24084802309832637
1728063257942320400,1.4043203125,3.3660054206848145,0.21073633432388306,1.9975309371948242,-0.6130024790763855,0.1284259706735611,-0.7795734405517578,0.085918128490448,-0.09383435547351837,0.3372821807861328,0.9080262255454057,0.022478292968603937,-0.33122198524715984,0.25548988497234854
1728063257952351200,1.414351318359375,3.169879913330078,0.48322856426239014,2.065856456756592,-0.6077619791030884,0.1152033880352974,-0.7857184410095215,0.08141010999679565,-0.05059772729873657,0.315610408782959,0.9054635084633911,0.033538385491698054,-0.32560091083498444,0.2701757752406538
1728063257962381300,1.42438134765625,2.9696874618530273,0.6366724371910095,2.0640485286712646,-0.6009950637817383,0.10350998491048813,-0.7925217151641846,0.07340717315673828,-0.03856862336397171,0.31409764289855957,0.9028990174647146,0.04330398348125834,-0.3191612494242534,0.28466524675209426
1728063257972412400,1.434412353515625,2.673276901245117,0.7850643396377563,1.9474190473556519,-0.5933666825294495,0.0929422378540039,-0.7995484471321106,0.07674986124038696,-0.07853799313306808,0.3212311863899231,0.9004059737571833,0.05188828892718225,-0.3123033563961403,0.2984010386089658
1728063257982442500,1.4444423828125,2.343846082687378,0.878334641456604,1.8838880062103271,-0.5848571062088013,0.08411972224712372,-0.8067626357078552,0.053927600383758545,-0.1200999915599823,0.3656005263328552,0.8980964641781037,0.05890141205397562,-0.3052037103266985,0.3111332140086604
1728063257992473300,1.454473388671875,2.1353628635406494,0.8930746912956238,1.775111198425293,-0.5762649178504944,0.07655525207519531,-0.8136695027351379,0.03547823429107666,-0.10992628335952759,0.39406806230545044,0.8958123432417187,0.06482853348206051,-0.298265856834818,0.32304008329452794
1728063258002504400,1.46450439453125,1.8655376434326172,1.0101838111877441,1.7606227397918701,-0.5671735405921936,0.07024569064378738,-0.8205971717834473,0.044605791568756104,-0.07201575487852097,0.32966089248657227,0.8936480163276193,0.06963440533039378,-0.29129448677392183,0.33420300122643587
1728063258012534300,1.4745341796875,1.7614145278930664,1.038743257522583,1.8210935592651367,-0.5574392080307007,0.06549704819917679,-0.8276301622390747,0.032765746116638184,0.05019504576921463,0.2404567003250122,0.891438867974888,0.07333668713184809,-0.28426510880695294,0.3451837516502603
1728063258022565400,1.4845654296875,1.731507420539856,1.060495138168335,1.7983983755111694,-0.5475543141365051,0.060924991965293884,-0.8345492482185364,0.06769591569900513,0.15420863032341003,0.20199614763259888,0.8890584012138328,0.07677686197291599,-0.2771835042889267,0.35615976147556266
1728063258032595500,1.494595458984375,1.4762556552886963,1.0858287811279297,1.7682300806045532,-0.5374579429626465,0.05703470855951309,-0.841359555721283,0.07476574182510376,0.15780898928642273,0.18341583013534546,0.8866743561945003,0.07957642967688393,-0.2701625508694523,0.3667263782582559
1728063258042626300,1.504626220703125,1.0473707914352417,1.0338855981826782,1.7776973247528076,-0.5274519920349121,0.05573730170726776,-0.8477544784545898,0.047578394412994385,0.10347285866737366,0.23235231637954712,0.8842806113521126,0.08086526870546037,-0.2637869545523621,0.37672916597152584
1728063258052656400,1.514656494140625,0.49542030692100525,0.9499995708465576,1.6982108354568481,-0.5180029273033142,0.0582604743540287,-0.853392481803894,0.04919189214706421,-0.029619771987199783,0.34626662731170654,0.8819189679480699,0.08013081289202822,-0.25861713402459247,0.3858952423878384
1728063258062687500,1.5246875,-0.28855064511299133,0.9608839154243469,1.5403481721878052,-0.5088600516319275,0.06556998938322067,-0.8583484292030334,0.04685443639755249,-0.20175471901893616,0.39959293603897095,0.8799365218220497,0.07671717991495369,-0.25483377340203617,0.3935555419471
1728063258072717300,1.53471728515625,-0.9761399626731873,0.9752492904663086,1.5391391515731812,-0.4993273913860321,0.07910245656967163,-0.862794816493988,0.011061429977416992,-0.2605447769165039,0.3684558868408203,0.878375187945568,0.0698726366007629,-0.25242900131363133,0.39981784408469556
1728063258082748400,1.54474853515625,-0.9050034880638123,0.8200516700744629,1.5157490968704224,-0.49011242389678955,0.09530733525753021,-0.8664330840110779,0.02859511971473694,-0.1302194893360138,0.2757806181907654,0.8767424901854851,0.061746850000753924,-0.2509398007732136,0.405634153124944
1728063258092779500,1.554779541015625,-0.3790453374385834,0.6628159880638123,1.3378605842590332,-0.4822691082954407,0.10797516256570816,-0.8693433403968811,0.10067731142044067,0.04630640894174576,0.1514630913734436,0.874924751055847,0.055577470827457044,-0.24947839693811327,0.4113129083408083
1728063258102809300,1.564809326171875,0.19351086020469666,0.5537075400352478,1.2184396982192993,-0.47549647092819214,0.11481863260269165,-0.8721925020217896,0.09980982542037964,0.22932806611061096,0.006973385810852051,0.8730712322089587,0.052350838558829056,-0.24731181662519897,0.41694459776439624
1728063258112840400,1.57484033203125,0.49919217824935913,0.5033184289932251,1.2254301309585571,-0.4695137143135071,0.11740254610776901,-0.8750848770141602,0.06337052583694458,0.4181961715221405,-0.007102012634277344,0.8710573291513505,0.05134125205399644,-0.2445846411017735,0.4228493175465397
1728063258122870500,1.58487060546875,0.3890446722507477,0.5290050506591797,1.266361951828003,-0.4634884297847748,0.11903104931116104,-0.8780717849731445,0.05673491954803467,0.4696834981441498,0.0630541443824768,0.8689016225836623,0.05080362789857505,-0.24162593971670523,0.4290055861375242
1728063258133835300,1.595835205078125,-0.24336127936840057,0.533388614654541,1.2139657735824585,-0.4566880762577057,0.12444574385881424,-0.880879819393158,0.00016036629676818848,0.13947023451328278,0.14603179693222046,0.8666320256270155,0.04832662834571972,-0.23921671778659434,0.43518813146320756
1728063258142938400,1.6049384765625,-1.2979761362075806,0.467385858297348,1.1315702199935913,-0.45130178332328796,0.1355188488960266,-0.8820211887359619,-0.005225926637649536,0.1283971220254898,0.14717316627502441,0.8650178822362267,0.04299237224009539,-0.23904197624402784,0.4390383593880706
1728063258152969500,1.614969482421875,-2.4141151905059814,0.3438493013381958,1.1649253368377686,-0.44598421454429626,0.15725097060203552,-0.8811187148094177,-0.051192909479141235,-0.0940948873758316,0.3150481581687927,0.8633435540820535,0.0325759770152504,-0.2416183883621875,0.4418113480253285
1728063258162999300,1.624999267578125,-3.0793867111206055,0.14290893077850342,1.1832401752471924,-0.44182321429252625,0.18701238930225372,-0.8773930668830872,-0.036265164613723755,-0.126633420586586,0.32706958055496216,0.861371636803192,0.018580515836499115,-0.2468971947157147,0.4435486760550744
1728063258173030400,1.635030517578125,-3.198784828186035,0.10369734466075897,1.141591191291809,-0.43847399950027466,0.22005122900009155,-0.8713885545730591,0.005261719226837158,-0.030369281768798828,0.2872821092605591,0.8590933791361112,0.0031489872332114556,-0.25356617159342604,0.4445817382156527
1728063258183060500,1.645060546875,-2.739229202270508,0.06600834429264069,1.0332210063934326,-0.43516984581947327,0.2509750723838806,-0.8646610379219055,-0.0014604032039642334,0.2043471336364746,0.13068276643753052,0.8567073587802011,-0.011362204354268214,-0.2598853340749238,0.44540203967821224
1728063258193091300,1.65509130859375,-2.0115914344787598,0.004017140716314316,0.8763216733932495,-0.4322548806667328,0.27561154961586,-0.8586000204086304,-0.011928468942642212,0.47617366909980774,0.02774369716644287,0.8544036275172862,-0.022874466551034613,-0.2649089318973521,0.4464241865473185
1728063258203122400,1.665122314453125,-1.4741483926773071,-0.21513023972511292,0.5102273225784302,-0.4310515224933624,0.2936175763607025,-0.8532193899154663,-0.023385733366012573,0.6752849817276001,-0.03397238254547119,0.852448877919514,-0.03105435128429326,-0.26912068697681185,0.4471471364325454
1728063258213152500,1.675152587890625,-1.2513813972473145,-0.35947224497795105,0.07773234695196152,-0.432757705450058,0.3062889873981476,-0.8478843569755554,-0.054516494274139404,0.80406254529953,-0.08384782075881958,0.8511608710716277,-0.03648708428797092,-0.2733615162225321,0.44661776946827836
1728063258223183400,1.685183349609375,-1.0711735486984253,-0.31674474477767944,-0.1745547503232956,-0.4358474910259247,0.3159605860710144,-0.842737078666687,-0.15466764569282532,0.7905914783477783,-0.1501370668411255,0.8506098043407333,-0.04064711930665218,-0.27745138375211786,0.44478228758310534
1728063258233213400,1.69521337890625,-0.8679847717285156,-0.2143736332654953,-0.2138717919588089,-0.43883422017097473,0.32325035333633423,-0.8384113907814026,-0.24489685893058777,0.6283334493637085,-0.2059459090232849,0.8504608374037055,-0.043880443226587094,-0.2808359055625008,0.4426306615757205
1728063258243244300,1.705244384765625,-0.49678587913513184,-0.03555114567279816,-0.271779865026474,-0.4405454397201538,0.328069806098938,-0.8356373906135559,-0.2828584909439087,0.37882405519485474,-0.3039500117301941,0.8506672679458138,-0.0462761336301953,-0.2829130840521056,0.4406629580842572
1728063258253274400,1.7152744140625,-0.12340670824050903,0.04005013778805733,-0.3547690212726593,-0.441679984331131,0.32918983697891235,-0.8345974087715149,-0.30590909719467163,0.20624098181724548,-0.3067142367362976,0.8512711436403161,-0.04708120928473963,-0.2836981963573686,0.43890321478873456
1728063258263305500,1.725305419921875,0.21310506761074066,0.13758888840675354,-0.3610530197620392,-0.4420144855976105,0.32729268074035645,-0.8351662755012512,-0.3501608073711395,0.16454380750656128,-0.22110813856124878,0.8522258813951435,-0.04664568239167644,-0.28326850983766827,0.4373719067862646
1728063258273335600,1.73533544921875,0.6714441180229187,0.1097404807806015,-0.3251187205314636,-0.4421108067035675,0.3220789134502411,-0.837139904499054,-0.3320896327495575,0.282794713973999,-0.12977904081344604,0.8532405537477411,-0.04453671491143846,-0.281862611504721,0.43652089005640726
1728063258283366400,1.745366455078125,0.9427763819694519,0.042264021933078766,-0.3968011438846588,-0.4425504505634308,0.31364259123802185,-0.8401055932044983,-0.2581484019756317,0.3555162847042084,-0.11808532476425171,0.8542892236362797,-0.0407123618353789,-0.2798029647886652,0.43616822611606165
1728063258293397500,1.7553974609375,0.9245315790176392,-0.006096852011978626,-0.6151769161224365,-0.44396522641181946,0.3033706247806549,-0.8431258201599121,-0.20035240054130554,0.24779203534126282,-0.1426835060119629,0.855593892524716,-0.03596375034434598,-0.277747558871903,0.4353411796477875
1728063258303427600,1.765427490234375,0.7070580720901489,-0.11988887190818787,-0.7956086993217468,-0.4466283619403839,0.2932290732860565,-0.845304548740387,-0.1968195140361786,0.045805901288986206,-0.13960444927215576,0.857195404760474,-0.031305939541616756,-0.27634697269539205,0.43343781547647037
1728063258313458400,1.77545849609375,0.3335108458995819,-0.20887413620948792,-0.84370356798172,-0.4504333436489105,0.2850869596004486,-0.8460704684257507,-0.20223084092140198,-0.11421909928321838,-0.10226327180862427,0.8588322544098187,-0.027556730025825066,-0.27605324078371135,0.4306302593370839
1728063258323488500,1.785488525390625,-0.010393073782324791,-0.2298360913991928,-0.827488899230957,-0.45470598340034485,0.2800006568431854,-0.8454833626747131,-0.18103620409965515,-0.1454334259033203,-0.051916539669036865,0.8603427824372748,-0.025260808680435252,-0.27680356547007173,0.427261002728072
1728063258333519400,1.795519287109375,-0.07206203043460846,-0.22396434843540192,-0.8305584788322449,-0.4589370787143707,0.27677202224731445,-0.8442594408988953,-0.16450649499893188,-0.055840104818344116,0.010137736797332764,0.8617780125113508,-0.02390842494528668,-0.2780263982617007,0.4236369780986191
1728063258343549400,1.805549560546875,0.024081014096736908,-0.20969897508621216,-0.8731988668441772,-0.46316689252853394,0.27306807041168213,-0.8431549072265625,-0.15200644731521606,0.024371445178985596,0.0128936767578125,0.8632608863082263,-0.022364972552709736,-0.2791457495446658,0.4199499148000539
1728063258353580500,1.81558056640625,0.15739805996418,-0.152064710855484,-0.9012089371681213,-0.4671062231063843,0.26819688081741333,-0.8425450325012207,-0.12847483158111572,0.040030598640441895,-0.0516810417175293,0.8648844122072111,-0.020371664101772265,-0.2798436520435532,0.4162299342251723
1728063258363610600,1.825610595703125,0.2961518168449402,-0.035543158650398254,-0.7575803995132446,-0.47019723057746887,0.2623175084590912,-0.8426767587661743,-0.09291312098503113,0.019634336233139038,-0.051320433616638184,0.8665255487998171,-0.018000299301261857,-0.2798885919937828,0.41288228070577343
1728063258373641500,1.835641357421875,0.6150520443916321,0.009646158665418625,-0.40766310691833496,-0.47176221013069153,0.25587591528892517,-0.8437819480895996,-0.04232165217399597,0.015745729207992554,-0.08213663101196289,0.867776871522638,-0.015287717572141769,-0.27906149853741596,0.41091884952686947
1728063258383672600,1.845672607421875,1.301596999168396,-0.034875717014074326,0.014952056109905243,-0.47235193848609924,0.24692107737064362,-0.8461167812347412,0.07116785645484924,0.017254292964935303,-0.09495377540588379,0.8682323336562798,-0.010871573814170076,-0.2771703723899098,0.41137689015107776
1728063258393702400,1.855702392578125,1.5463697910308838,-0.10066085308790207,0.37279433012008667,-0.47246527671813965,0.2353871911764145,-0.849334716796875,0.18349432945251465,-0.11598722636699677,-0.15423583984375,0.8677609743411013,-0.004601437841370303,-0.27442935537490315,0.414316629778004
1728063258403733500,1.8657333984375,1.1928250789642334,-0.16628935933113098,0.33522459864616394,-0.47266921401023865,0.2253582924604416,-0.851937472820282,0.25611647963523865,-0.36222967505455017,-0.324789822101593,0.8667822386151378,0.0011887145070437618,-0.27208428096120174,0.4179201351561901
1728063258413763600,1.875763671875,0.3354606032371521,-0.3454577624797821,-0.048777125775814056,-0.47447365522384644,0.21931219100952148,-0.8525121212005615,0.28862160444259644,-0.5894752144813538,-0.353466272354126,0.8661178549467874,0.004942954935511663,-0.271513372503965,0.4196378033494084
1728063258423794400,1.88579443359375,-0.6144917607307434,-0.6063939332962036,-0.2373451590538025,-0.47890615463256836,0.2199091762304306,-0.8498757481575012,0.27320244908332825,-0.6143031716346741,-0.1273428201675415,0.8658246515202049,0.0054605544233886204,-0.2739202448435966,0.4186710233938271
1728063258433824300,1.89582421875,-0.9759716391563416,-0.7357900142669678,-0.054779622703790665,-0.4850732386112213,0.22640252113342285,-0.8446572422981262,0.2981072962284088,-0.3670123219490051,0.23601466417312622,0.8652220432787702,0.0034089841615568104,-0.278675009478475,0.416796560809227
1728063258443855600,1.905855712890625,-0.34102532267570496,-0.5736665725708008,0.016519859433174133,-0.49077633023262024,0.23233993351459503,-0.8397361040115356,0.33834102749824524,0.015142306685447693,0.21250832080841064,0.8642912108134463,0.0017627977359962815,-0.28307037947441177,0.4157748347502784
1728063258453885400,1.915885498046875,0.5609399080276489,-0.20396125316619873,0.060148559510707855,-0.4940400719642639,0.2315245121717453,-0.8380458354949951,0.2507386803627014,0.34661567211151123,-0.06951642036437988,0.863667229362421,0.0030400320243707648,-0.28454849926898285,0.41605502624957363
1728063258463915800,1.925915771484375,1.5664105415344238,0.10419349372386932,0.17110037803649902,-0.4940685033798218,0.22337964177131653,-0.8402367830276489,0.030903249979019165,0.5740599036216736,-0.21142947673797607,0.8633347931743464,0.007443170498073727,-0.28253534067374164,0.41805662256117104
1728063258473947000,1.93594677734375,2.3600761890411377,0.10943325608968735,0.263081431388855,-0.49262067675590515,0.20737184584140778,-0.845175564289093,-0.06849077343940735,0.6765697598457336,-0.329079806804657,0.8629267999877187,0.015639710191705604,-0.27779060318185883,0.42183518217773314
1728063258483977000,1.94597705078125,2.070972204208374,0.06424745917320251,0.41963961720466614,-0.49111929535865784,0.1897604614496231,-0.850172221660614,-0.07901006937026978,0.5308815240859985,-0.4689043164253235,0.8621006367763484,0.024781631709896102,-0.27257984595257484,0.42646033459432103
1728063258494007800,1.9560078125,1.370015263557434,-0.16259847581386566,0.4608001112937927,-0.4907015562057495,0.17721550166606903,-0.8531157970428467,-0.0315304696559906,0.2345123440027237,-0.22404783964157104,0.8608178075010892,0.031742319815994076,-0.2691366132597132,0.4307555938840864
1728063258504038000,1.966037841796875,0.5387220978736877,-0.3093975782394409,0.325129896402359,-0.49204766750335693,0.17109547555446625,-0.8535897135734558,0.048367857933044434,-0.03546014428138733,-0.02476722002029419,0.8594532459381996,0.035808759675480056,-0.2681844072771723,0.43374517299073767
1728063258514068700,1.97606884765625,0.06800146400928497,-0.3829413056373596,0.11321178078651428,-0.49469611048698425,0.16990002989768982,-0.852296769618988,0.08203741908073425,-0.2807399034500122,0.07237428426742554,0.85844661321242,0.03743386447318272,-0.2691659857702691,0.4349917699871585
1728063258524098800,1.986098876953125,-0.050572916865348816,-0.3165057301521301,-0.05856157839298248,-0.4977138638496399,0.1700899600982666,-0.8505000472068787,0.05537685751914978,-0.3581698536872864,0.10347551107406616,0.8579178667419097,0.038142926018333544,-0.27073066659107486,0.43500234840216323
1728063258534130000,1.9961298828125,0.039025675505399704,-0.15741755068302155,-0.04181642085313797,-0.49985483288764954,0.16988714039325714,-0.8492841124534607,0.0005109906196594238,-0.24389232695102692,0.05852788686752319,0.857739062699241,0.038688451970690776,-0.2717740985279154,0.4346557325525417
1728063258544160800,2.006160888671875,0.12025594711303711,0.02182585932314396,0.11243999749422073,-0.5003957152366638,0.16931775212287903,-0.8490792512893677,-0.06392008066177368,-0.033819735050201416,0.025318264961242676,0.8575514320481757,0.039169456855822064,-0.27189359692867243,0.4349079941954139
1728063258554190800,2.01619091796875,0.0007255570963025093,0.20377223193645477,0.24138280749320984,-0.4990747272968292,0.169625386595726,-0.8497950434684753,-0.09061643481254578,0.0829227864742279,0.025118529796600342,0.857313649447229,0.03896018875886254,-0.2712647902200026,0.4357874538424562
1728063258564222000,2.026221923828125,-0.15746547281742096,0.12875044345855713,0.3248281478881836,-0.49700862169265747,0.17194543778896332,-0.8505393266677856,-0.09637516736984253,0.0976925790309906,0.06474220752716064,0.8569277324427499,0.03773707306491225,-0.2707512749541429,0.436971769094482
1728063258574251800,2.036251708984375,-0.17492888867855072,0.07753865420818329,0.15358982980251312,-0.4958185851573944,0.17452827095985413,-0.8507078289985657,-0.06330922245979309,0.017747685313224792,0.044936954975128174,0.8565292341159934,0.03652927822666385,-0.27076132246809137,0.43784884770313964
1728063258584283000,2.046282958984375,-0.24406355619430542,0.08381551504135132,0.01770683005452156,-0.4949788749217987,0.17685328423976898,-0.8507166504859924,-0.009934395551681519,-0.10182589292526245,-0.03739064931869507,0.8565146101625044,0.035264755020375134,-0.27092081115178335,0.4378822764773113
1728063258594313000,2.05631298828125,0.062328603118658066,0.04253385215997696,0.0037215049378573895,-0.4944037199020386,0.17785349488258362,-0.8508425354957581,-0.010418057441711426,-0.052563607692718506,-0.007830500602722168,0.8566074912730268,0.03462516783341474,-0.2708870958088324,0.4377725071198079
1728063258604343800,2.06634375,0.2836766839027405,0.08543098717927933,0.028690772131085396,-0.4939233064651489,0.17626608908176422,-0.8514516949653625,0.037746548652648926,0.0582309365272522,-0.005375087261199951,0.8566136016906396,0.035323608324662054,-0.27023396246857,0.4381082390986473
1728063258614374000,2.076373779296875,0.2644076645374298,0.1376180350780487,0.10709769278764725,-0.4927610754966736,0.1742769032716751,-0.8525339365005493,0.07088607549667358,0.09862649440765381,-0.054097533226013184,0.8565801645893671,0.03613261463120148,-0.26912352429692704,0.4387908131381028
1728063258624405000,2.086405029296875,0.2661873996257782,0.1189717948436737,0.12924347817897797,-0.49149656295776367,0.17259570956230164,-0.8536052107810974,0.06057313084602356,0.10345098376274109,0.019605576992034912,0.8564163063021468,0.03685090466249754,-0.26802876187548574,0.4397198556008358
1728063258634435800,2.096435791015625,0.011050166562199593,0.1499510109424591,0.07234504073858261,-0.49012699723243713,0.17185595631599426,-0.8545414209365845,0.058181196451187134,0.031177446246147156,0.025683999061584473,0.8563437315738189,0.03703380243142654,-0.26712880615127843,0.4403929425225275
1728063258644466000,2.1064658203125,0.02218743972480297,0.19201724231243134,-0.017057809978723526,-0.48869213461875916,0.17221617698669434,-0.8552902936935425,0.02680864930152893,-0.04085332155227661,0.052967965602874756,0.8565001516260109,0.03652932936386293,-0.26649662026919824,0.4405139076296156
1728063258654497000,2.1164970703125,0.20624276995658875,0.2863070070743561,-0.05986865609884262,-0.4866897165775299,0.17094860970973969,-0.8566852807998657,-0.013829082250595093,-0.06148210167884827,0.07531321048736572,0.8568952687587799,0.036581265287284476,-0.2651776204189307,0.44053725759296014
1728063258664526800,2.12652685546875,0.37800267338752747,0.36002397537231445,-0.022517822682857513,-0.48391830921173096,0.16841425001621246,-0.8587547540664673,-0.05940139293670654,-0.035723865032196045,0.002874016761779785,0.8573730366991564,0.03707249279837847,-0.2631506423717639,0.44078204223686185
1728063258674558000,2.136557861328125,0.6821428537368774,0.28000983595848083,-0.0029265438206493855,-0.48115450143814087,0.16376599669456482,-0.8612032532691956,-0.09385770559310913,0.0420445054769516,0.04140955209732056,0.8577138060054142,0.03866788950023888,-0.26058237659118305,0.44150714772327104
1728063258684588000,2.146588134765625,0.837334156036377,0.18775570392608643,0.005008078645914793,-0.47912877798080444,0.1571532040834427,-0.8635615110397339,-0.08724695444107056,0.07731330394744873,-0.09704029560089111,0.8578663986561031,0.04143649324937523,-0.25788034504903024,0.44254469857910667
1728063258694619000,2.156618896484375,0.9799091815948486,0.07554634660482407,0.030308110639452934,-0.47797608375549316,0.1493658721446991,-0.8655799627304077,-0.054387807846069336,0.08015678822994232,-0.17600023746490479,0.857793513023783,0.04503288043014655,-0.25530775988896454,0.4438245477430368
1728063258704649000,2.16664892578125,0.9492025375366211,0.020925071090459824,-0.006321541499346495,-0.4775230288505554,0.14098316431045532,-0.8672344088554382,0.00544661283493042,0.055992498993873596,-0.18957406282424927,0.8575870253815662,0.04909170127180943,-0.25292847147657754,0.44515347460676485
1728063258714680000,2.17668017578125,0.7686164975166321,-0.07544141262769699,-0.10551683604717255,-0.4778303802013397,0.13317374885082245,-0.8682988286018372,0.04396197199821472,-0.00907406210899353,-0.16989392042160034,0.8574545913465476,0.052949037255905565,-0.25109157339842586,0.44600569079200175
1728063258724711000,2.1867109375,0.46629026532173157,-0.10062234103679657,-0.17080315947532654,-0.4788292348384857,0.1270982325077057,-0.8686590790748596,0.03284534811973572,-0.07587452232837677,-0.07761472463607788,0.8574876182996063,0.05599826606293641,-0.25006929192215854,0.4461440943871725
1728063258734741000,2.196740966796875,0.16204780340194702,-0.06918026506900787,-0.15260763466358185,-0.4798014461994171,0.1236451119184494,-0.8686209917068481,-0.006084173917770386,-0.11058362573385239,0.047042012214660645,0.8576559386122209,0.05771639077928281,-0.24971646057355315,0.4457990460629582
1728063258744771800,2.206771728515625,-0.09129910916090012,0.00993266049772501,-0.14811861515045166,-0.4802723526954651,0.1226152703166008,-0.8685067296028137,-0.05425828695297241,-0.10551019757986069,0.19931727647781372,0.8579284794489688,0.05813572546238837,-0.24973358610295793,0.4452101539782197
1728063258754801700,2.2168017578125,-0.4920633137226105,0.10740968585014343,-0.18697413802146912,-0.47993654012680054,0.12425414472818375,-0.8684594631195068,-0.10233885049819946,-0.11781497299671173,0.28087401390075684,0.8584600141732808,0.0569989960572243,-0.25004277316600637,0.44415772617493227
1728063258764833000,2.2268330078125,-0.9780192971229553,0.1252022534608841,-0.1891813725233078,-0.479128897190094,0.12977051734924316,-0.8680985569953918,-0.163784921169281,-0.14808110892772675,0.3376878499984741,0.859239735486591,0.05378922066855536,-0.25111238751405446,0.44244371174811725
1728063258774862800,2.23686279296875,-1.351567268371582,0.08935318887233734,-0.17515023052692413,-0.4784320890903473,0.1391471028327942,-0.8670299053192139,-0.1811290681362152,-0.17865215241909027,0.36765551567077637,0.8600813580563451,0.04870164867075797,-0.25320585143883395,0.44019886898215016
1728063258784893700,2.246893798828125,-1.565273642539978,0.028237685561180115,-0.20547299087047577,-0.4781464636325836,0.15102745592594147,-0.865197479724884,-0.13962087035179138,-0.21357327699661255,0.31981784105300903,0.860909881454372,0.042452692874964164,-0.2561230735650735,0.43753056218955233
1728063258794923800,2.256923828125,-1.5424256324768066,-0.08504892140626907,-0.2417236715555191,-0.47876816987991333,0.16360905766487122,-0.8625619411468506,-0.09790724515914917,-0.2171521931886673,0.19822478294372559,0.8616691076004954,0.03600267762271626,-0.2596590929187873,0.43451945194981406
1728063258804955000,2.266954833984375,-1.2674702405929565,-0.16451790928840637,-0.1977705955505371,-0.48024970293045044,0.17478930950164795,-0.8595399260520935,-0.05994191765785217,-0.15060417354106903,-0.010348379611968994,0.8622189864067733,0.030441923168583213,-0.2632552338526417,0.4316809203853021
1728063258814985700,2.27698583984375,-0.9169590473175049,-0.20939725637435913,-0.1468685269355774,-0.4821763038635254,0.18335068225860596,-0.8566729426383972,0.0009751319885253906,-0.01994435489177704,-0.19709903001785278,0.8624903525132243,0.026360830756446834,-0.2663993770525854,0.4294728594151246
1728063258825015800,2.287015869140625,-0.6558709144592285,-0.2495133876800537,-0.15460288524627686,-0.48440414667129517,0.1893249750137329,-0.8541128039360046,0.07926803827285767,0.12822562456130981,-0.26319676637649536,0.8626059101608967,0.023671452897130553,-0.2690413732305117,0.42774694336379804
1728063258835046700,2.297046630859375,-0.5468685626983643,-0.35494792461395264,-0.13834242522716522,-0.48725178837776184,0.19371138513088226,-0.8515055179595947,0.12482503056526184,0.21514782309532166,-0.24448752403259277,0.8625778720501287,0.021935182174763937,-0.27159915900560944,0.42627707818881166
1728063258845076700,2.30707666015625,-0.5872244238853455,-0.4340137243270874,-0.16909153759479523,-0.490923136472702,0.19773803651332855,-0.8484657406806946,0.15654203295707703,0.19436700642108917,-0.15304487943649292,0.8624087693018042,0.020573724060152933,-0.27448833264840616,0.4248340144637652
1728063258855107800,2.31710791015625,-0.6782424449920654,-0.49241870641708374,-0.2551894187927246,-0.4952934682369232,0.202129527926445,-0.844883382320404,0.18715748190879822,0.09843805432319641,-0.04027891159057617,0.8622754077753343,0.01908743645551058,-0.2778380190543492,0.422992466207535
1728063258865138000,2.327137939453125,-0.6233583688735962,-0.586507260799408,-0.3029862344264984,-0.5004023909568787,0.20631171762943268,-0.8408524990081787,0.16499894857406616,0.01610034704208374,0.07989668846130371,0.8621815504343601,0.017757567090291203,-0.28152872898563264,0.4207957858163621
1728063258875168800,2.337168701171875,-0.5102419257164001,-0.6612113118171692,-0.2611205577850342,-0.5063135027885437,0.20961251854896545,-0.8364862203598022,0.13848519325256348,-0.007326796650886536,0.12863099575042725,0.8619384970784196,0.01705297932271901,-0.28542265850280685,0.41869444561680647
1728063258885198800,2.34719873046875,-0.4544517397880554,-0.6178057789802551,-0.1435004323720932,-0.5121614933013916,0.21263904869556427,-0.8321509957313538,0.1180880069732666,0.04994940757751465,0.10421520471572876,0.8614669914924196,0.0166074501972991,-0.2892208478188643,0.4170733141067793
1728063258895229700,2.357229736328125,-0.3704966604709625,-0.5218486189842224,-0.10331706702709198,-0.5171056389808655,0.21549881994724274,-0.8283489942550659,0.08863884210586548,0.12568765878677368,0.13532531261444092,0.8609120596386184,0.016166837242420306,-0.2925135006195114,0.41593851671298965
1728063258905260800,2.3672607421875,-0.4049065113067627,-0.47723743319511414,-0.13950355350971222,-0.5215039849281311,0.21803362667560577,-0.8249211311340332,0.03183424472808838,0.08360205590724945,0.13266044855117798,0.8604511661555819,0.01574224029878516,-0.29545153923624157,0.41483026722195043
1728063258915291000,2.377290771484375,-0.555364727973938,-0.4473000168800354,-0.09132511913776398,-0.5255810022354126,0.22131313383579254,-0.8214530348777771,-0.0342334508895874,-0.012344077229499817,0.0787619948387146,0.8600612016433481,0.014828632061674493,-0.29841847232970514,0.4135471259828396
1728063258925321700,2.38732177734375,-0.6305674910545349,-0.50491863489151,0.013262279331684113,-0.5295045375823975,0.2261418253183365,-0.8176091909408569,-0.03911423683166504,-0.04839225113391876,0.06417596340179443,0.8594683218376236,0.013223323151462624,-0.3016961100397468,0.41245458376270505
1728063258935351800,2.397351806640625,-0.5741220116615295,-0.6345152258872986,-0.0275565218180418,-0.5341671109199524,0.23107817769050598,-0.8131841421127319,0.03258019685745239,-0.04276950657367706,0.011609435081481934,0.8586298946077452,0.011807208216207156,-0.3053989555569783,0.41151780260723525
1728063258945383000,2.4073828125,-0.47759899497032166,-0.6478971838951111,-0.10574933141469955,-0.5396332740783691,0.23506224155426025,-0.8084192276000977,0.08557748794555664,-0.017151519656181335,-0.049826622009277344,0.8578002218465872,0.010950360959402989,-0.30930643569580174,0.41035143823059766
1728063258955413000,2.4174130859375,-0.29284539818763733,-0.5958563089370728,-0.07955021411180496,-0.5448899269104004,0.23769545555114746,-0.8041117787361145,0.04347085952758789,0.038274943828582764,-0.055217444896698,0.857046698779824,0.010701921030253535,-0.31277718306971747,0.40930023828268997
1728063258965443800,2.42744384765625,-0.10048794746398926,-0.4920625388622284,-0.05804572254419327,-0.5494664311408997,0.2389145940542221,-0.8006287813186646,0.011365234851837158,0.09481033682823181,-0.08784472942352295,0.8563248159757181,0.011090155932067879,-0.31553545619124274,0.40868329856028357
1728063258975474000,2.437473876953125,-0.012669676914811134,-0.4124161899089813,-0.07093382626771927,-0.553207516670227,0.23897162079811096,-0.7980313301086426,0.0020905733108520508,0.10351184010505676,-0.07522916793823242,0.8557422089073855,0.011893348075900442,-0.31755768932349254,0.40831463894431713
1728063258985504800,2.4475048828125,-0.08196865022182465,-0.3902771472930908,-0.06606103479862213,-0.5565747618675232,0.23890572786331177,-0.7957063317298889,-0.02476978302001953,0.05941878259181976,-0.020150601863861084,0.8552495184996171,0.012650006372178356,-0.31935376154093714,0.40792309836783375
1728063258995536000,2.457535888671875,-0.2549305856227875,-0.41396385431289673,-0.04878830909729004,-0.5598992109298706,0.23987911641597748,-0.7930768728256226,-0.026099324226379395,-0.01011231541633606,0.015611052513122559,0.8547345381278392,0.012863259680068692,-0.32139711809879745,0.4073908057764203
1728063259005566000,2.46756591796875,-0.4709601402282715,-0.4509000778198242,-0.04269526153802872,-0.563438892364502,0.24255436658859253,-0.789749264717102,0.0045400261878967285,-0.065384641289711,0.026062190532684326,0.8541507594842703,0.012236695308435273,-0.3239994189301872,0.40657223182699076
1728063259015596800,2.4775966796875,-0.6011868715286255,-0.48942190408706665,-0.041967686265707016,-0.567264974117279,0.24658024311065674,-0.7857535481452942,0.03310054540634155,-0.07449167966842651,0.04464942216873169,0.8534989588441788,0.010953455961394418,-0.3271135147342818,0.4054827436998168
1728063259025627000,2.487626953125,-0.6104652881622314,-0.4968368113040924,-0.028668126091361046,-0.5712361335754395,0.25130441784858704,-0.7813675999641418,0.04253435134887695,-0.05326065421104431,0.051783859729766846,0.8527828089203267,0.009337420993608755,-0.330498109856687,0.4042837223340824
1728063259035658000,2.497657958984375,-0.4503136873245239,-0.4611496329307556,-0.06608021259307861,-0.575116753578186,0.2552182972431183,-0.7772414684295654,0.041028618812561035,-0.02568039298057556,0.02119898796081543,0.8520878981211906,0.008111540098936772,-0.3336367457326693,0.4031956804542344
1728063259045687800,2.507687744140625,-0.31333744525909424,-0.3381679356098175,-0.07776083797216415,-0.5784866809844971,0.2577505111694336,-0.7738978266716003,0.02593541145324707,-0.004622519016265869,-0.025784790515899658,0.8515711247078521,0.007431137525735242,-0.33614858408885884,0.4022132168626195
1728063259055719000,2.517718994140625,-0.19743692874908447,-0.2321895956993103,0.0037808935157954693,-0.5807561874389648,0.25952255725860596,-0.7716024518013,-0.009957313537597656,0.03460580110549927,-0.027073144912719727,0.8511882519526918,0.006958155080939102,-0.33786146915280474,0.40159649706955486
1728063259065749000,2.5277490234375,-0.13780935108661652,-0.177724689245224,0.0178261399269104,-0.5823015570640564,0.26092299818992615,-0.7699637413024902,-0.021229326725006104,0.07286292314529419,-0.059244632720947266,0.8507993442216245,0.0066346229106462986,-0.3390783436853624,0.4014005666524007
1728063259075779800,2.53777978515625,-0.17172975838184357,-0.08030280470848083,-0.023678427562117577,-0.5833161473274231,0.2620292603969574,-0.7688191533088684,-0.014767348766326904,0.05475839972496033,-0.1439463496208191,0.8505945780006734,0.006275322316170926,-0.3399279950002779,0.40112139651273077
1728063259085811000,2.54781103515625,-0.22375914454460144,-0.035239558666944504,0.003582488279789686,-0.5837699770927429,0.26356011629104614,-0.7679509520530701,-0.04170304536819458,0.011754155158996582,-0.13054758310317993,0.8505274061985036,0.00552319200613534,-0.34057893929662353,0.40072263752153436
1728063259095841000,2.557841064453125,-0.2337111085653305,0.033960551023483276,0.014060430228710175,-0.5837509632110596,0.2653961777687073,-0.7673327922821045,-0.038716018199920654,-0.011490017175674438,-0.07472342252731323,0.850503869105237,0.0045297763595663265,-0.341047039211499,0.4003866368579395
1728063259105872000,2.567871826171875,-0.2652513086795807,0.11202578991651535,0.024585509672760963,-0.5831226110458374,0.26744937896728516,-0.7670977115631104,-0.018409371376037598,-0.01836496591567993,-0.04677557945251465,0.8505961180518246,0.0032727014654523033,-0.34123370855528906,0.40004381622928037
1728063259115902000,2.57790185546875,-0.2503296434879303,0.13629092276096344,0.011297132819890976,-0.5821120142936707,0.2696063220500946,-0.7671101689338684,-0.02328038215637207,-0.01032903790473938,-0.03280133008956909,0.850764824771407,0.001864220182271492,-0.34123517975183737,0.39969257612293996
1728063259125933000,2.58793310546875,-0.280990868806839,0.20468109846115112,-0.031554196029901505,-0.5808361768722534,0.2715528905391693,-0.7673906087875366,-0.012623906135559082,-0.014320284128189087,-0.06113111972808838,0.851078532082517,0.00042824782360995127,-0.3410344927965943,0.3991998493992105
1728063259135963000,2.597962890625,-0.3199087083339691,0.24280185997486115,-0.010183124803006649,-0.5791717171669006,0.2737925052642822,-0.7678526639938354,-0.011450231075286865,-0.026401817798614502,-0.07185375690460205,0.8515055511171156,-0.0012957197417015258,-0.34069338400050736,0.3985781507756797
1728063259145994000,2.607993896484375,-0.3128274977207184,0.3049585521221161,-0.002012280747294426,-0.5771032571792603,0.2762473523616791,-0.7685304880142212,-0.01237422227859497,-0.016863256692886353,-0.03099954128265381,0.8519655171307889,-0.003197376008484615,-0.34018308725390195,0.39801984423690945
1728063259156024000,2.618024169921875,-0.2177705019712448,0.47551244497299194,0.0008729877881705761,-0.5742272138595581,0.27829140424728394,-0.7699460387229919,-0.00849062204360962,-0.011232137680053711,-0.019284307956695557,0.8526112491066198,-0.005087205103267761,-0.3391181072209981,0.39752610597232774
1728063259166055000,2.628054931640625,-0.1193356066942215,0.7770364284515381,0.07812729477882385,-0.5692590475082397,0.2798708975315094,-0.7730565667152405,-0.036041855812072754,-0.007196396589279175,-0.014785230159759521,0.8535806490951628,-0.0071445273048701356,-0.3367798506351355,0.3974020852317311
1728063259176086000,2.6380859375,0.1552480310201645,0.934853196144104,0.07651261985301971,-0.56227707862854,0.2803046405315399,-0.7779934406280518,-0.057397544384002686,0.023635119199752808,-0.05539584159851074,0.8548802346920594,-0.00899968242530729,-0.333049988227233,0.39771407733886305
1728063259186116000,2.6481162109375,0.40900367498397827,0.9623515009880066,0.09715904295444489,-0.5545651912689209,0.2784571647644043,-0.7841677069664001,-0.07118237018585205,0.07740822434425354,-0.058346331119537354,0.8563066845592265,-0.009772835254650463,-0.3283605461029106,0.398525469600339
1728063259196147000,2.65814697265625,0.43010255694389343,0.9012673497200012,0.1240716204047203,-0.5468359589576721,0.27575263381004333,-0.7905256748199463,-0.06073850393295288,0.09192308783531189,-0.04542708396911621,0.8576293114784367,-0.010019771730293486,-0.3234760718533217,0.39966808931129905
1728063259206176800,2.6681767578125,0.3525913953781128,0.7045809030532837,0.11215024441480637,-0.5400502681732178,0.2732495367527008,-0.796040415763855,-0.006412684917449951,0.09840872883796692,-0.02665245532989502,0.8587111687007164,-0.01012995951900124,-0.3191820243072236,0.4007934198109075
1728063259216208000,2.678207763671875,0.0564848929643631,0.44738534092903137,0.09175948053598404,-0.5351712107658386,0.272072434425354,-0.799730122089386,0.0511472225189209,0.06087428331375122,-0.010770916938781738,0.8594297234325425,-0.010516609365210487,-0.3162662312942681,0.40155386537796417
1728063259226237700,2.68823779296875,-0.25486886501312256,0.1711689978837967,0.07472138106822968,-0.5325011014938354,0.27344873547554016,-0.8010420203208923,0.09851062297821045,-0.009761661291122437,0.026032865047454834,0.8597364136052624,-0.01176019641180127,-0.3151835659521054,0.40171416107073277
1728063259236268800,2.698268798828125,-0.14452476799488068,0.12240946292877197,0.02684360183775425,-0.5312638282775879,0.27559709548950195,-0.8011273145675659,0.12127542495727539,-0.05179649591445923,0.04632079601287842,0.8598238228295212,-0.013114023747805348,-0.3150624891788282,0.40158000495624463
1728063259246299000,2.708298828125,0.13433615863323212,0.17502473294734955,-0.043894484639167786,-0.530165433883667,0.2754679024219513,-0.8018989562988281,0.07676583528518677,-0.04950058460235596,-0.0611838698387146,0.8600761234958813,-0.01334773395459514,-0.3144397371557707,0.40152012798204767
1728063259256329700,2.718329833984375,0.3723908066749573,0.2985442578792572,-0.04090588539838791,-0.5283845663070679,0.2732613682746887,-0.8038270473480225,-0.043743669986724854,0.010201096534729004,-0.11728495359420776,0.8605532221726576,-0.012697848288111652,-0.31293009023725277,0.401698355844462
1728063259266360800,2.72836083984375,0.5530305504798889,0.32778865098953247,-0.0077173043973743916,-0.5258522033691406,0.2692607045173645,-0.8068321347236633,-0.12597274780273438,0.09800302982330322,-0.02176588773727417,0.8611395515563072,-0.011243158122055816,-0.3105760981469286,0.4023117761395566
1728063259276391000,2.738390869140625,0.5431987047195435,0.2838931083679199,0.02546941302716732,-0.5232948660850525,0.26483407616615295,-0.8099539279937744,-0.10497051477432251,0.12359359860420227,0.031389474868774414,0.8616165286877756,-0.009490659644029932,-0.30811195684572745,0.40322917074261594
1728063259286421800,2.748421875,0.3907371163368225,0.2557199001312256,-0.04710732027888298,-0.5212116241455078,0.2609689235687256,-0.8125476241111755,-0.03881645202636719,0.05809229612350464,0.06819337606430054,0.8620488637209774,-0.007968851658269993,-0.30604359730312647,0.403912782199652
1728063259296451800,2.758451904296875,0.1457609087228775,0.2511187493801117,-0.017345696687698364,-0.5191799402236938,0.25855588912963867,-0.8146170973777771,-0.012817740440368652,-0.05450016260147095,0.0473746657371521,0.8625375455005311,-0.007267344887483969,-0.30436596945791317,0.4041502606551609
1728063259306482700,2.768482666015625,0.1418585181236267,0.20457038283348083,0.01252778060734272,-0.517243504524231,0.25769078731536865,-0.8161216974258423,-0.03477370738983154,-0.07974281907081604,-0.005182623863220215,0.8628803544791086,-0.007273358634181676,-0.3031274544499832,0.4043492156494762
1728063259316512800,2.7785126953125,0.2602754533290863,0.04158331826329231,-0.009240100160241127,-0.5163383483886719,0.25594180822372437,-0.8172444701194763,-0.005329132080078125,-0.010229557752609253,0.010313928127288818,0.8630626212256772,-0.006578754939674731,-0.3022159411334217,0.40465443152088304
1728063259326544000,2.7885439453125,0.2813529372215271,-0.05424707382917404,0.03773939236998558,-0.5162650346755981,0.25387248396873474,-0.8179358839988708,0.0068503618240356445,0.04237684607505798,0.01195138692855835,0.8630340067982808,-0.005467718960937788,-0.3016656581293103,0.40514197138059344
1728063259336574000,2.798573974609375,0.33667078614234924,-0.18152593076229095,-0.0341169536113739,-0.5172991156578064,0.2514026463031769,-0.8180453777313232,0.05741453170776367,0.06865039467811584,0.06581765413284302,0.862833314858757,-0.0038959736640083297,-0.30159928304698436,0.4056367181799747
1728063259346604800,2.808604736328125,0.36368340253829956,-0.16560997068881989,-0.06004389375448227,-0.5188787579536438,0.24823032319545746,-0.8180137872695923,0.0816534161567688,0.053405359387397766,0.037877678871154785,0.8626774120483124,-0.0019276318982642043,-0.30164449048863956,0.40594886994604534
1728063259356636000,2.818635986328125,0.3155219852924347,-0.11832287907600403,-0.0464460588991642,-0.5201996564865112,0.2451668381690979,-0.8180987238883972,0.02929389476776123,0.019100069999694824,0.03983944654464722,0.8625773805626568,-0.00008975798835226765,-0.30158023481665464,0.4062136179082939
1728063259366665700,2.828665771484375,0.318300724029541,-0.07500353455543518,0.03202957287430763,-0.5210403203964233,0.24258936941623688,-0.8183320760726929,-0.00537264347076416,0.008188784122467041,0.14757096767425537,0.8624378103241952,0.0014654304072639714,-0.30138315004322774,0.4066535394736632
1728063259376696800,2.83869677734375,0.23134079575538635,0.01333591341972351,0.10046535730361938,-0.5210786461830139,0.24053378403186798,-0.8189142346382141,-0.023400723934173584,-0.013757720589637756,0.1548212170600891,0.8622528679612327,0.00268736606440309,-0.30089142219614,0.4074030393902886
1728063259386727000,2.848726806640625,0.011263818480074406,-0.07074684649705887,0.11369966715574265,-0.5210314989089966,0.2403467893600464,-0.8189991116523743,0.013493657112121582,-0.018712937831878662,0.08192330598831177,0.8619792010539458,0.0029820518389131892,-0.30081813834275545,0.4080334561551119
1728063259396757800,2.8587578125,0.05417852848768234,-0.1315135359764099,0.05872110277414322,-0.5216524600982666,0.24052771925926208,-0.8185505867004395,0.03691130876541138,-0.0060459524393081665,0.04183244705200195,0.8616408935253898,0.0032072167997705078,-0.30118832789468597,0.40847309537581744
1728063259406787800,2.868787841796875,0.029009191319346428,-0.16417011618614197,0.019475169479846954,-0.5228430032730103,0.24045804142951965,-0.8178111910820007,0.04991215467453003,-0.018396928906440735,-0.09208571910858154,0.8613380814616862,0.0036026543984850456,-0.30179700990500596,0.40865918615808616
1728063259416819000,2.87881884765625,0.1399250626564026,-0.1562405526638031,0.03515931963920593,-0.5241292715072632,0.23988071084022522,-0.8171571493148804,0.045110106468200684,-0.0031864196062088013,-0.04430830478668213,0.8610370976520292,0.004274108155661185,-0.30232956261004584,0.40889325836059964
1728063259426848800,2.888848876953125,0.12852679193019867,-0.06938911229372025,0.07058708369731903,-0.5249509811401367,0.23903490602970123,-0.8168774247169495,0.034838736057281494,0.02465216815471649,0.014646649360656738,0.8607431504740207,0.005028526623985252,-0.30254915469658317,0.40934082297838914
1728063259436880000,2.8988798828125,0.06460294127464294,0.016675731167197227,0.07153943181037903,-0.5249882340431213,0.23862218856811523,-0.8169741630554199,0.012109816074371338,0.025400593876838684,0.04783964157104492,0.8605499677733311,0.005391816257956489,-0.3024629824730094,0.4098055881655715
1728063259446911000,2.908910888671875,-0.05189444497227669,0.026550892740488052,0.06733323633670807,-0.5245814919471741,0.2389664500951767,-0.8171347975730896,-0.007111012935638428,0.0025038421154022217,0.10073471069335938,0.8604457940529595,0.00524176438901004,-0.3023327825399667,0.4101225031238918
1728063259456942800,2.91894287109375,-0.10012882202863693,0.023028861731290817,0.06205271929502487,-0.5252913236618042,0.24015331268310547,-0.8163304328918457,0.004844546318054199,-0.04813675582408905,0.1320195198059082,0.860196916353248,0.004884146782584838,-0.3030031929863285,0.41015403225862446
1728063259466973700,2.9289736328125,-0.2602860927581787,-0.0052771843038499355,0.09794148057699203,-0.5251834988594055,0.24206648766994476,-0.8158345818519592,0.024863064289093018,-0.08746449649333954,0.12369590997695923,0.860022718424586,0.003996291774741141,-0.3034250139327098,0.4102171653669686
1728063259477003800,2.939003662109375,-0.22990046441555023,-0.031088808551430702,-0.012778908014297485,-0.5251723527908325,0.24452830851078033,-0.8151072263717651,0.035868823528289795,-0.07861955463886261,0.028181016445159912,0.8598912474319134,0.0027980762992552543,-0.30403707579589906,0.4100493195514437
1728063259487035000,2.949034912109375,-0.17570486664772034,0.012170355767011642,-0.07493975013494492,-0.5247838497161865,0.24560736119747162,-0.8150330781936646,0.021518468856811523,-0.041170164942741394,-0.09623706340789795,0.8600935822174337,0.002036069945956715,-0.30410410274837,0.40957979055382676
1728063259497064700,2.959064697265625,-0.1321970820426941,0.06888023763895035,-0.0034658340737223625,-0.524235188961029,0.24660071730613708,-0.8150862455368042,-0.026164591312408447,-0.0009647905826568604,-0.1105271577835083,0.860297343056567,0.001299528174489848,-0.30406445073532545,0.40918411108146957
1728063259507095800,2.969095703125,-0.06551991403102875,0.11689890176057816,0.039274170994758606,-0.5232985615730286,0.24766379594802856,-0.815365731716156,-0.030275046825408936,0.04231417179107666,-0.0799742341041565,0.8603893563686731,0.000565311581196128,-0.3038368335735874,0.40916134430193996
1728063259517126000,2.9791259765625,-0.02232450060546398,0.16158302128314972,0.003026153426617384,-0.5221613049507141,0.2483028620481491,-0.8159002661705017,-0.02228754758834839,0.03869965672492981,-0.08607727289199829,0.86052425046554,2.27416462275419e-8,-0.3033971940733636,0.4092043516401481
1728063259527156700,2.98915673828125,0.008968040347099304,0.20145480334758759,-0.024643557146191597,-0.521008312702179,0.24832841753959656,-0.8166292309761047,-0.036059558391571045,0.007454618811607361,-0.062063395977020264,0.8607801309241492,-0.00033346436352700055,-0.3027957674246173,0.40911128660336094
1728063259537187800,2.999187744140625,0.009297206997871399,0.20594781637191772,-0.011507248505949974,-0.5198690891265869,0.24797476828098297,-0.8174623250961304,-0.027585744857788086,-0.012348592281341553,0.002246260643005371,0.8610920350848414,-0.0005068894104560077,-0.3021068856980803,0.40896422350660494
1728063259547218000,3.009218017578125,0.012499324977397919,0.1638443022966385,-0.017951833084225655,-0.5188025236129761,0.24732230603694916,-0.8183371424674988,0.008502840995788574,-0.005729958415031433,0.05312412977218628,0.8614072257446214,-0.0005172327851548134,-0.30138209033321867,0.40883519076631314
1728063259557248800,3.019248779296875,-0.010450997389853,0.1602407842874527,-0.038953255861997604,-0.5175893306732178,0.2466692477464676,-0.8193018436431885,0.029308080673217773,0.009052738547325134,0.05553841590881348,0.8617704417091798,-0.0005796340703341928,-0.30058067732772403,0.4086593868407058
1728063259567278800,3.02927880859375,-0.009159764274954796,0.16933771967887878,-0.004642152227461338,-0.515975296497345,0.2462010532617569,-0.8204599022865295,0.022368788719177246,0.013595014810562134,0.054560303688049316,0.8621659104407379,-0.0008090783708996801,-0.2996154027477739,0.40853361686272693
1728063259577310000,3.03931005859375,-0.007675051223486662,0.1757761687040329,0.05627765506505966,-0.5143284797668457,0.2462199330329895,-0.8214876055717468,0.011551439762115479,0.010646462440490723,0.0444185733795166,0.8624105564663235,-0.0011881693078587673,-0.2987553728042854,0.4086462865497698
1728063259587339800,3.04933984375,-0.010273564606904984,0.14552409946918488,0.034755587577819824,-0.5128330588340759,0.24670358002185822,-0.8222770690917969,0.015869557857513428,0.007721424102783203,-0.003650665283203125,0.8625347075679776,-0.0017065355940404268,-0.2980915082580558,0.40886721078044674
1728063259597371000,3.059370849609375,-0.048075005412101746,0.1479683369398117,-0.011497661471366882,-0.5114951133728027,0.24709613621234894,-0.8229922652244568,0.012258052825927734,0.0008743852376937866,-0.04746061563491821,0.8627297707885883,-0.002210875092055582,-0.2974877753198016,0.4088930474944008
1728063259607401000,3.06940087890625,-0.0708552822470665,0.11112548410892487,-0.01557602547109127,-0.5105141401290894,0.24746349453926086,-0.8234907984733582,-0.0030051469802856445,0.0015141069889068604,-0.06318217515945435,0.8629582217201806,-0.0026847589232533585,-0.2970646275905931,0.40871549036939003
1728063259617431800,3.079431884765625,-0.07385959476232529,0.053782567381858826,-0.008950348012149334,-0.5101910829544067,0.24785561859607697,-0.8235730528831482,0.0028364062309265137,0.012062519788742065,-0.07115650177001953,0.8630727086208408,-0.003011716989087145,-0.29699224679795605,0.4085240534987082
1728063259627463000,3.089462890625,-0.05564064905047417,0.054761968553066254,-0.02562945894896984,-0.5101617574691772,0.24840208888053894,-0.8234266042709351,0.020903944969177246,0.005778759717941284,-0.03819143772125244,0.8631318523420735,-0.0033452417081920108,-0.29711193700458494,0.40830961630831747
1728063259637493000,3.099492919921875,-0.03368235006928444,0.06662102788686752,-0.04180257022380829,-0.5098820924758911,0.24889057874679565,-0.8234522938728333,0.014917492866516113,-0.00548243522644043,0.030147850513458252,0.8632307059374583,-0.0037066069287131206,-0.29708602621491176,0.40811625038444505
1728063259647523800,3.10952392578125,-0.04551171511411667,0.0948246493935585,-0.04730359837412834,-0.5094559788703918,0.24933373928070068,-0.8235819935798645,0.001582503318786621,-0.008153378963470459,0.055652916431427,0.8633844024440788,-0.004101155169757316,-0.29697170780717386,0.40787049963551875
1728063259657554000,3.119553955078125,-0.03208804875612259,0.09746037423610687,-0.037154022604227066,-0.5089758038520813,0.249677374958992,-0.8237747550010681,0.0005835294723510742,-0.0015390068292617798,0.08875888586044312,0.8635570950365139,-0.004463527740714664,-0.296804164282952,0.4076228959803564
1728063259667585000,3.1295849609375,-0.07885842025279999,0.09140259027481079,0.005816880147904158,-0.508045494556427,0.25010544061660767,-0.8242189884185791,0.007831931114196777,-0.0002428293228149414,0.0715944766998291,0.8637389605529174,-0.004929338683180482,-0.29642232898379417,0.40750997798589367
1728063259677614800,3.13961474609375,-0.050921857357025146,0.010993504896759987,-0.017239702865481377,-0.5071678757667542,0.25056034326553345,-0.8246212601661682,0.01855093240737915,-0.00002631545066833496,0.0004788041114807129,0.863884304586088,-0.005376588991270108,-0.2960750979770238,0.4074487167378752
1728063259687646000,3.14964599609375,-0.09188100695610046,0.024636825546622276,-0.07533176988363266,-0.506940484046936,0.2505344748497009,-0.8247689604759216,0.028928399085998535,-0.005478382110595703,-0.05509859323501587,0.8640713547983986,-0.005525426046896539,-0.29594762395686947,0.40714254908999137
1728063259697676000,3.159676025390625,-0.10490386933088303,0.04122272506356239,-0.02448589727282524,-0.5063145160675049,0.25111958384513855,-0.8249754309654236,0.003918945789337158,-0.015951216220855713,-0.05391550064086914,0.8642923072552658,-0.0060668723239893614,-0.29576251399733255,0.40680015012123394
1728063259707707000,3.169706787109375,-0.05395353212952614,0.05239148810505867,-0.013684915378689766,-0.5056127309799194,0.25163590908050537,-0.8252484798431396,-0.005114138126373291,0.012051135301589966,-0.033195674419403076,0.8644373433491037,-0.006525724451547592,-0.29552184498840794,0.4066598786887653
1728063259717738000,3.179738037109375,-0.03676548972725868,0.052552346140146255,-0.050025347620248795,-0.5053604245185852,0.25181639194488525,-0.8253480195999146,0.016743481159210205,0.01460200548171997,-0.01411426067352295,0.8645717739867055,-0.006747757213903928,-0.29543264536193314,0.4064353722219462
1728063259727768000,3.18976806640625,-0.027658479288220406,0.02236349694430828,-0.07583803683519363,-0.5056868195533752,0.2517784535884857,-0.8251596093177795,0.00789940357208252,0.01369386911392212,0.015955567359924316,0.864697044759316,-0.006781132940611618,-0.29559127082087777,0.4060526037671047
1728063259737799000,3.199798828125,-0.05283493921160698,0.03197937458753586,-0.07965487986803055,-0.5064334273338318,0.25193703174591064,-0.8246532082557678,0.011148393154144287,0.00204545259475708,0.04640918970108032,0.8647747949063532,-0.0068352737789155234,-0.2960180157918691,0.40557513023693054
1728063259747829000,3.2098291015625,-0.10463827848434448,0.06235554814338684,-0.0387553833425045,-0.5066176652908325,0.2525414228439331,-0.8243550658226013,0.007350146770477295,-0.0028924643993377686,0.030989646911621094,0.8648846626502671,-0.007213329828779869,-0.29626074185144274,0.40515667591571136
1728063259757859800,3.21985986328125,-0.09726744890213013,0.028859106823801994,-0.019510047510266304,-0.5060722827911377,0.2532670199871063,-0.8244674801826477,0.006285905838012695,0.007139444351196289,0.032566845417022705,0.865029408889804,-0.007764542226613813,-0.29615192534865,0.40491699285970656
1728063259767890000,3.229889892578125,-0.10602452605962753,0.012492811307311058,-0.04410247877240181,-0.5052478313446045,0.25367075204849243,-0.8248488903045654,0.012297451496124268,0.006033778190612793,0.015202343463897705,0.8652349268492867,-0.008222227676031323,-0.2958174090952792,0.4047132025395439
1728063259777921000,3.239921142578125,-0.15145458281040192,0.07009245455265045,-0.005095155909657478,-0.5045203566551208,0.2539063096046448,-0.8252216577529907,0.0025672316551208496,0.0010069608688354492,-0.006794333457946777,0.8654840961346028,-0.00861178506703415,-0.29549112458082666,0.404410781253305
1728063259787950800,3.249950927734375,-0.1434362828731537,0.037466924637556076,0.04108458757400513,-0.5036652684211731,0.25541818141937256,-0.8252773880958557,-0.006954789161682129,0.004530489444732666,0.014455854892730713,0.8655443842228631,-0.009552425807004026,-0.29541506056643413,0.40431600300436066
1728063259797982000,3.25998193359375,-0.07669001072645187,-0.0012668902054429054,-0.043115243315696716,-0.5031324625015259,0.2564714848995209,-0.825275719165802,0.013127028942108154,0.009397625923156738,-0.006328225135803223,0.8655704507699087,-0.010189216124575285,-0.29539516858531667,0.4042593365092192
1728063259808013000,3.270012939453125,-0.1127234399318695,0.02983717992901802,-0.0723588839173317,-0.5031946897506714,0.25724634528160095,-0.8249965906143188,0.016179978847503662,-0.007261693477630615,-0.04162627458572388,0.8656735399155294,-0.010667533407538518,-0.2956144425694728,0.4038658489497764
1728063259818043000,3.28004296875,-0.0941939651966095,0.038234394043684006,-0.0300228763371706,-0.5035285949707031,0.2581118643283844,-0.8245223760604858,-0.004970550537109375,0.005727797746658325,-0.0016647577285766602,0.8657351955255689,-0.011133368077399673,-0.29599806756337305,0.4034397220638177
1728063259828074000,3.290073974609375,-0.08398593962192535,0.021741969510912895,-0.02627953700721264,-0.5037615895271301,0.25867754220962524,-0.8242027163505554,0.012123405933380127,0.01530921459197998,0.04115217924118042,0.865778590965353,-0.011438822780729904,-0.2962562764590041,0.4031485499900361
1728063259838103800,3.300103759765625,-0.09505722671747208,0.030821751803159714,-0.059844423085451126,-0.504042387008667,0.2595186233520508,-0.8237665295600891,0.018248319625854492,0.0022458434104919434,0.02666264772415161,0.8658087952245762,-0.011875805450845704,-0.2966069801734211,0.4028129384945926
1728063259848134700,3.310134765625,-0.0924491286277771,0.06024371460080147,-0.05523102730512619,-0.5037163496017456,0.2602054476737976,-0.823749303817749,-0.0005866289138793945,-0.007535219192504883,0.025562047958374023,0.8659837648460987,-0.012405882780726647,-0.29659980172840533,0.40242588257307776
1728063259858164700,3.320164794921875,-0.1360860913991928,0.0554867759346962,0.0006873658858239651,-0.5030728578567505,0.26057788729667664,-0.8240247368812561,-0.011407673358917236,-0.002124607563018799,0.015568375587463379,0.8662020268307361,-0.01283637625867727,-0.2963492087135286,0.4021271005019924
1728063259868195800,3.33019580078125,-0.10762474685907364,0.011939246207475662,0.0031497240997850895,-0.5034732222557068,0.2618524134159088,-0.8233759999275208,0.0036563873291015625,0.0032994747161865234,0.001262962818145752,0.8661258187527541,-0.01341319358211688,-0.2968705084568407,0.4018880178859404
1728063259878226000,3.340225830078125,-0.030645016580820084,0.046558476984500885,-0.05801483243703842,-0.5027870535850525,0.2623128592967987,-0.8236486911773682,0.01270526647567749,0.011612862348556519,-0.057363271713256836,0.8662662320143187,-0.013837940733940698,-0.29662126734130734,0.4017550326106852
1728063259888256800,3.3502568359375,-0.054473645985126495,0.05420835316181183,-0.030904116109013557,-0.5018311738967896,0.26205217838287354,-0.824314296245575,-0.005813479423522949,0.01185828447341919,-0.08970242738723755,0.8665648958083176,-0.014025788853272962,-0.29605088341723523,0.4015250101180076
1728063259898287900,3.360287841796875,-0.043286506086587906,-0.012217541225254536,-0.016794422641396523,-0.5017949342727661,0.2623562812805176,-0.8242396712303162,-0.0013788938522338867,0.027316540479660034,-0.031045973300933838,0.866621784810911,-0.014233490499102015,-0.29610398634447305,0.40135589617732187
1728063259908317700,3.370317626953125,-0.06074339896440506,-0.052291885018348694,-0.05232525244355202,-0.5023708939552307,0.2631421983242035,-0.8236380815505981,0.03139311075210571,0.020854324102401733,0.010634541511535645,0.8665383021663383,-0.014526434426508007,-0.29659727710286804,0.4011614355811756
1728063259918348800,3.380348876953125,-0.05681470036506653,-0.049521397799253464,-0.08354895561933517,-0.5029358267784119,0.2634740471839905,-0.8231870532035828,0.026831090450286865,-0.008652329444885254,0.016683757305145264,0.8665826707418004,-0.014673966474420614,-0.29696993028557367,0.40078406476917766
1728063259928379000,3.39037890625,-0.03297707810997963,-0.043717462569475174,-0.07384732365608215,-0.5038642287254333,0.2632766664028168,-0.82268226146698,0.007862091064453125,-0.013536125421524048,0.042088449001312256,0.8666511075844389,-0.014517969462658691,-0.29740222593226057,0.4003208497787089
1728063259938409700,3.40040966796875,-0.021807247772812843,0.0072993808425962925,-0.016373110935091972,-0.5043674111366272,0.26325052976608276,-0.8223822712898254,-0.0009884238243103027,-0.0026762187480926514,0.060968756675720215,0.8666910469660839,-0.014478903428294472,-0.29765619585630343,0.40004718286257984
1728063259948439800,3.410439697265625,0.07644575834274292,0.0167451873421669,-0.0210469588637352,-0.5042738318443298,0.26300063729286194,-0.8225196599960327,-0.008162081241607666,0.019119083881378174,0.06427991390228271,0.8667363780989906,-0.014389492908220369,-0.2975451580396644,0.40003479301627987
1728063259958471000,3.420470947265625,-0.007743162102997303,0.04341088607907295,-0.006849380210042,-0.5034635663032532,0.26253843307495117,-0.8231633901596069,-0.011688411235809326,0.022236287593841553,0.018079161643981934,0.8668918207611304,-0.014346776573599482,-0.29700584586441714,0.40010027326843717
1728063259968500700,3.430500732421875,-0.0411933958530426,-0.013229437172412872,-0.009902960620820522,-0.5028012990951538,0.2626751959323883,-0.8235244750976562,-0.012045502662658691,0.01614859700202942,-0.01366424560546875,0.8670075281659514,-0.014577879151524774,-0.2966905022090275,0.4000750456646964
1728063259978531800,3.44053173828125,-0.03391604125499725,-0.03332751244306564,-0.031257785856723785,-0.5027844905853271,0.2631288766860962,-0.8233898878097534,0.014411687850952148,0.017159759998321533,-0.03143799304962158,0.8670053073705635,-0.014819872246227193,-0.2967918692286059,0.39999590716377426
1728063259988563000,3.45056298828125,-0.04976518079638481,-0.03886321559548378,-0.049902308732271194,-0.5028699040412903,0.26366838812828064,-0.8231651186943054,0.029069244861602783,-0.007168203592300415,-0.04284745454788208,0.8670148531004948,-0.015105379025984316,-0.2969667657380226,0.39983465470345425
1728063259998592800,3.4605927734375,-0.056223612278699875,-0.05467253923416138,-0.05770856887102127,-0.5032092928886414,0.2638072371482849,-0.8229132294654846,0.028752505779266357,-0.0074138641357421875,-0.02024167776107788,0.8670786912258368,-0.01518997277627165,-0.29717444363868334,0.39953880712354634
1728063260008623900,3.470623779296875,-0.06917855888605118,-0.040100254118442535,-0.04553978517651558,-0.5039669871330261,0.2640036642551422,-0.8223863840103149,0.017379462718963623,-0.0021781623363494873,0.02380239963531494,0.8670877402247077,-0.015219673244588516,-0.2976158107699648,0.3991892802787124
1728063260018654000,3.480654052734375,-0.07697229832410812,0.0004908493719995022,-0.025127187371253967,-0.5046454668045044,0.26458048820495605,-0.8217846751213074,0.0018683671951293945,0.0008766055107116699,0.03453803062438965,0.8670593980300061,-0.015433860618080036,-0.298109785049601,0.3988737448532416
1728063260028684800,3.490684814453125,-0.06848200410604477,0.0436236709356308,-0.016089217737317085,-0.5049355030059814,0.26551365852355957,-0.8213054537773132,-0.016472578048706055,0.005787551403045654,0.031006991863250732,0.8670214759202723,-0.015873509413591294,-0.29848835909129534,0.3986559300427096
1728063260038715000,3.50071484375,-0.03505907207727432,0.04173655807971954,-0.04219938442111015,-0.5048447251319885,0.2661069929599762,-0.8211691975593567,-0.0184859037399292,0.0018830597400665283,0.01964026689529419,0.8670764414378237,-0.016241933449047792,-0.2985826580823528,0.39845078915786547
1728063260048746000,3.51074609375,-0.05099169909954071,0.03749046474695206,-0.04770386964082718,-0.5046148896217346,0.2663363516330719,-0.8212361335754395,-0.007271707057952881,-0.005884140729904175,0.014412403106689453,0.8672097362012801,-0.016489062966636006,-0.29851304595479455,0.3982027077622017
1728063260058775800,3.52077587890625,-0.12678073346614838,0.0033545996993780136,-0.024748751893639565,-0.5037580132484436,0.26711803674697876,-0.8215082883834839,0.0042157769203186035,-0.008725762367248535,0.03137767314910889,0.8673640300503888,-0.01711440125149685,-0.2982498316211059,0.39803746732667394
1728063260068807000,3.530806884765625,-0.0918828696012497,-0.03691340982913971,-0.034197382628917694,-0.5028498768806458,0.2675475478172302,-0.8219247460365295,0.019863426685333252,0.0010528564453125,0.010172426700592041,0.8675659088214112,-0.01759226172220568,-0.29787267225290615,0.39785902569820253
1728063260078837800,3.540837646484375,0.004635676741600037,-0.03768998757004738,-0.06398643553256989,-0.5026940107345581,0.26739025115966797,-0.8220712542533875,0.018273234367370605,0.014607369899749756,-0.04340726137161255,0.8677135506331517,-0.017635113087103197,-0.29774715286892156,0.39762899367067533
1728063260088867800,3.550867919921875,0.019778011366724968,0.03692443668842316,-0.019115367904305458,-0.5028215050697327,0.2670481204986572,-0.8221044540405273,-0.006135344505310059,0.020915687084197998,-0.06914615631103516,0.8677931485289756,-0.017497909173519836,-0.29772736210157363,0.39747603888070754
1728063260098899000,3.56089892578125,0.018325790762901306,0.06989463418722153,0.019100461155176163,-0.5025981068611145,0.26706886291503906,-0.8222343921661377,-0.019633948802947998,0.026174485683441162,-0.036942243576049805,0.8678335962656496,-0.017562970747382476,-0.29761444087073596,0.3974696213334355
1728063260108929000,3.570928955078125,0.0028172037564218044,0.04225406423211098,0.0016817902214825153,-0.5027310252189636,0.26722803711891174,-0.822101354598999,-0.006164848804473877,0.011443167924880981,-0.0066797733306884766,0.8677868260441031,-0.017599150328247194,-0.29772399726401116,0.39748799397554263
1728063260118959900,3.5809599609375,-0.021664969623088837,0.019741030409932137,-0.07113063335418701,-0.5031474232673645,0.26718130707740784,-0.8218618035316467,0.010410666465759277,-0.0258026123046875,-0.04230445623397827,0.8678237905474987,-0.017557736700281906,-0.2979275699611813,0.3972564144480616
1728063260128990000,3.590989990234375,-0.05048922821879387,0.014921880327165127,-0.0623864084482193,-0.5034621953964233,0.2670592665672302,-0.8217086791992188,0.01910245418548584,-0.0266265869140625,-0.04837799072265625,0.8679705847263214,-0.017569277548112324,-0.2980553422877196,0.396839106464338
1728063260139020800,3.601020751953125,0.014400823041796684,-0.013871151953935623,-0.014142446219921112,-0.5038130283355713,0.26701074838638306,-0.8215094208717346,0.02645707130432129,0.008135676383972168,0.030600547790527344,0.8680151663876418,-0.017539878045610847,-0.2982241664171895,0.3966160752728179
1728063260149051000,3.61105078125,0.027777813374996185,0.07062631100416183,0.0012927022762596607,-0.5034136772155762,0.2669186294078827,-0.8217841386795044,0.03483152389526367,0.032260388135910034,0.060706257820129395,0.8680716828936945,-0.017574865787513147,-0.2979917222345254,0.39666563442816427
1728063260159082000,3.62108203125,0.06883230805397034,0.1321043223142624,-0.01196744292974472,-0.5020665526390076,0.26659253239631653,-0.8227135539054871,0.007864892482757568,0.030923306941986084,0.04410332441329956,0.8682863365983579,-0.017703227273888556,-0.29720332305635855,0.3967815394602166
1728063260169112000,3.631112060546875,0.05271086096763611,0.17874851822853088,0.00529064005240798,-0.5003758072853088,0.26608845591545105,-0.8239059448242188,-0.022466599941253662,0.010980576276779175,0.03072357177734375,0.8685755708028041,-0.01782926514771512,-0.29619107727931204,0.39689972468840484
1728063260179143000,3.641142822265625,0.02034493163228035,0.15133100748062134,-0.023135941475629807,-0.4989915192127228,0.2659994661808014,-0.8247737288475037,-0.018891751766204834,-0.021828383207321167,-0.00000959634780883789,0.8688045149354213,-0.018100410354070017,-0.2954411909128671,0.39694535573288836
1728063260189174000,3.651174072265625,-0.0030499398708343506,0.1265440583229065,-0.07685882598161697,-0.4980398118495941,0.2658427655696869,-0.8253992795944214,0.0015493333339691162,-0.037647634744644165,-0.04374134540557861,0.8690870058203614,-0.01832898567597646,-0.29489728059518877,0.39672085467360524
1728063260199204000,3.6612041015625,-0.05565989017486572,0.09701281040906906,-0.03808746114373207,-0.4970417618751526,0.26532673835754395,-0.826166570186615,-0.004423081874847412,-0.02376490831375122,-0.07068401575088501,0.8694544515184367,-0.018433487655386924,-0.2942395602653779,0.3963990832062449
1728063260209235000,3.67123486328125,-0.09246977418661118,0.04652673006057739,-0.019749732688069344,-0.4962339401245117,0.26552125811576843,-0.8265895843505859,-0.011776924133300781,0.003109663724899292,-0.06882667541503906,0.8696760582926987,-0.018788964112537367,-0.29385742972475193,0.39617958514825946
1728063260219265000,3.68126513671875,-0.1262005716562271,0.04241640865802765,-0.03217417746782303,-0.49593639373779297,0.26650270819664,-0.8264522552490234,-0.0052232444286346436,0.02468070387840271,-0.05249971151351929,0.8697623866673718,-0.019409847379764294,-0.29393386659558207,0.39590332080307505
1728063260229295900,3.6912958984375,-0.11509265005588531,-0.014492040500044823,-0.008860865607857704,-0.49585840106010437,0.268072247505188,-0.8259913325309753,-0.02410009503364563,0.029077351093292236,0.026003539562225342,0.8697309739577755,-0.020234931359778385,-0.29427006129426436,0.39568135146463307
1728063260239325700,3.70132568359375,-0.06941011548042297,-0.0401633158326149,-0.04951108992099762,-0.4963056445121765,0.26901188492774963,-0.8254170417785645,-0.015336781740188599,0.02470448613166809,0.11817216873168945,0.8696683786196995,-0.020644065591086898,-0.2947291831100847,0.3954560975144742
1728063260249357000,3.711357177734375,-0.018999343737959862,-0.02753359265625477,-0.10398285835981369,-0.49702367186546326,0.26905837655067444,-0.8249697089195251,-0.005585581064224243,0.025726109743118286,0.10130637884140015,0.8697318833608009,-0.02064020208254095,-0.2951086555239701,0.3950333226174727
1728063260259388000,3.721387939453125,0.07044291496276855,-0.05335107818245888,-0.1220175176858902,-0.49775880575180054,0.2681495249271393,-0.8248223662376404,-0.03779417276382446,0.04192426800727844,0.08574765920639038,0.8699081314696251,-0.020206882111044832,-0.29526342662134286,0.3945515045690569
1728063260269417700,3.731417724609375,0.1740942746400833,-0.054039932787418365,-0.1549011617898941,-0.4985084533691406,0.26616427302360535,-0.8250126242637634,-0.06086346507072449,0.05042499303817749,0.0496220588684082,0.8701573662136027,-0.01925001310785148,-0.29516624404291314,0.3941222992616232
1728063260279449000,3.741448974609375,0.1846771538257599,-0.023416774347424507,-0.15485773980617523,-0.499125212430954,0.2635270357131958,-0.8254862427711487,-0.09023025631904602,0.03836807608604431,-0.03028768301010132,0.8704853096131361,-0.018017975271407072,-0.29484271747310753,0.3936984783120221
1728063260289478700,3.751478759765625,0.05054691061377525,-0.09913577139377594,-0.10531629621982574,-0.4997498691082001,0.2617989778518677,-0.8256581425666809,-0.11211228370666504,0.02230435609817505,-0.013804137706756592,0.8706990197797014,-0.01718786783827988,-0.29474653367089043,0.39333464157533465
1728063260299509800,3.761509765625,-0.08111391216516495,-0.16060392558574677,-0.12718617916107178,-0.5009860396385193,0.26151496171951294,-0.824998676776886,-0.08711814880371094,0.011128991842269897,0.007448077201843262,0.8707227483803358,-0.016925110253936178,-0.29532049127970356,0.39286270150829217
1728063260309539800,3.771539794921875,-0.1928737312555313,-0.19245293736457825,-0.20020924508571625,-0.5030151605606079,0.26210102438926697,-0.823576807975769,-0.05043637752532959,0.00028905272483825684,0.021483302116394043,0.8707158544240005,-0.017025637317558837,-0.29651597413143815,0.39197222679567356
1728063260319570700,3.78157080078125,-0.14855366945266724,-0.19336800277233124,-0.26304760575294495,-0.505673348903656,0.26281824707984924,-0.8217183351516724,-0.056063711643218994,-0.004303872585296631,0.027208447456359863,0.8707573625298013,-0.017175004235894225,-0.2980701936818967,0.3906927327679624
1728063260329600800,3.791600830078125,-0.04514472931623459,-0.10779877007007599,-0.2816716432571411,-0.5078748464584351,0.2626626491546631,-0.82040935754776,-0.07513296604156494,0.022981852293014526,-0.030268192291259766,0.8709840118529754,-0.017048412507035135,-0.29917333438211824,0.3893476108477959
1728063260339631900,3.8016318359375,0.09025144577026367,-0.0920134112238884,-0.3097229599952698,-0.5098124742507935,0.26136916875839233,-0.8196202516555786,-0.08540236949920654,0.06095743179321289,-0.0011194944381713867,0.8713141595177647,-0.01641903785584823,-0.2998671088294708,0.38810007893082143
1728063260349662700,3.811662841796875,0.13922910392284393,-0.10221225768327713,-0.34062495827674866,-0.511823832988739,0.259095698595047,-0.8190883994102478,-0.08093434572219849,0.08073273301124573,0.008007466793060303,0.8717108042039371,-0.015309735680668868,-0.30036878370732056,0.38686504741378613
1728063260359692800,3.82169287109375,0.09738019853830338,-0.12130366265773773,-0.336226224899292,-0.5138925909996033,0.2565475106239319,-0.8185949921607971,-0.07936912775039673,0.06815949082374573,-0.02143186330795288,0.8721588486954626,-0.014091763957970415,-0.3008387057037817,0.3855338190980774
1728063260369724000,3.831723876953125,0.039607975631952286,-0.1603514552116394,-0.3201764225959778,-0.516506016254425,0.25434014201164246,-0.8176383972167969,-0.07153713703155518,0.03127381205558777,0.009807586669921875,0.8724933404250366,-0.01292451408904481,-0.3016848539882983,0.3841542443484261
1728063260379753700,3.841753662109375,-0.014045133255422115,-0.1720680296421051,-0.36548715829849243,-0.5194080471992493,0.2525709867477417,-0.8163474202156067,-0.06959640979766846,-0.009544342756271362,-0.0010200738906860352,0.8727986495077588,-0.011951995587547608,-0.3027927192050392,0.38261754206366216
1728063260389784800,3.851784912109375,-0.09073857963085175,-0.1659528911113739,-0.39041781425476074,-0.5221038460731506,0.2510630190372467,-0.8150919675827026,-0.08016055822372437,-0.02683517336845398,-0.020799756050109863,0.8732142007586767,-0.011234233206914324,-0.3038549087448874,0.3808449711560698
1728063260399815000,3.86181494140625,-0.1795147806406021,-0.23086877167224884,-0.3890518844127655,-0.524696946144104,0.2501330077648163,-0.8137115836143494,-0.089530348777771,-0.01383545994758606,0.032858312129974365,0.8736447553446909,-0.010859091874665779,-0.3050020886020209,0.3789466563598342
1728063260409845800,3.871845703125,-0.18656504154205322,-0.2677801847457886,-0.40057137608528137,-0.5277112722396851,0.24960245192050934,-0.8119232654571533,-0.07430899143218994,0.017716214060783386,-0.0024688243865966797,0.8739969526066839,-0.010613776627269571,-0.3064730276898221,0.3769493828341066
1728063260419875800,3.881875732421875,-0.1455523520708084,-0.3014920651912689,-0.4358753263950348,-0.5310365557670593,0.24876372516155243,-0.8100103735923767,-0.061096012592315674,0.055023446679115295,-0.02244812250137329,0.8743380758606465,-0.010180274031296678,-0.30804411274244897,0.37488416366555355
1728063260429907000,3.891906982421875,-0.04843200370669365,-0.3342573046684265,-0.4732373356819153,-0.5347781777381897,0.2471121847629547,-0.8080518841743469,-0.0609402060508728,0.07899859547615051,-0.005027949810028076,0.8746909804436068,-0.009296657752632605,-0.3096572654866144,0.37274884904128686
1728063260439937800,3.901937744140625,0.00912210438400507,-0.3340575695037842,-0.4636417031288147,-0.5386282801628113,0.24472318589687347,-0.8062196373939514,-0.06487208604812622,0.09095485508441925,0.012228548526763916,0.8750555885465514,-0.0080274904543415,-0.3111683442092569,0.37065818978138254
1728063260449967900,3.9119677734375,0.011120007373392582,-0.36289939284324646,-0.4787372946739197,-0.5426114201545715,0.24204042553901672,-0.8043563961982727,-0.06610745191574097,0.075357586145401,0.0841873288154602,0.875374312071708,-0.006565162017648933,-0.31269583669633105,0.36864335243381025
1728063260459998000,3.921998046875,-0.013051108457148075,-0.361293762922287,-0.5401684045791626,-0.5467717051506042,0.23926392197608948,-0.8023674488067627,-0.07085829973220825,0.027902156114578247,0.0874931812286377,0.875740180535329,-0.0050963921840849365,-0.31430926443554785,0.36641887222761077
1728063260470028000,3.932028076171875,-0.1515711098909378,-0.3355569839477539,-0.5808426141738892,-0.5508875846862793,0.23675908148288727,-0.8002924919128418,-0.1039586067199707,-0.021228745579719543,0.0542140007019043,0.8762203419105811,-0.00389641130404842,-0.31597244384180884,0.3638463667218333
1728063260480059000,3.942058837890625,-0.21731150150299072,-0.3540598154067993,-0.6008483171463013,-0.555051326751709,0.23509781062602997,-0.7979015707969666,-0.13702625036239624,-0.033666595816612244,0.010761678218841553,0.876750059046042,-0.003223436778730359,-0.3178660364157735,0.36091543296382855
1728063260490089000,3.9520888671875,-0.17267784476280212,-0.32444554567337036,-0.6286998987197876,-0.559215784072876,0.2331705093383789,-0.7955558896064758,-0.15286612510681152,0.012282326817512512,-0.06957167387008667,0.8773172807741347,-0.002462409288308791,-0.31971236283838106,0.3578996366839455
1728063260500119800,3.962119873046875,-0.20135769248008728,-0.3396311402320862,-0.6607121825218201,-0.5633317232131958,0.23100797832012177,-0.7932796478271484,-0.1388167142868042,0.05135585367679596,-0.06371498107910156,0.8779414130903452,-0.001651051285312826,-0.3214925268150983,0.3547655146880728
1728063260510150000,3.97214990234375,-0.17620381712913513,-0.4119722843170166,-0.6822819113731384,-0.5678349137306213,0.22874343395233154,-0.7907211184501648,-0.11316484212875366,0.08281047642230988,-0.042820751667022705,0.8785234074193911,-0.0007587143068692173,-0.32347930920447454,0.3515067681133844
1728063260520181000,3.982180908203125,-0.15031123161315918,-0.482961505651474,-0.7199874520301819,-0.5730139017105103,0.226047083735466,-0.7877548933029175,-0.08189332485198975,0.08686484396457672,-0.01980125904083252,0.8790172206436757,0.0004439381662981734,-0.3257642666848719,0.34814674480427754
1728063260530211000,3.992211181640625,-0.0826888456940651,-0.45593270659446716,-0.77840656042099,-0.5784580707550049,0.2226608544588089,-0.7847346067428589,-0.06585955619812012,0.050288304686546326,0.022939562797546387,0.8795392978388935,0.001973263757934932,-0.3280682993211948,0.3446416307226856
1728063260540242000,4.002241943359375,0.015360758639872074,-0.3588778078556061,-0.832650363445282,-0.5834803581237793,0.21816079318523407,-0.7822765111923218,-0.0992131233215332,0.02350786328315735,0.04915273189544678,0.8802503794608794,0.0038966189686896746,-0.3299190093996394,0.34102428183513117
1728063260550273000,4.01227294921875,-0.04625120386481285,-0.2765282690525055,-0.8311461806297302,-0.5877462029457092,0.21332481503486633,-0.7804146409034729,-0.14136451482772827,0.013634353876113892,0.0464363694190979,0.8811554141944915,0.005771444765537418,-0.3312995269612888,0.3373018713866897
1728063260560302800,4.022302734375,-0.15150226652622223,-0.26418212056159973,-0.7878216505050659,-0.5915364623069763,0.20929886400699615,-0.7786388993263245,-0.15437418222427368,0.02570168673992157,0.05344969034194946,0.882078244830096,0.007134991864510098,-0.33261033473022095,0.3335526316541798
1728063260570334000,4.032333984375,-0.12892670929431915,-0.34231629967689514,-0.8259623646736145,-0.5955578684806824,0.20570991933345795,-0.7765270471572876,-0.14313536882400513,0.03820177912712097,0.016944527626037598,0.8829138723715365,0.008304689766118927,-0.3341668696954561,0.3297373014385332
1728063260580363800,4.04236376953125,-0.10643844306468964,-0.384885311126709,-0.9232103824615479,-0.6002345681190491,0.2013195902109146,-0.7740728855133057,-0.13732945919036865,0.03143790364265442,-0.09738701581954956,0.8837357059725344,0.009893985167988206,-0.33595486894807347,0.325649291921476
1728063260590395000,4.052394775390625,-0.1298939734697342,-0.3538118600845337,-0.9696870446205139,-0.6050017476081848,0.19646209478378296,-0.7716057896614075,-0.1361633539199829,0.030100330710411072,-0.13353031873703003,0.8846590323578765,0.01159149864521781,-0.3377317778564208,0.32121814208521793
