time,seconds_elapsed,rotationRateX,rotationRateY,rotationRateZ,gravityX,gravityY,gravityZ,accelerationX,accelerationY,accelerationZ,quaternionW,quaternionX,quaternionY,quaternionZ
1728331175923334100,0.116334228515625,0.08772668242454529,-0.05717970430850983,0.03427300974726677,0.12444376200437546,-0.19361014664173126,-0.9731540679931641,0.0006630048155784607,0.013205543160438538,-0.014959335327148438,0.993265732436962,0.09746140640296136,0.06264374140642275,-8.132993638215303e-18
1728331175933365000,0.126364990234375,0.07947860658168793,-0.057273708283901215,0.020776908844709396,0.12428651005029678,-0.1939287930727005,-0.9731107354164124,-0.010135546326637268,0.002827763557434082,-0.024585187435150146,0.9932548146184984,0.09762072601011001,0.06256862957160986,0.000034203124266305665
1728331175943396400,0.136396240234375,0.07931781560182571,-0.04220229759812355,0.022095706313848495,0.12355837225914001,-0.19466517865657806,-0.973056435585022,0.0017162486910820007,0.0028927773237228394,-0.023403525352478027,0.9932412583166998,0.09798884069229612,0.06220913839750216,0.00009693045442191379
1728331175953427200,0.14642724609375,0.10150114446878433,-0.026221733540296555,0.024746084585785866,0.12286299467086792,-0.19527572393417358,-0.9730221033096313,0.017792485654354095,0.0005278587341308594,-0.023254752159118652,0.9932325283913295,0.09829198006646109,0.06186777572298312,0.0001789393006142491
1728331175963458300,0.156458251953125,0.1122601255774498,-0.03335575759410858,-0.006811575964093208,0.12231336534023285,-0.19575069844722748,-0.972995936870575,0.017487622797489166,-0.007236912846565247,-0.02994900941848755,0.9932259245928308,0.09853104221894851,0.06159273462836713,0.00019099976355503562
1728331175973489400,0.166489501953125,0.12671948969364166,-0.037532392889261246,-0.05291834846138954,0.12170764058828354,-0.19621270895004272,-0.9729788303375244,-0.0015142038464546204,-0.014465346932411194,-0.034269094467163086,0.9932216406903095,0.09877723180746964,0.06126696139066196,-0.00002175668936248336
1728331175983520300,0.176520263671875,0.19273199141025543,-0.09132712334394455,-0.028293166309595108,0.12117131054401398,-0.19721102714538574,-0.9728439450263977,-0.01689279079437256,-0.014031589031219482,-0.037944018840789795,0.9931876356846834,0.09930292581782449,0.060966905872867266,-0.00034319134171000194
1728331175993551400,0.18655126953125,0.1939471811056137,-0.09476686269044876,-0.03298219293355942,0.12050727754831314,-0.19870834052562714,-0.9726216793060303,-0.012093618512153625,-0.005789905786514282,-0.05440163612365723,0.9931315396183925,0.10007716800401996,0.06061112848721245,-0.0005877061608946633
1728331176003582200,0.196582275390625,0.15208908915519714,-0.09690256416797638,-0.08151857554912567,0.11972373723983765,-0.2000022828578949,-0.972453236579895,0.0000882372260093689,-0.006738990545272827,-0.06296241283416748,0.9930888891782623,0.10075706597291566,0.06017800821560209,-0.0009900695543117945
1728331176013613300,0.20661328125,0.12872278690338135,-0.10320545732975006,-0.0973433405160904,0.11883660405874252,-0.20108771324157715,-0.9723381996154785,-0.019227266311645508,-0.020301997661590576,-0.047864437103271484,0.993059257888863,0.1013391647320326,0.0596763795861303,-0.0015405731230690265
1728331176023644200,0.21664404296875,0.10061072558164597,-0.11345453560352325,-0.09393343329429626,0.11802325397729874,-0.20193634927272797,-0.972261369228363,-0.01990927755832672,-0.015455558896064758,-0.027402937412261963,0.9930388412725949,0.10180259187526473,0.05920756107715434,-0.0021238979069725683
1728331176033675300,0.22667529296875,0.08384399861097336,-0.11680959165096283,-0.08107089251279831,0.11727391183376312,-0.20258669555187225,-0.972216784954071,0.008565284311771393,-0.018085867166519165,-0.022290050983428955,0.9930263590195331,0.10216121428912914,0.05877668399595445,-0.002644459451577347
1728331176043707100,0.23670703125,0.06901217997074127,-0.10190371423959732,-0.08077394962310791,0.11655882745981216,-0.20315556228160858,-0.9721840620040894,0.011721774935722351,-0.03428639471530914,-0.011168599128723145,0.9930167278058529,0.10247644798210032,0.05836561456495501,-0.003136147447252458
1728331176053738200,0.24673828125,0.04878067970275879,-0.0857580304145813,-0.07707908004522324,0.11582662165164948,-0.20363526046276093,-0.9721711874008179,-0.00748925656080246,-0.0402611643075943,-0.012554764747619629,0.9930118962146098,0.10274403481731388,0.05794873623861142,-0.003596590551456606
1728331176063769000,0.25676904296875,0.018542684614658356,-0.07566305249929428,-0.06484611332416534,0.11503387242555618,-0.20386530458927155,-0.9722171425819397,-0.027799420058727264,-0.035239845514297485,-0.017025411128997803,0.9930218850722374,0.10288012916736554,0.05750754258172872,-0.003991899706174558
1728331176073800400,0.266800537109375,0.002960528712719679,-0.06520215421915054,-0.0748838409781456,0.11439305543899536,-0.2037530243396759,-0.9723162651062012,-0.033826686441898346,-0.03667965531349182,-0.008320331573486328,0.9930453142775066,0.10284158584014558,0.057144310580529885,-0.004372158425329337
1728331176083831300,0.276831298828125,0.06356015801429749,-0.10758551210165024,-0.06906243413686752,0.11371760815382004,-0.2038373202085495,-0.9723778367042542,-0.021112047135829926,-0.03967764973640442,0.0012779831886291504,0.9930587788486278,0.10290527785832812,0.05675903417552565,-0.004798054618743874
1728331176093862400,0.2868623046875,0.11874298751354218,-0.163034126162529,-0.007228893227875233,0.11230698227882385,-0.20477917790412903,-0.9723438620567322,-0.009905293583869934,-0.040460020303726196,-0.005485117435455322,0.9930487922225097,0.1033936824803003,0.05601611847043909,-0.005094630202020048
1728331176103893200,0.296893310546875,0.21825720369815826,-0.22464768588542938,0.09585940837860107,0.11012906581163406,-0.20652130246162415,-0.9722245335578918,-0.006491400301456451,-0.03108850121498108,-0.040943801403045654,0.993019184832318,0.10426304053853538,0.054926813090954776,-0.004998434621269541
1728331176113924400,0.30692431640625,0.2396458387374878,-0.19676333665847778,0.128774493932724,0.107919842004776,-0.2090679556131363,-0.9719279408454895,-0.010996051132678986,-0.009376809000968933,-0.052562415599823,0.9929465357419884,0.10552534929270617,0.05385571661655927,-0.004587288495526026
1728331176123955200,0.316955078125,0.19681668281555176,-0.19233357906341553,0.1074601337313652,0.1059689074754715,-0.2115437239408493,-0.9716068506240845,-0.03712128847837448,-0.0036356747150421143,-0.05163228511810303,0.9928675911130164,0.10675297909836566,0.05291865941563586,-0.004151935103117326
1728331176133986300,0.326986328125,0.19827662408351898,-0.21557898819446564,0.08457080274820328,0.10380010306835175,-0.21385464072227478,-0.9713349938392639,-0.06954415887594223,0.0030392706394195557,-0.041543424129486084,0.9928003691880383,0.10790306616557728,0.05185960870839355,-0.003835057213154643
1728331176144017200,0.33701708984375,0.15208828449249268,-0.20916055142879486,0.07590433955192566,0.10131845623254776,-0.21594226360321045,-0.971135139465332,-0.04875197261571884,0.0053405314683914185,-0.008479058742523193,0.9927509973598574,0.1089420156776246,0.050636532473654794,-0.003577672696130235
1728331176154048300,0.34704833984375,0.02811787836253643,-0.19500930607318878,0.023464569821953773,0.09899958223104477,-0.21714119613170624,-0.971107006072998,-0.0035253912210464478,-0.001944422721862793,-0.009636402130126953,0.9927444227934907,0.10953614571042074,0.049480703018406326,-0.0034518367897362094
1728331176164079000,0.3570791015625,-0.07947542518377304,-0.17664282023906708,-0.008708545006811619,0.09707257896661758,-0.21728384494781494,-0.9712696075439453,0.008121483027935028,-0.005463898181915283,0.010530471801757812,0.9927852589316911,0.10960216408678289,0.04850323248828643,-0.003494401322822502
1728331176174110200,0.367110107421875,-0.1825898289680481,-0.16621041297912598,-0.0887083113193512,0.09553996473550797,-0.216526597738266,-0.9715906381607056,-0.01454634964466095,-0.029322952032089233,0.034624695777893066,0.992865135258282,0.10922199723266605,0.047699494447342186,-0.0037612976617029305
1728331176184141000,0.37714111328125,-0.3205080032348633,-0.1524685025215149,-0.2425098419189453,0.09449012577533722,-0.21424347162246704,-0.9721992015838623,-0.034950368106365204,-0.05212916433811188,0.034531354904174805,0.9930146786672405,0.10809407227038291,0.0470750043476307,-0.004615346233897875
1728331176194172200,0.387172119140625,-0.4256027340888977,-0.1512637585401535,-0.31704428791999817,0.09355989843606949,-0.21012598276138306,-0.9731873273849487,-0.03337927907705307,-0.06651578843593597,0.037320077419281006,0.9932557789541089,0.10605844210873354,0.04645359143153602,-0.006031119629402017
1728331176204203000,0.397203125,-0.4482724070549011,-0.22802382707595825,-0.2702658474445343,0.09178416430950165,-0.20551243424415588,-0.9743409752845764,0.0077641308307647705,-0.07003071904182434,0.035955965518951416,0.9935362718269634,0.10376670520722536,0.045409178157276416,-0.007482318325938728
1728331176214234000,0.407234130859375,-0.4565737545490265,-0.24414582550525665,-0.3292785882949829,0.09009236842393875,-0.20083099603652954,-0.9754743576049805,0.048594728112220764,-0.049397826194763184,0.01626110076904297,0.9938092278323583,0.10144167066985077,0.04441166200854605,-0.008965409687319816
1728331176224265200,0.41726513671875,-0.4311773478984833,-0.2875218987464905,-0.3465936481952667,0.08824668824672699,-0.196187824010849,-0.9765873551368713,0.05227147042751312,-0.00849352777004242,0.011987745761871338,0.9940713647654936,0.09914773056185167,0.043313398887311276,-0.010759029610661292
1728331176234296300,0.42729638671875,-0.4280678331851959,-0.30642420053482056,-0.27982714772224426,0.08592944592237473,-0.19174295663833618,-0.9776762127876282,0.03786507248878479,-0.005644693970680237,-0.00015276670455932617,0.9943268670111723,0.09693944002800295,0.04200764502260078,-0.01233134051939849
1728331176244327400,0.437327392578125,-0.4775582253932953,-0.24386915564537048,-0.5093146562576294,0.08389721810817719,-0.187026247382164,-0.9787657856941223,0.05759749561548233,-0.011841490864753723,0.011419594287872314,0.994575777987076,0.09460609498335305,0.04082649757391673,-0.014201652689661688
1728331176254359300,0.447359375,-0.6003930568695068,-0.30003949999809265,-0.5938617587089539,0.08207950741052628,-0.1813582479953766,-0.979985773563385,0.04130302369594574,-0.05455784499645233,0.03484112024307251,0.9948368522579842,0.0918317383264354,0.03967416958611217,-0.017101149331028596
1728331176264390100,0.45739013671875,-0.8828480839729309,-0.4726641774177551,-0.5593016147613525,0.07972893118858337,-0.1735180914402008,-0.9815980792045593,0.05474673956632614,-0.11256889998912811,0.056717097759246826,0.9951928025037897,0.08793848616313264,0.038311753613951574,-0.01975110619874914
1728331176274421200,0.467421142578125,-1.1432501077651978,-0.7077720761299133,-0.6694518327713013,0.07511349767446518,-0.16320189833641052,-0.9837291836738586,0.20804381370544434,-0.1683562695980072,0.09539300203323364,0.9956573846549249,0.08278532601989073,0.03580503475612107,-0.023037896889335278
1728331176284452000,0.4774521484375,-1.3946725130081177,-0.8548097014427185,-0.2445620745420456,0.06793263554573059,-0.15022073686122894,-0.9863157868385315,0.22006171941757202,-0.18071183562278748,0.0796995759010315,0.996246255035045,0.07621667082394204,0.03214206719233657,-0.025518067261057674
1728331176294483200,0.487483154296875,-1.4552958011627197,-0.7784446477890015,0.10126455873250961,0.05980733782052994,-0.1359662264585495,-0.9889066219329834,0.19786781072616577,-0.07655812799930573,0.0771024227142334,0.9968868179017025,0.06892770193232818,0.028207667708801024,-0.02587952121963184
1728331176304514000,0.49751416015625,-1.2112271785736084,-0.6164112091064453,0.2006521373987198,0.052699215710163116,-0.12269563227891922,-0.9910441637039185,0.0669754296541214,-0.0074770525097846985,0.020356297492980957,0.9974423416867907,0.06213088253143847,0.024852813226104702,-0.02511408237084238
1728331176314545200,0.507545166015625,-0.9932141304016113,-0.5701739192008972,0.21541909873485565,0.04664790630340576,-0.11197344213724136,-0.9926156997680664,-0.10318174958229065,0.031101897358894348,-0.041258811950683594,0.997861006181362,0.056638390846086906,0.022005555739455923,-0.02410851057564283
1728331176324576300,0.517576171875,-0.7799340486526489,-0.4657345116138458,0.31593450903892517,0.04126549884676933,-0.10324971377849579,-0.993799090385437,-0.13004116714000702,0.05194970965385437,-0.05014622211456299,0.9981875646492021,0.05216399624867585,0.01947733932721941,-0.02282632280050054
1728331176334607000,0.527607177734375,-0.6739604473114014,-0.37062662839889526,0.5382733345031738,0.036654282361269,-0.09636994451284409,-0.9946704506874084,-0.04927333444356918,0.07107091695070267,-0.0027355551719665527,0.9984498273458108,0.0486211988890369,0.01734232635976583,-0.020807760278627237
1728331176344638200,0.53763818359375,-0.5957479476928711,-0.4712277948856354,0.6008232831954956,0.03173842281103134,-0.09025948494672775,-0.9954124093055725,0.04521162062883377,0.05116650462150574,0.01778179407119751,0.9986906345472278,0.0454601905035587,0.01507176964011104,-0.01797563933486646
1728331176354669300,0.54766943359375,-0.742055356502533,-0.44710513949394226,0.5716509819030762,0.02689037099480629,-0.08395491540431976,-0.9961066842079163,0.12894761562347412,-0.04038891941308975,0.07089000940322876,0.9989129304026462,0.042216265792533174,0.012824057234434498,-0.015043235496470629
1728331176364700400,0.557700439453125,-1.0274664163589478,-0.4991699755191803,0.5379154086112976,0.021607715636491776,-0.07525327801704407,-0.9969303011894226,0.09812797605991364,-0.12028806656599045,0.08985632658004761,0.999156362194219,0.03778592592793748,0.010347323537180729,-0.012313144979494234
1728331176374731300,0.567731201171875,-1.304585337638855,-0.49780163168907166,0.5340205430984497,0.016281668096780777,-0.0637185201048851,-0.997835099697113,0.09165897965431213,-0.17044281959533691,0.14315980672836304,0.9994118357807187,0.031953826924274883,0.007836473246377222,-0.009669270690968654
1728331176384762400,0.577762451171875,-1.5631017684936523,-0.5285308361053467,0.5612524151802063,0.010818736627697945,-0.04940930753946304,-0.9987199902534485,0.06312532722949982,-0.19001631438732147,0.13359248638153076,0.9996557504191851,0.024749607720147927,0.005239055134215809,-0.006954329749015068
1728331176394793200,0.587793212890625,-1.7821656465530396,-0.46262475848197937,0.6486688256263733,0.0054908618330955505,-0.03278135508298874,-0.9994474649429321,0.05378950759768486,-0.17006894946098328,0.12572920322418213,0.9998538435361136,0.016403800100782753,0.002680185599636678,-0.004001336037188902
1728331176404824300,0.59782421875,-1.968887209892273,-0.5936112403869629,0.6222268342971802,0.00037641439121216536,-0.013858281075954437,-0.9999039173126221,0.06577041000127792,-0.12229586392641068,0.10073399543762207,0.9999756952540091,0.006929451584396952,0.00018280140607844795,-0.0007807600229030123
1728331176414855200,0.607855224609375,-2.0214273929595947,-0.765458345413208,0.6446272134780884,-0.006630880758166313,0.0061482577584683895,-0.9999591112136841,0.17559142410755157,-0.11210525780916214,0.08722412586212158,0.9999869531423866,-0.0030663615618133247,-0.0033226887717303496,0.002349696187981507
1728331176424886300,0.61788623046875,-2.082303524017334,-0.7689823508262634,0.6799923777580261,-0.014239407144486904,0.026813801378011703,-0.9995390176773071,0.1945372372865677,-0.09846904873847961,0.05512678623199463,0.9998685839374515,-0.013367842636739216,-0.007196464422164154,0.0056714498375305105
1728331176434917000,0.627917236328125,-2.0081892013549805,-0.7292645573616028,0.6828685998916626,-0.02155510149896145,0.04748530313372612,-0.9986393451690674,0.11722768843173981,-0.02024833858013153,0.06332135200500488,0.999618519498457,-0.02365188782396508,-0.010996373696047878,0.009074452777779421
1728331176444949200,0.63794921875,-1.906219244003296,-0.6291249990463257,0.6913683414459229,-0.02799571119248867,0.06722234189510345,-0.9973451495170593,0.06493721902370453,-0.017142973840236664,0.0810549259185791,0.9992581925666559,-0.03345598612975252,-0.01442600586820308,0.012477551333690735
1728331176454980000,0.64797998046875,-1.8312623500823975,-0.5875484943389893,0.7383590340614319,-0.03350035846233368,0.08609657734632492,-0.9957234263420105,0.03346981853246689,-0.02139928936958313,0.080821692943573,0.9988016800727502,-0.042819768599364906,-0.017457470440418277,0.016029302596809424
1728331176465011200,0.65801123046875,-1.7366541624069214,-0.5614672899246216,0.7970548272132874,-0.03849179670214653,0.1041724681854248,-0.9938141107559204,0.01949458196759224,-0.007767416536808014,0.11850893497467041,0.9982550575692677,-0.05177353039050645,-0.02030882403402266,0.019845830326879303
1728331176475042000,0.6680419921875,-1.672766089439392,-0.533271849155426,0.8626354336738586,-0.04299426078796387,0.12142316997051239,-0.991669237613678,0.030771955847740173,-0.021066099405288696,0.12435972690582275,0.9976270368238539,-0.060303281163725284,-0.022997563158189033,0.02397647633405014
1728331176485073400,0.678073486328125,-1.6807711124420166,-0.5044547319412231,0.8767073154449463,-0.04701074957847595,0.13844554126262665,-0.9892536401748657,0.04287559911608696,-0.047091156244277954,0.105632483959198,0.9969080122730793,-0.06871260180944316,-0.025529276411650977,0.02830580068959816
1728331176495104300,0.688104248046875,-1.728110671043396,-0.49979254603385925,0.8571969866752625,-0.05068909749388695,0.15569522976875305,-0.9865037202835083,0.044280387461185455,-0.07015444338321686,0.1099473237991333,0.996086840076219,-0.07723792079849333,-0.027972092880315966,0.03260166997528328
1728331176505135400,0.69813525390625,-1.8932846784591675,-0.5104259252548218,0.8390595316886902,-0.054273247718811035,0.1739298403263092,-0.9832613468170166,0.042020417749881744,-0.08628334105014801,0.0957338809967041,0.9951273925646846,-0.0862653417020365,-0.030457030331812556,0.0367702945532666
1728331176515166200,0.708166259765625,-2.1509084701538086,-0.513552725315094,0.8338093757629395,-0.057721592485904694,0.19429950416088104,-0.9792425036430359,0.0512060783803463,-0.07685260474681854,0.08997559547424316,0.9939575278098927,-0.09638376347323431,-0.032998602090380094,0.04086177706165752
1728331176525197300,0.718197265625,-2.3133180141448975,-0.5414608120918274,0.797759473323822,-0.061160214245319366,0.21668992936611176,-0.9743227958679199,0.055773843079805374,-0.061416491866111755,0.08807706832885742,0.9925481504569592,-0.10754751957861867,-0.03566701485360433,0.04482783908062777
1728331176535228200,0.728228271484375,-2.457073450088501,-0.5406216382980347,0.7349048852920532,-0.06470244377851486,0.2403797060251236,-0.9685201048851013,0.04433194547891617,-0.0727313756942749,0.07888692617416382,0.9909128418514729,-0.11940833396106215,-0.038491554126535585,0.0484937016927006
1728331176545259300,0.73825927734375,-2.5394222736358643,-0.5155471563339233,0.7055901288986206,-0.0679880827665329,0.2650895416736603,-0.9618238806724548,0.023447662591934204,-0.07823038101196289,0.09155410528182983,0.9890501944123006,-0.13184651767731245,-0.041286332365645585,0.051880132335544143
1728331176555290000,0.7482900390625,-2.5495383739471436,-0.4706883430480957,0.689562976360321,-0.07080236077308655,0.29003074765205383,-0.9543946981430054,0.002488747239112854,-0.06900718808174133,0.10357987880706787,0.9869934171253429,-0.14447124887336285,-0.04393998834147118,0.055147993323314465
1728331176565321200,0.7583212890625,-2.594619035720825,-0.42798325419425964,0.6269765496253967,-0.07304318249225616,0.31498703360557556,-0.9462810754776001,-0.01016300916671753,-0.05203232169151306,0.0657421350479126,0.9847625469091126,-0.15719149642987074,-0.04637133136505266,0.058165736629950705
1728331176575352000,0.76835205078125,-2.6091785430908203,-0.3989257514476776,0.48530036211013794,-0.07509873062372208,0.34006208181381226,-0.9373995661735535,-0.030049599707126617,-0.011311471462249756,0.04863613843917847,0.9823548757004961,-0.1700768472970068,-0.048724542620939615,0.06065155708502426
1728331176585383200,0.778383056640625,-2.5375523567199707,-0.3759206533432007,0.356000691652298,-0.07725711166858673,0.36450570821762085,-0.9279907941818237,-0.048139624297618866,0.03850942850112915,0.04250800609588623,0.9798472361943374,-0.18274905264325714,-0.05106256925330006,0.0624077657246394
1728331176595414300,0.788414306640625,-2.4484975337982178,-0.35016095638275146,0.25901156663894653,-0.07955910265445709,0.3877217173576355,-0.9183366298675537,-0.0475924015045166,0.0874980092048645,0.006807088851928711,0.9773042912378314,-0.1948888851395044,-0.05338538677419246,0.06359632586162756
1728331176605445000,0.798445068359375,-2.348935604095459,-0.2971368432044983,0.24811314046382904,-0.08152379095554352,0.4100083112716675,-0.9084310531616211,-0.03590784966945648,0.14737996459007263,-0.02040189504623413,0.974709123177863,-0.20665270363008864,-0.05548983374966342,0.06447798866485793
1728331176615476200,0.808476318359375,-2.1996166706085205,-0.22465573251247406,0.25495558977127075,-0.08274274319410324,0.43084827065467834,-0.8986230492591858,-0.04695697873830795,0.21444588899612427,0.03938537836074829,0.9721310276817585,-0.21775376182136397,-0.05719936805916209,0.0653669953897881
1728331176625507000,0.818507080078125,-1.861128807067871,-0.2053137868642807,0.2088775783777237,-0.08353910595178604,0.4493306875228882,-0.8894510269165039,-0.05699435621500015,0.25034579634666443,-0.017638206481933594,0.9697135292105177,-0.22768125529037095,-0.05861509204538531,0.06619031576057666
1728331176635538200,0.8285380859375,-1.3954894542694092,-0.12467379122972488,0.09413980692625046,-0.08426527678966522,0.46381765604019165,-0.8819141387939453,-0.07854600995779037,0.28300848603248596,-0.07455253601074219,0.9677407429395153,-0.23552808061292668,-0.059744922075834754,0.06659484300729637
1728331176645568500,0.838568603515625,-1.0468013286590576,-0.032666902989149094,0.01947755180299282,-0.08477205038070679,0.4746495485305786,-0.8760830760002136,-0.1261654645204544,0.2899988889694214,-0.11363250017166138,0.9662335000885252,-0.24144841264704267,-0.06050736111154928,0.06659068700159694
1728331176655599600,0.848599609375,-0.6385719776153564,0.09201670438051224,-0.04363776743412018,-0.08459152281284332,0.4820558726787567,-0.8720472455024719,-0.15779435634613037,0.2622220516204834,-0.09856432676315308,0.9652137076949548,-0.24555192314687505,-0.06066828139623932,0.06622670774678306
1728331176665630500,0.85863037109375,-0.25906750559806824,0.1828484982252121,-0.09392543882131577,-0.08371040970087051,0.4858829975128174,-0.8700059056282043,-0.16931083798408508,0.18139910697937012,-0.09363240003585815,0.964729594994355,-0.2477301002950073,-0.06022333073104837,0.06557146728285482
1728331176675661600,0.86866162109375,0.06978576630353928,0.2528560757637024,-0.08794558048248291,-0.08232396841049194,0.4865546226501465,-0.8697628378868103,-0.17039211094379425,0.07426688075065613,-0.0709415078163147,0.9647184654490067,-0.24818830588915355,-0.05933932498031037,0.06480466525857798
1728331176685692700,0.878692626953125,0.20058731734752655,0.29265883564949036,-0.027000201866030693,-0.08018285781145096,0.48517146706581116,-0.8707349896430969,-0.14160364866256714,-0.043734729290008545,-0.042854487895965576,0.965009716718001,-0.24752093583253063,-0.058016406898145044,0.06421665303114693
1728331176695723500,0.8887236328125,0.05125216022133827,0.328323632478714,0.055549804121255875,-0.07741567492485046,0.4839582145214081,-0.871660053730011,-0.09526805579662323,-0.14748665690422058,-0.022245585918426514,0.9652668370242563,-0.2469455328845335,-0.05646137433734807,0.06395116673534898
1728331176705754600,0.898754638671875,-0.19830913841724396,0.38188984990119934,0.13497672975063324,-0.07385887950658798,0.48467427492141724,-0.8715708255767822,-0.06116615980863571,-0.20014366507530212,0.05444741249084473,0.965243151917595,-0.2474416185335061,-0.05465560224259774,0.06396057101776786
1728331176715785500,0.908785400390625,-0.3712044954299927,0.47951042652130127,0.2073819488286972,-0.06928961724042892,0.4873029887676239,-0.8704795837402344,-0.05221613496541977,-0.2362349033355713,0.11681747436523438,0.9649459448754598,-0.249013200796943,-0.052465526343222615,0.06417969005848065
1728331176725816600,0.918816650390625,-0.5030130743980408,0.5863121747970581,0.3011041581630707,-0.0633733943104744,0.49124982953071594,-0.8687102198600769,-0.0523035004734993,-0.24726182222366333,0.1320769190788269,0.9644579863941192,-0.2513469091752579,-0.04969532966674762,0.06462129167968694
1728331176735847700,0.92884765625,-0.6009705662727356,0.5948423147201538,0.4564564824104309,-0.05632289499044418,0.49633532762527466,-0.8663018941879272,-0.04452245682477951,-0.21442919969558716,0.13239991664886475,0.963769869598583,-0.254332034211344,-0.04652172287178449,0.0655630607455076
1728331176745878800,0.938878662109375,-0.6163627505302429,0.5975180864334106,0.6225940585136414,-0.04845930635929108,0.5018991231918335,-0.863567590713501,-0.027804136276245117,-0.162467360496521,0.14037728309631348,0.9629423859372419,-0.2575918959092169,-0.04315809574999966,0.0672734940044182
1728331176755909600,0.94890966796875,-0.6712113618850708,0.6196582913398743,0.7376894950866699,-0.03974979743361473,0.5077346563339233,-0.8605960011482239,-0.0045312270522117615,-0.14782565832138062,0.14840728044509888,0.9620010409696907,-0.26103060408222906,-0.039560510813354925,0.06965602694825329
1728331176765940700,0.958940673828125,-0.7827045321464539,0.6579912304878235,0.7859238982200623,-0.030345501378178596,0.5142170190811157,-0.857123076915741,-0.005558447912335396,-0.1889607310295105,0.19177883863449097,0.9608978259792911,-0.2648796411643298,-0.035738458902303864,0.07236591246693924
1728331176775971600,0.9689716796875,-1.0143678188323975,0.7314808964729309,0.8189893960952759,-0.02024960331618786,0.52204430103302,-0.8526778817176819,-0.029112599790096283,-0.2549545168876648,0.29225313663482666,0.9595262047062612,-0.2695522278167844,-0.031664508125632325,0.07515472628562954
1728331176786002700,0.979002685546875,-1.3650460243225098,0.9130200147628784,0.9086447358131409,-0.008797451853752136,0.532243549823761,-0.8465455770492554,-0.055808283388614655,-0.311357319355011,0.42030656337738037,0.9576987201535855,-0.27567298295531895,-0.027048619769731115,0.07801164440975959
1728331176796033500,0.989033447265625,-1.7509359121322632,1.2101964950561523,1.0196759700775146,0.005422823131084442,0.5454516410827637,-0.8381247520446777,-0.07297350466251373,-0.32654911279678345,0.49857091903686523,0.9552532547872143,-0.283704097579474,-0.021204175165573994,0.08095325060181599
1728331176806064600,0.999064697265625,-1.9985709190368652,1.3405250310897827,1.0172218084335327,0.021861152723431587,0.5610700249671936,-0.8274796009063721,-0.10677634179592133,-0.2792707681655884,0.5092117786407471,0.9522121707752947,-0.29334987567867743,-0.014354459287797374,0.08385572832326751
1728331176816095500,1.009095458984375,-2.1297240257263184,1.502997875213623,0.9778866767883301,0.039242882281541824,0.5777803063392639,-0.8152483105659485,-0.1411868780851364,-0.1740175485610962,0.48488032817840576,0.9487709227437296,-0.3038538505547448,-0.006976342072255124,0.08635859549887072
1728331176826126600,1.019126708984375,-2.211880683898926,1.6380341053009033,0.951217770576477,0.057659752666950226,0.594967782497406,-0.8016786575317383,-0.15105882287025452,-0.054791390895843506,0.4457368850708008,0.9449934133566062,-0.3148962156043096,0.0010280424132270247,0.08846846035040054
1728331176836157400,1.029157470703125,-2.111314296722412,1.669272541999817,0.9733893871307373,0.0767725482583046,0.6116279363632202,-0.7874116897583008,-0.11284435540437698,0.08182293176651001,0.4041261672973633,0.9410291017284622,-0.32588971351118834,0.009489363376150852,0.09038796268529492
1728331176846189600,1.039189453125,-1.8871136903762817,1.5475233793258667,1.0101183652877808,0.0955287292599678,0.6264687776565552,-0.7735702991485596,-0.06397358328104019,0.20908713340759277,0.34806370735168457,0.9371367206676342,-0.3360031744855913,0.01779651534114181,0.09251876287233637
1728331176856220400,1.049220458984375,-1.6086817979812622,1.4838072061538696,1.0977566242218018,0.11384781450033188,0.6388493180274963,-0.7608614563941956,-0.004671216011047363,0.2791346311569214,0.37525665760040283,0.9334858729955512,-0.3448188677116001,0.025869322792957304,0.09505065405047425
1728331176866251800,1.059251708984375,-1.1772072315216064,1.4722323417663574,1.1647084951400757,0.13231579959392548,0.6480947136878967,-0.749977171421051,0.023979946970939636,0.289847731590271,0.407417356967926,0.9302608388241976,-0.351926671661051,0.034044571450186356,0.09799646280864399
1728331176876282600,1.06928271484375,-0.6922604441642761,1.4967843294143677,1.1284068822860718,0.1509658843278885,0.653401255607605,-0.7418059706687927,-0.0077316612005233765,0.27180010080337524,0.28176867961883545,0.9277521368804864,-0.35677078878624685,0.042563206980053545,0.10089063807086633
1728331176886313700,1.079313720703125,-0.5182620286941528,1.5843299627304077,1.0086230039596558,0.16941013932228088,0.6559627056121826,-0.7355359792709351,-0.09912820160388947,0.21497845649719238,0.21856820583343506,0.9258004372192112,-0.3599942344534844,0.051343688638585135,0.10325460562162461
1728331176896344600,1.089344482421875,-0.681666910648346,1.6152458190917969,0.8255155086517334,0.1872638463973999,0.6586613059043884,-0.7287643551826477,-0.20999948680400848,0.1554255485534668,0.2981460690498352,0.9238001509517604,-0.36331725012407423,0.060153042746344546,0.10476390276642304
1728331176906375700,1.099375732421875,-0.8689322471618652,1.6125212907791138,0.6816270351409912,0.2039766162633896,0.6628181338310242,-0.7204620838165283,-0.30509665608406067,0.12389445304870605,0.3157684803009033,0.9214632994986572,-0.3675106004422983,0.06859245530375262,0.10552860428619643
1728331176916406500,1.109406494140625,-1.146440029144287,1.5875637531280518,0.5545923709869385,0.21965153515338898,0.668673574924469,-0.710372269153595,-0.34105050563812256,0.057034313678741455,0.26672297716140747,0.9186925987123732,-0.3727497561314369,0.07662562867108709,0.10578242490794004
1728331176926437600,1.119437744140625,-1.6110283136367798,1.64509916305542,0.440425843000412,0.2343285232782364,0.6771896481513977,-0.697498619556427,-0.32621699571609497,0.0040541887283325195,0.250385582447052,0.9152053448579753,-0.3796818964344318,0.08421608954903945,0.10558639706772473
1728331176936468500,1.129468505859375,-2.112942695617676,1.7548519372940063,0.38739749789237976,0.24889478087425232,0.6891125440597534,-0.6805698275566101,-0.2890864610671997,0.011494696140289307,0.36951935291290283,0.9106351880496404,-0.3889562777117704,0.09180473186455453,0.1050163520477725
1728331176946499600,1.13949951171875,-2.4435324668884277,1.8189095258712769,0.3507923483848572,0.2635515630245209,0.7035424113273621,-0.6599762439727783,-0.23748961091041565,0.045450448989868164,0.4218628406524658,0.9050514413831906,-0.4001381365884285,0.09950553464653272,0.10425939145661377
1728331176956530700,1.14953076171875,-2.61004376411438,1.7319027185440063,0.27516576647758484,0.27738156914711,0.7192036509513855,-0.637028694152832,-0.18239566683769226,0.08940529823303223,0.32841968536376953,0.8987930250264501,-0.41238633944505276,0.10687921228363559,0.10337029786029933
1728331176966561500,1.1595615234375,-2.5454156398773193,1.6703327894210815,0.16394366323947906,0.2896450161933899,0.7348405122756958,-0.6132822632789612,-0.14515960216522217,0.15540295839309692,0.19952493906021118,0.8922939426918405,-0.4247902073395302,0.1136315820273589,0.1022380841615596
1728331176976592600,1.169592529296875,-2.2853262424468994,1.6326874494552612,0.04822451248764992,0.30041152238845825,0.7491496205329895,-0.5903623700141907,-0.13340413570404053,0.22797739505767822,0.0775754451751709,0.8860401856022653,-0.43637127382047675,0.11999554035136854,0.10056779646448331
1728331176986623500,1.17962353515625,-1.9788756370544434,1.5694561004638672,-0.07437331229448318,0.30964604020118713,0.7616231441497803,-0.5692534446716309,-0.1540369689464569,0.30896395444869995,-0.08354806900024414,0.8803238481546258,-0.44664765473084517,0.12601248240536886,0.098268137113153
1728331176996654600,1.189654541015625,-1.5094484090805054,1.4258736371994019,-0.1932850480079651,0.317030668258667,0.7719017863273621,-0.5510527491569519,-0.17762640118598938,0.40952515602111816,-0.23109757900238037,0.8754562385294082,-0.45518346617147093,0.13145965951993033,0.0954080106755175
1728331177006685400,1.199685546875,-1.089585542678833,1.3034090995788574,-0.28219255805015564,0.32258087396621704,0.7796873450279236,-0.5366835594177246,-0.17913305759429932,0.46835947036743164,-0.3926072120666504,0.8716994005584457,-0.461618710560065,0.13625850580213728,0.09209761381089425
1728331177016716500,1.209716552734375,-0.8708004355430603,1.1784660816192627,-0.3741970658302307,0.32659175992012024,0.7859177589416504,-0.525043785572052,-0.16208681464195251,0.44868606328964233,-0.494914710521698,0.8687356353885622,-0.4666331186614694,0.14046933057523253,0.0884317081067587
1728331177026747600,1.21974755859375,-0.7935124039649963,1.0903680324554443,-0.44214361906051636,0.32925477623939514,0.7915902137756348,-0.5147583484649658,-0.1341254711151123,0.39446014165878296,-0.46989136934280396,0.8661565046447252,-0.4710229747917609,0.14407703503711167,0.08456940182712164
1728331177036778800,1.22977880859375,-0.7873581051826477,0.9901408553123474,-0.4849659204483032,0.3308505713939667,0.7971512079238892,-0.5050620436668396,-0.10354048013687134,0.2993299961090088,-0.4163551926612854,0.8637272388443756,-0.4752016180201859,0.14714752088341676,0.08066043529004024
1728331177046810600,1.239810546875,-0.8366502523422241,0.9469807744026184,-0.5125948190689087,0.3316710293292999,0.8028963804244995,-0.4953297972679138,-0.0879424512386322,0.1992550492286682,-0.36554062366485596,0.8612594177701882,-0.47947399297029963,0.14979917815017244,0.07679155996861423
1728331177056841700,1.249841796875,-0.807449221611023,0.9256262183189392,-0.5195521116256714,0.3320568799972534,0.8087207078933716,-0.4854987859725952,-0.0983075499534607,0.13526421785354614,-0.28821343183517456,0.8587390010791531,-0.48380530169445246,0.15225978933384718,0.0729157457936764
1728331177066872600,1.25987255859375,-0.7131118178367615,0.8992246389389038,-0.5144041776657104,0.33223026990890503,0.814098596572876,-0.4763050079345703,-0.1327064037322998,0.09013718366622925,-0.26739317178726196,0.8563784343824371,-0.48778416976389943,0.15464183658206232,0.06905348690599626
1728331177076903700,1.269903564453125,-0.4401386082172394,0.8498227000236511,-0.5418083667755127,0.3319852650165558,0.8186995983123779,-0.46852603554725647,-0.16668686270713806,0.0712386965751648,-0.2697552442550659,0.8544147124135192,-0.49105177354271823,0.15686023353091527,0.06510300834533721
1728331177086934500,1.2799345703125,-0.09506763517856598,0.7752082943916321,-0.5735287666320801,0.3313464820384979,0.8219601511955261,-0.46323952078819275,-0.1937733292579651,0.09857195615768433,-0.24218955636024475,0.8531750789281333,-0.4930590775830586,0.15897477984054478,0.060925588257668035
1728331177096965600,1.289965576171875,0.9852297902107239,0.5327272415161133,-0.30929234623908997,0.3303655982017517,0.8215858340263367,-0.46460214257240295,-0.13929510116577148,0.29645609855651855,-0.42719781398773193,0.8538517670756816,-0.49181399562950884,0.16067956175240813,0.056904183950156985
1728331177106996500,1.29999658203125,1.7676544189453125,0.16257129609584808,-0.03726109489798546,0.33095496892929077,0.8153868317604065,-0.4749874174594879,0.04181718826293945,0.34306037425994873,-0.667819619178772,0.857055052548584,-0.4859755119043548,0.16227784916563204,0.05431638124079658
1728331177117027600,1.310027587890625,1.7393876314163208,-0.1829104721546173,-0.3821929395198822,0.329286128282547,0.8072428703308105,-0.4898260533809662,0.3873428404331207,0.17411082983016968,-0.9863092303276062,0.8615115994492403,-0.4783064597381134,0.16220329539604017,0.05206503924336305
1728331177127058400,1.320058349609375,1.3283988237380981,-0.4003172516822815,-0.5293424129486084,0.32382991909980774,0.8012658953666687,-0.5030975937843323,0.5025860071182251,0.0540807843208313,-1.01116943359375,0.8655119947803521,-0.47202125117850413,0.1601472283546931,0.04937406106075205
1728331177137089500,1.330089599609375,0.8206877708435059,-0.5615420937538147,-0.25328660011291504,0.3180958032608032,0.7969464063644409,-0.5135088562965393,0.4807322323322296,-0.12319469451904297,-0.7691602110862732,0.8685964099260355,-0.4674319226755048,0.15733073029554484,0.047902158693797506
1728331177147120400,1.340120361328125,-0.05037765949964523,-0.6495116353034973,-0.11673035472631454,0.3135319948196411,0.7954203486442566,-0.5186559557914734,0.46826720237731934,-0.37696343660354614,-0.4531305432319641,0.8700541654308299,-0.4656779835586488,0.15432447482066572,0.04830666442257739
1728331177157151700,1.35015185546875,-0.6972256302833557,-0.5550618171691895,-0.25794100761413574,0.3089001774787903,0.7980749011039734,-0.5173556804656982,0.30172595381736755,-0.42296820878982544,-0.13955038785934448,0.8696275301057829,-0.467419490609703,0.151132940962113,0.04925068121095336
1728331177167182600,1.3601826171875,-0.8934717178344727,-0.3744836747646332,-0.31464770436286926,0.3040306866168976,0.8032715916633606,-0.5121718645095825,0.06224122643470764,-0.34808677434921265,0.02466881275177002,0.8681135888927972,-0.4711269099486941,0.14816711690178302,0.04964576771571461
1728331177177213700,1.370213623046875,-0.3966585099697113,-0.2607667148113251,-0.187520369887352,0.3003339171409607,0.807574987411499,-0.5075648427009583,-0.08283522725105286,-0.16475284099578857,0.04291945695877075,0.8667771441439115,-0.47423713278563534,0.14600244254861527,0.049796558770882744
1728331177187244500,1.38024462890625,0.4352882504463196,-0.09252762794494629,-0.158100426197052,0.2980542778968811,0.8079487085342407,-0.5083133578300476,-0.07013377547264099,0.086902916431427,-0.04507720470428467,0.8670091316946409,-0.47420996948292066,0.14480413146987203,0.04951525888234027
1728331177197275600,1.390275634765625,1.339028000831604,0.10079443454742432,-0.2848743498325348,0.29629942774772644,0.804023802280426,-0.5155117511749268,-0.027988910675048828,0.27816009521484375,-0.11800271272659302,0.8691733558928733,-0.4704854493348174,0.14452531712154823,0.04789128342991855
1728331177207306500,1.400306396484375,1.8318674564361572,0.2196396440267563,-0.2614060640335083,0.2948291599750519,0.7963725328445435,-0.5280781388282776,-0.023222774267196655,0.38323861360549927,-0.08068656921386719,0.8729306742444041,-0.4636315507168744,0.14493695562483266,0.045067397340404436
1728331177217337600,1.410337646484375,1.687371850013733,0.14032484591007233,-0.14794392883777618,0.29419487714767456,0.7872881293296814,-0.5418733954429626,0.045740365982055664,0.29315614700317383,-0.04980146884918213,0.8770038274805285,-0.45589966391621906,0.14566675739225182,0.04243725560544151
1728331177227368700,1.42036865234375,1.1633009910583496,0.07909659296274185,-0.12442103028297424,0.2937234044075012,0.7798054814338684,-0.5528380274772644,0.1616140604019165,0.07708227634429932,0.06582319736480713,0.8802124213523672,-0.4496976018434868,0.14612681761850282,0.0405584983048349
1728331177237399600,1.430399658203125,0.6347114443778992,0.07317878305912018,-0.19823293387889862,0.2928261160850525,0.7752689719200134,-0.5596523284912109,0.19212865829467773,-0.1302037239074707,0.17690086364746094,0.8822149905124879,-0.4458562053722339,0.1462397530951802,0.03902189977228225
1728331177247431400,1.440431396484375,0.33672529458999634,0.12697426974773407,-0.1961069256067276,0.2917632460594177,0.7732794284820557,-0.5629501938819885,0.14361566305160522,-0.22564160823822021,0.16613012552261353,0.88321240878255,-0.44398649149498437,0.1462904346378049,0.03755992755901359
1728331177257462500,1.450462646484375,0.38257667422294617,0.15602988004684448,-0.10299617052078247,0.2913579046726227,0.7717368602752686,-0.5652721524238586,0.08289429545402527,-0.1531609296798706,0.10529595613479614,0.8839212447571319,-0.4425662659534646,0.14662545630185106,0.03631907687478546
1728331177267493400,1.460493408203125,0.5483774542808533,0.17252768576145172,-0.02270239219069481,0.2918488383293152,0.7693142294883728,-0.5683131217956543,0.05695176124572754,-0.029354572296142578,-0.002792835235595703,0.8848201814967831,-0.4406148981726,0.14731581231066268,0.03535153679176778
1728331177277524700,1.470524658203125,0.7966452836990356,0.149812251329422,-0.008117590099573135,0.2926759719848633,0.7654808759689331,-0.5730443000793457,0.05382055044174194,0.045477986335754395,-0.0480494499206543,0.8861925351739319,-0.43764685323946523,0.1481319831774978,0.03442165829648994
1728331177287555600,1.4805556640625,0.9065274596214294,0.06874237954616547,0.022572943940758705,0.2933076322078705,0.7604380249977112,-0.5794001817703247,0.06675395369529724,0.03738296031951904,-0.09041488170623779,0.8880170871943572,-0.433786509308086,0.14875880398579122,0.03354979619701452
1728331177297586700,1.490586669921875,0.8890456557273865,-0.0077444035559892654,0.09752681106328964,0.29392626881599426,0.7549971342086792,-0.5861626267433167,0.09038153290748596,0.004173338413238525,-0.058002471923828125,0.8899364019385856,-0.4297307825226167,0.1491648589595548,0.03308093895805003
1728331177307617800,1.50061767578125,0.818556010723114,-0.0762757956981659,0.1103520616889,0.2944645285606384,0.7495803833007812,-0.5928066968917847,0.1093897819519043,-0.0354539155960083,-0.005749821662902832,0.8918029889479475,-0.4257909795944727,0.14932749812782592,0.03302455190652114
1728331177317648600,1.510648681640625,0.6968516707420349,-0.12550219893455505,0.07121158391237259,0.2944841980934143,0.7448158860206604,-0.5987723469734192,0.0831708014011383,-0.06970608234405518,0.00026154518127441406,0.8934721377577379,-0.4223310563946189,0.1491653536596005,0.03307122236206784
1728331177327679700,1.5206796875,0.6557992100715637,-0.10226276516914368,0.09986533224582672,0.2943764328956604,0.7404839992523193,-0.6041737794876099,0.003108888864517212,-0.02828007936477661,0.03270155191421509,0.8949782379036134,-0.4192091067650929,0.1489188925252764,0.03317925418066206
1728331177337710600,1.530710693359375,0.6623386144638062,-0.039411891251802444,0.14255234599113464,0.2948122024536133,0.7361479997634888,-0.6092388033866882,-0.06669336557388306,0.026562511920928955,0.04432785511016846,0.896384687186405,-0.4161664487064424,0.14894996367173938,0.033375185092330034
1728331177347741700,1.54074169921875,0.654543936252594,-0.05831330269575119,0.15251630544662476,0.29566559195518494,0.7314831614494324,-0.6144218444824219,-0.09444797039031982,0.05564141273498535,0.0583609938621521,0.8978198282336404,-0.4129535658087714,0.14919255957831043,0.03362305475769098
1728331177357772500,1.5507724609375,0.4929260313510895,-0.14956359565258026,0.1687844842672348,0.29618629813194275,0.7275291681289673,-0.6188496947288513,-0.06594648957252502,0.02115851640701294,0.04716390371322632,0.8990324073412401,-0.4102814920475815,0.14914503207970717,0.03413980014498222
1728331177367803600,1.5608037109375,0.3266250193119049,-0.21103563904762268,0.15064117312431335,0.2961673438549042,0.7244390845298767,-0.6224731802940369,-0.01584818959236145,-0.027478694915771484,0.022802770137786865,0.9000084165848058,-0.40823588558220125,0.14868377049713793,0.0349479824936142
1728331177377834500,1.57083447265625,0.1559949517250061,-0.26468607783317566,0.14734044671058655,0.2957630455493927,0.7225727438926697,-0.6248302459716797,0.008085161447525024,-0.07781267166137695,-0.03622627258300781,0.9006258281075038,-0.40704768327096735,0.14797653671077915,0.03589266725506675
1728331177387865600,1.580865478515625,0.13716228306293488,-0.3711283802986145,0.21257483959197998,0.2950327694416046,0.7211499214172363,-0.6268160343170166,-0.0007060468196868896,-0.039555132389068604,0.009933710098266602,0.9011216329094237,-0.4062132998819771,0.14691061819373102,0.037251476967291336
1728331177397896400,1.590896484375,0.12419907748699188,-0.45558199286460876,0.24512238800525665,0.29405471682548523,0.7196276187896729,-0.6290212869644165,0.0032169222831726074,-0.03302794694900513,0.007240891456604004,0.9016572467385907,-0.40535965842538213,0.14550913855255035,0.039046797675399286
1728331177407927600,1.600927490234375,0.13626211881637573,-0.5250548124313354,0.24238760769367218,0.29269757866859436,0.7181150913238525,-0.6313784718513489,-0.038150519132614136,-0.05614304542541504,-0.07128876447677612,0.9022221786667544,-0.40451183243980243,0.14380865479285132,0.0410406735702605
1728331177417958400,1.61095849609375,0.09368430823087692,-0.6028545498847961,0.2937290668487549,0.29100266098976135,0.7165269255638123,-0.6339609026908875,-0.10403680801391602,-0.04835993051528931,-0.11187338829040527,0.9028324035938796,-0.40362108722676776,0.14180816573215527,0.04328891290437589
1728331177427989500,1.620989501953125,0.03889409452676773,-0.6704521179199219,0.31278106570243835,0.2891414165496826,0.7152290344238281,-0.6362740397453308,-0.12478905916213989,-0.0315132737159729,-0.11410748958587646,0.9033420299435716,-0.40297574443791156,0.13954759104796174,0.04593701886306897
1728331177438021600,1.631021728515625,-0.07415496557950974,-0.6817288398742676,0.28628578782081604,0.2868920862674713,0.7144606113433838,-0.6381526589393616,-0.12090703845024109,-0.01028287410736084,-0.09910625219345093,0.9037186408575142,-0.4026697330883676,0.13704289741026696,0.04866970753406386
1728331177448052700,1.641052734375,-0.19787630438804626,-0.6998865008354187,0.3007345199584961,0.2845135033130646,0.7144355177879333,-0.6392447352409363,-0.11503419280052185,0.0132407546043396,-0.07640773057937622,0.9038657989594031,-0.4028665234808878,0.13444776662363817,0.05146621069898701
1728331177458083600,1.65108349609375,-0.4910479784011841,-0.7299730181694031,0.3361753225326538,0.2821936011314392,0.7157072424888611,-0.6388504505157471,-0.06554937362670898,0.01149606704711914,-0.05527186393737793,0.9035743295083285,-0.40400021037145173,0.13175206127178615,0.054576758094998165
1728331177468114700,1.66111474609375,-0.8006134033203125,-0.7241950631141663,0.3564201593399048,0.2800292372703552,0.7188210487365723,-0.6363017559051514,0.0023040771484375,-0.03451019525527954,-0.04749035835266113,0.9026519469065463,-0.4064667220628117,0.12897261878061225,0.05805453639861462
1728331177478145500,1.6711455078125,-1.0770795345306396,-0.730485737323761,0.391377329826355,0.27806732058525085,0.7237926125526428,-0.6315083503723145,0.06380575895309448,-0.0874859094619751,-0.029975414276123047,0.9010736257472012,-0.41028159455580687,0.12615403008876697,0.061810220534008906
1728331177488176600,1.6811767578125,-1.2625043392181396,-0.7719860076904297,0.4520135223865509,0.27638667821884155,0.7300039529800415,-0.6250636577606201,0.12098264694213867,-0.10666722059249878,-0.006345033645629883,0.8989855434891835,-0.4150644755534209,0.1232463088407899,0.06600586401653527
1728331177498207500,1.69120751953125,-1.3622511625289917,-0.7614297866821289,0.4492001533508301,0.2749136984348297,0.7369334101676941,-0.6175366640090942,0.191959410905838,-0.13105273246765137,-0.008272051811218262,0.8965495354439711,-0.4204372983044319,0.12026695563379548,0.07047796592386145
1728331177508238600,1.701238525390625,-1.42525053024292,-0.7311437726020813,0.4044148325920105,0.27345189452171326,0.7443508505821228,-0.6092337369918823,0.24116593599319458,-0.13990455865859985,-0.00020229816436767578,0.8938812998610766,-0.426172906498254,0.11730215485296824,0.07478595766424623
1728331177518269400,1.71126953125,-1.404937505722046,-0.7176806926727295,0.3709231913089752,0.2719727158546448,0.7518588900566101,-0.6006155014038086,0.26469409465789795,-0.10899090766906738,0.014754295349121094,0.8911111795286872,-0.43199276604425035,0.11434376262326926,0.07892112532512939
1728331177528300500,1.721300537109375,-1.4518792629241943,-0.6911278963088989,0.2695142924785614,0.2701701521873474,0.7594908475875854,-0.5917614102363586,0.3000049591064453,-0.08296197652816772,-0.003972232341766357,0.8882796095759348,-0.43786991131998704,0.11130688638461456,0.08270364934068916
1728331177538331400,1.731331298828125,-1.6356483697891235,-0.6615460515022278,0.15556855499744415,0.26781436800956726,0.7678929567337036,-0.5819070339202881,0.31043264269828796,-0.03673762083053589,-0.0011464953422546387,0.8851899404294855,-0.4442468709461095,0.10812589986976073,0.08597746335971788
1728331177548362500,1.741362548828125,-2.079613208770752,-0.7171154022216797,0.0838533416390419,0.26473572850227356,0.7782580852508545,-0.5694113373756409,0.29954949021339417,0.025895297527313232,0.0013266801834106445,0.8813520717526562,-0.45207111719781284,0.10452763611931162,0.08901743549825276
1728331177558393600,1.7513935546875,-2.505887031555176,-0.760942816734314,0.006561753805726767,0.26095178723335266,0.7910483479499817,-0.5533050894737244,0.30249419808387756,0.02721935510635376,-0.055734217166900635,0.8764506494281277,-0.4618246808623319,0.10032662094317113,0.09212275843948121
1728331177568424700,1.7614248046875,-2.7459239959716797,-0.7441086769104004,-0.12836943566799164,0.2562922537326813,0.8056126236915588,-0.5341371893882751,0.31717872619628906,-0.05176746845245361,-0.14884626865386963,0.8706657283898724,-0.473064954947163,0.09560833178942796,0.09491980937689497
1728331177578455800,1.771455810546875,-2.693695306777954,-0.7111341953277588,-0.19541797041893005,0.2510903477668762,0.820425271987915,-0.5136691927909851,0.308266282081604,-0.07843619585037231,-0.20588958263397217,0.8645145591812231,-0.48470121322947873,0.09072010838855946,0.09720694159410416
1728331177588486700,1.781486572265625,-2.454906702041626,-0.6968173980712891,-0.18488863110542297,0.24590188264846802,0.8339149951934814,-0.49408286809921265,0.3135005235671997,-0.013190627098083496,-0.22346171736717224,0.8585989485193176,-0.49555661151048325,0.08591981525925456,0.09924250694644893
1728331177598517800,1.791517822265625,-2.2058963775634766,-0.6813401579856873,-0.17704881727695465,0.24102649092674255,0.8457164764404297,-0.4760984182357788,0.35231149196624756,0.05299556255340576,-0.26895779371261597,0.8531205212474026,-0.505306277527639,0.08134101374913294,0.10116548377530507
1728331177608548600,1.801548583984375,-1.9332836866378784,-0.7491258978843689,-0.19276998937129974,0.2361104041337967,0.8557828664779663,-0.4603123068809509,0.3826944828033447,0.09082651138305664,-0.25797998905181885,0.8482587280004485,-0.5137596776676241,0.07677788394829685,0.10302033002266951
1728331177618579700,1.811579833984375,-1.9619896411895752,-0.825544536113739,-0.23502875864505768,0.23067989945411682,0.8650319576263428,-0.44554054737091064,0.4016442894935608,0.05585116147994995,-0.22306913137435913,0.8436643019032266,-0.5215982287611294,0.07186804393724053,0.10488425949678071
1728331177628611600,1.821611572265625,-2.0417516231536865,-0.8763752579689026,-0.24794510006904602,0.22477641701698303,0.8743618726730347,-0.43007755279541016,0.4141395390033722,0.013943672180175781,-0.22283074259757996,0.8388279450884847,-0.5296534581573469,0.06654647619698235,0.10680032441126419
1728331177638642400,1.831642333984375,-2.0305213928222656,-0.8437355756759644,-0.2143583744764328,0.21905368566513062,0.8834735751152039,-0.4141133427619934,0.4160475730895996,-0.023549377918243408,-0.2345072627067566,0.8337988626860793,-0.5377722916372806,0.06119055874833024,0.10879367886818497
1728331177648674800,1.8416748046875,-1.876842737197876,-0.8407844305038452,-0.16136039793491364,0.21395441889762878,0.8918092846870422,-0.398622065782547,0.40941286087036133,-0.04340547323226929,-0.2797837257385254,0.828863856899843,-0.5454747971700921,0.05609106273776239,0.11088569775947388
1728331177658705700,1.85170556640625,-1.5298120975494385,-0.8958975076675415,-0.11023171246051788,0.20937789976596832,0.8986853361129761,-0.3853898346424103,0.3775666058063507,0.0119132399559021,-0.30854934453964233,0.8245474883824161,-0.5519834860787226,0.051179244953719165,0.11320851153715421
1728331177668736800,1.86173681640625,-1.0984643697738647,-0.9848407506942749,-0.05654104799032211,0.20511451363563538,0.9036481976509094,-0.37596243619918823,0.35067158937454224,0.07244116067886353,-0.32552987337112427,0.8213160747386015,-0.5566600079791292,0.046350945724124445,0.11584895066610988
1728331177678767600,1.871767578125,-0.7423950433731079,-1.0405138731002808,0.006267740856856108,0.20108595490455627,0.906941831111908,-0.3701632022857666,0.31868940591812134,0.08739703893661499,-0.3374632000923157,0.8191178258017261,-0.5596364330266114,0.04153862110502061,0.11885922087314243
1728331177688798700,1.881798828125,-0.5533620715141296,-1.0880910158157349,0.0713077262043953,0.19755235314369202,0.9091282486915588,-0.36668601632118225,0.2808564007282257,0.06487059593200684,-0.29868873953819275,0.8175714843581429,-0.5615099653350912,0.036926194376277255,0.12214632021091136
1728331177698829600,1.89182958984375,-0.6193181872367859,-1.1399580240249634,0.10307417809963226,0.19431717693805695,0.9109954237937927,-0.3637690842151642,0.22162209451198578,0.022735536098480225,-0.2513584792613983,0.816128589765814,-0.5630932649080048,0.03227122385393401,0.1257715590674343
1728331177708861000,1.90186083984375,-0.9157233834266663,-1.1760845184326172,0.14083035290241241,0.19126556813716888,0.9134736061096191,-0.35914233326911926,0.16777367889881134,-0.02060568332672119,-0.19429394602775574,0.8140997536783513,-0.5653999212380618,0.02741833591260125,0.12966313619947
1728331177718891800,1.911891845703125,-1.1610018014907837,-1.187451958656311,0.2078075259923935,0.1886041909456253,0.9168470501899719,-0.35188040137290955,0.1341191679239273,-0.032066285610198975,-0.09659069776535034,0.8111831334376037,-0.5688225182402823,0.022377199799641333,0.13387319160061487
1728331177728923000,1.9219228515625,-1.2419546842575073,-1.1884334087371826,0.3327728807926178,0.18699535727500916,0.9205269813537598,-0.34302011132240295,0.11656296253204346,-0.005823671817779541,-0.057416319847106934,0.8076711676784825,-0.5728720278019852,0.017538238225725186,0.13848214701066558
1728331177738953700,1.93195361328125,-1.2028088569641113,-1.2736068964004517,0.41339290142059326,0.18637722730636597,0.9239484071731567,-0.3340400755405426,0.11135223507881165,0.04849410057067871,-0.10246813297271729,0.8039774956006106,-0.5769017296361186,0.01282000063515847,0.14366678726325502
1728331177748984800,1.94198486328125,-1.0876667499542236,-1.3965860605239868,0.39428311586380005,0.18575766682624817,0.9269347786903381,-0.32601532340049744,0.10385410487651825,0.1304382085800171,-0.16824740171432495,0.800455993270869,-0.5804580523950899,0.007796908769716584,0.14925755856266631
1728331177759015700,1.952015625,-1.0513710975646973,-1.5271360874176025,0.3092654049396515,0.184343159198761,0.9297043085098267,-0.31885337829589844,0.06814397871494293,0.19288474321365356,-0.20066267251968384,0.7971268663055132,-0.5835825327248304,0.0021757430260265056,0.1549690606099262
1728331177769046800,1.962046875,-0.9831374287605286,-1.6547387838363647,0.24556021392345428,0.18186672031879425,0.9323875904083252,-0.31237462162971497,0.025484949350357056,0.2272803783416748,-0.1827121078968048,0.7939458039270723,-0.5863405588875225,-0.004175578006279879,0.1607402694480433
1728331177779078000,1.972077880859375,-1.0519353151321411,-1.7345449924468994,0.18222546577453613,0.17864535748958588,0.935089647769928,-0.30609315633773804,-0.019648805260658264,0.21343928575515747,-0.13703739643096924,0.7907581622833693,-0.5889229013678684,-0.011101312318802929,0.16657720276138246
1728331177789108700,1.982108642578125,-1.2919756174087524,-1.765796184539795,0.02868383191525936,0.17440706491470337,0.9384285807609558,-0.29821789264678955,-0.06901463866233826,0.20446991920471191,-0.057830750942230225,0.7870730552752749,-0.5920659781912975,-0.018679543002154568,0.17211881889469327
1728331177799139800,1.992139892578125,-1.3518248796463013,-1.7864491939544678,-0.14054059982299805,0.1686147302389145,0.9424489140510559,-0.2887195944786072,-0.12143458425998688,0.22715240716934204,0.023216605186462402,0.7829556155962046,-0.5957431862119652,-0.027023333680642487,0.1770317099007407
1728331177809170700,2.002170654296875,-1.0469599962234497,-1.7909177541732788,-0.25089746713638306,0.1616188883781433,0.9462535381317139,-0.280148983001709,-0.1499764770269394,0.22423279285430908,0.0324377715587616,0.7791990724129537,-0.5988719564503783,-0.03574750235007499,0.18144757873565695
1728331177819201800,2.012201904296875,-0.6295729279518127,-1.8348921537399292,-0.371153861284256,0.15366852283477783,0.9490408897399902,-0.275149405002594,-0.15426364541053772,0.21460950374603271,0.01703166961669922,0.776628103209261,-0.6003711493387306,-0.04449473545580749,0.18553543876307182
1728331177829233700,2.022233642578125,-0.24177683889865875,-1.8119703531265259,-0.5452411770820618,0.1443108171224594,0.9509063959121704,-0.27377229928970337,-0.1799553781747818,0.24727463722229004,0.046202659606933594,0.7753091020305554,-0.6002206751254371,-0.05337592062609874,0.18916084240387762
1728331177839264800,2.0322646484375,0.26269856095314026,-1.7878293991088867,-0.7036734819412231,0.13332176208496094,0.9517540335655212,-0.2763867676258087,-0.20949365198612213,0.28536754846572876,0.14293333888053894,0.7754248766901907,-0.5982726841453604,-0.06226087319669585,0.1921189410344571
1728331177849296000,2.0422958984375,0.7288766503334045,-1.747090220451355,-0.767203688621521,0.12128440290689468,0.95126873254776,-0.2835097908973694,-0.22252649068832397,0.25765448808670044,0.200990229845047,0.7770741560923725,-0.5943244701501186,-0.07087685067965598,0.19470638522859626
1728331177859326700,2.05232666015625,1.082334041595459,-1.6633667945861816,-0.8619741201400757,0.10863162577152252,0.9495680928230286,-0.29414185881614685,-0.2254071682691574,0.22659450769424438,0.24627503752708435,0.7799182238096838,-0.5887941147866748,-0.07906047385358,0.19697295776735058
1728331177869357800,2.06235791015625,1.5261434316635132,-1.5744537115097046,-1.0302186012268066,0.09479762613773346,0.946601390838623,-0.30815425515174866,-0.24279263615608215,0.2386096715927124,0.30612480640411377,0.7839980698609739,-0.5817022836956337,-0.08686380631297065,0.19855495097085246
1728331177879389000,2.072388916015625,1.8264662027359009,-1.4924038648605347,-1.1660280227661133,0.0794459879398346,0.9421617388725281,-0.3256065547466278,-0.2674190402030945,0.21529364585876465,0.3189842104911804,0.7893242147282044,-0.5729563005716544,-0.09443412058286131,0.19942556364312766
1728331177889419800,2.082419677734375,2.032897472381592,-1.3495497703552246,-1.2372702360153198,0.06329519301652908,0.9365460276603699,-0.34478268027305603,-0.2662218511104584,0.21105211973190308,0.35303768515586853,0.7953210828465507,-0.5632814207543234,-0.10160067446044532,0.19963867087175222
1728331177899451000,2.092450927734375,2.3369405269622803,-1.2534754276275635,-1.2715182304382324,0.046961501240730286,0.9294544458389282,-0.365935355424881,-0.21905013918876648,0.21261990070343018,0.412718802690506,0.802004043189792,-0.5525812323034374,-0.10810320685791082,0.19939142544818605
1728331177909481700,2.102481689453125,2.421856164932251,-1.1661770343780518,-1.367681860923767,0.030181774869561195,0.9208506345748901,-0.3887454867362976,-0.18263235688209534,0.1716938018798828,0.39704620838165283,0.8092437126102768,-0.5409133556956967,-0.11419282864950904,0.19873925293026573
1728331177919512800,2.112512939453125,2.425119161605835,-1.0553638935089111,-1.506473183631897,0.012474177405238152,0.9115082025527954,-0.41109246015548706,-0.1769334077835083,0.18134140968322754,0.45110100507736206,0.8164722551909372,-0.5291518504881645,-0.12021682724184982,0.1972794623475135
1728331177929543700,2.122543701171875,2.718329429626465,-0.9879363179206848,-1.5541906356811523,-0.0059015885926783085,0.900650680065155,-0.43450361490249634,-0.18361258506774902,0.19615095853805542,0.5524387955665588,0.8241025225416838,-0.5166083613775354,-0.12595234419967655,0.19520948116179349
1728331177939574800,2.13257470703125,3.1188571453094482,-0.8531383275985718,-1.5802806615829468,-0.02403336763381958,0.887346625328064,-0.4604761600494385,-0.16220015287399292,0.15469127893447876,0.5307581424713135,0.8324673968765626,-0.502609743814463,-0.13094031045502147,0.19296652429697064
1728331177949605600,2.142605712890625,3.7780463695526123,-0.7097522616386414,-1.6828176975250244,-0.0421290397644043,0.8704268336296082,-0.4904918670654297,-0.1322484016418457,0.13741612434387207,0.5037364959716797,0.8420350743425012,-0.48635741030937885,-0.13494639547479897,0.1903231586392433
1728331177959636700,2.15263671875,4.533152103424072,-0.5998939275741577,-1.7478506565093994,-0.06029890105128288,0.848325788974762,-0.5260297060012817,-0.154941588640213,0.13478267192840576,0.44267094135284424,0.8531595491852324,-0.46686839922120893,-0.13790957891454814,0.18743916747895123
1728331177969667600,2.16266748046875,5.244662284851074,-0.5028648972511292,-1.8613293170928955,-0.07840372622013092,0.8202646374702454,-0.5665851831436157,-0.13306783139705658,0.15802210569381714,0.36013370752334595,0.8656297104332261,-0.4440188031701411,-0.13983820519060167,0.1843305783769159
1728331177979698700,2.17269873046875,5.97039270401001,-0.43210306763648987,-1.940349817276001,-0.09655614197254181,0.7854140400886536,-0.61139315366745,-0.0953536406159401,0.21855312585830688,0.3399851322174072,0.8791802856732742,-0.41768201846271724,-0.1408728014935232,0.18093792614377655
1728331177989729500,2.1827294921875,6.519111633300781,-0.41220763325691223,-1.9037364721298218,-0.11402083188295364,0.7434756755828857,-0.6589712500572205,-0.07300614565610886,0.251778781414032,0.33217376470565796,0.8932646232171909,-0.3881100124182219,-0.14101414797260314,0.1776623392351345
1728331177999761000,2.192760986328125,6.7510600090026855,-0.41809773445129395,-1.8894938230514526,-0.13052234053611755,0.6955366730690002,-0.7065356969833374,-0.047822386026382446,0.271992564201355,0.3528064489364624,0.9070770318928618,-0.356346691422618,-0.14053180838407758,0.17458281623586283
1728331178009791700,2.202791748046875,6.63720178604126,-0.44300150871276855,-1.9082905054092407,-0.146403968334198,0.6437365412712097,-0.7511118650436401,-0.050541192293167114,0.2908337116241455,0.4266948103904724,0.9198894822961718,-0.3238405575345759,-0.139897658409365,0.17134481324460002
1728331178019823900,2.212823974609375,6.166286468505859,-0.4269959032535553,-1.9785445928573608,-0.1618674397468567,0.5911523103713989,-0.79015052318573,-0.07023400068283081,0.2796515226364136,0.494831919670105,0.9311378335592079,-0.2923390385796997,-0.1395084877899498,0.16750384651552738
1728331178029854700,2.222854736328125,5.558945178985596,-0.3690001666545868,-1.9814618825912476,-0.176377534866333,0.5403007864952087,-0.8227794170379639,-0.0725543349981308,0.23495244979858398,0.5401256084442139,0.940678424027911,-0.26307613476957437,-0.13928832240098546,0.16283023918214956
1728331178039885800,2.2328857421875,4.808554172515869,-0.32536134123802185,-1.9013347625732422,-0.18932490050792694,0.4931717813014984,-0.8490804433822632,-0.07504886388778687,0.1688612699508667,0.5465139150619507,0.9485129995184629,-0.23683503820620685,-0.1391723214245309,0.15768065313434187
1728331178049916700,2.242916748046875,4.044961929321289,-0.3308669626712799,-1.821234107017517,-0.20096111297607422,0.4514312446117401,-0.8693816661834717,-0.05296038091182709,0.114898681640625,0.5270507335662842,0.9547315303760755,-0.2141886900744551,-0.13940007642166063,0.15224468254328855
1728331178059947800,2.25294775390625,3.5217132568359375,-0.2781776487827301,-1.7494301795959473,-0.2114456743001938,0.4146837294101715,-0.8850582242012024,-0.02410423755645752,0.0826306939125061,0.48269927501678467,0.9597027881016297,-0.1946727594939679,-0.13990494730670508,0.14662725782224365
1728331178069978600,2.262978515625,3.2046775817871094,-0.25822001695632935,-1.7055284976959229,-0.22075006365776062,0.3808775842189789,-0.8978873491287231,0.020966753363609314,0.03283396363258362,0.37176430225372314,0.9638947155401765,-0.17705166365610805,-0.14038891346764198,0.14089165999312003
1728331178080009700,2.273009765625,2.8273732662200928,-0.29320278763771057,-1.6047981977462769,-0.2293674796819687,0.349802166223526,-0.9083110690116882,0.03330731391906738,0.005925983190536499,0.20837515592575073,0.9674064222648476,-0.16107928923211043,-0.14106002885275237,0.13520444207911841
1728331178090040600,2.28304052734375,2.4796488285064697,-0.43601953983306885,-1.4560213088989258,-0.23791071772575378,0.3221002519130707,-0.9163241386413574,0.06020687520503998,-0.005327790975570679,0.16992521286010742,0.9701983466428884,-0.14694468262491137,-0.14228561017822508,0.12991218427118378
1728331178100071700,2.29307177734375,2.1544389724731445,-0.5646579265594482,-1.3352530002593994,-0.24694764614105225,0.297329306602478,-0.922286331653595,0.11270081996917725,-0.08430135250091553,0.12696778774261475,0.9723566709759673,-0.13432011521526294,-0.14427379870505969,0.1251619640862779
1728331178110102500,2.3031025390625,1.612488031387329,-0.5838783383369446,-1.2833716869354248,-0.25629955530166626,0.27651116251945496,-0.9262030720710754,0.13097915053367615,-0.18920034170150757,0.11908942461013794,0.9739464822499536,-0.12377360989251071,-0.14689645749967623,0.12053867791262637
1728331178120134000,2.3131337890625,1.105692982673645,-0.45792412757873535,-1.1980218887329102,-0.264589786529541,0.2608836889266968,-0.9284029006958008,0.08838129043579102,-0.23022878170013428,0.24873065948486328,0.9750923226140968,-0.11603454754211598,-0.1494474274582366,0.11574270555481968
1728331178130164700,2.323164794921875,0.8506821393966675,-0.4564482569694519,-1.0206851959228516,-0.2720131576061249,0.24900591373443604,-0.9295186400413513,0.028727024793624878,-0.22720111906528473,0.3169850707054138,0.9758985772105404,-0.11025412248754288,-0.15193653763591322,0.11127092408101336
1728331178140195800,2.33319580078125,0.7729452252388,-0.5097509026527405,-0.7437663078308105,-0.2789878249168396,0.23934240639209747,-0.9299898147583008,0.0177115797996521,-0.2822195887565613,0.2730379104614258,0.9764080350706279,-0.10550277304357829,-0.15451301579135712,0.10780610309750864
1728331178150227000,2.34322705078125,0.0007009694818407297,-0.4285888075828552,-0.6412164568901062,-0.28538966178894043,0.23352399468421936,-0.9295263886451721,0.05576014518737793,-0.37915387749671936,0.2705908417701721,0.9765873696486739,-0.10265205565782917,-0.15716031723974377,0.10507295998357012
1728331178160257800,2.3532578125,-0.4570274353027344,-0.49578142166137695,-0.600361704826355,-0.2910211980342865,0.23412948846817017,-0.9276260137557983,0.08479869365692139,-0.44097763299942017,0.22765958309173584,0.9764215347188366,-0.10318951664740267,-0.15980899101255724,0.10204857384123446
1728331178170289000,2.363288818359375,-0.7687888145446777,-0.5811779499053955,-0.5809614062309265,-0.2975238561630249,0.23811788856983185,-0.9245428442955017,0.1176685094833374,-0.45393818616867065,0.1499609351158142,0.9759536444130672,-0.10545878129982132,-0.16311663275620092,0.0989234571183182
1728331178180319700,2.37331982421875,-0.948681652545929,-0.6229429244995117,-0.5168103575706482,-0.30454471707344055,0.24450184404850006,-0.9205820560455322,0.17945322394371033,-0.42830923199653625,-0.010997474193572998,0.9752473429332398,-0.10895922395268089,-0.16684380526813017,0.09583051783869354
1728331178190350800,2.383350830078125,-1.0854027271270752,-0.7108440399169922,-0.44606858491897583,-0.31179407238960266,0.2524122893810272,-0.9160090088844299,0.20190027356147766,-0.23242324590682983,-0.09970754384994507,0.9743491781564291,-0.11322633133341839,-0.1708077980898485,0.09299432462707387
1728331178200381700,2.393381591796875,-1.0487844944000244,-0.8560054898262024,-0.41530507802963257,-0.3201921284198761,0.26093247532844543,-0.9107092022895813,0.2083604633808136,-0.08489182591438293,-0.1737024188041687,0.9732320569691918,-0.11775698189295424,-0.1754385737497959,0.09040981336343201
1728331178210412800,2.403412841796875,-0.920623779296875,-0.9937258958816528,-0.3614511489868164,-0.3296634554862976,0.2686578929424286,-0.9050662517547607,0.203717440366745,-0.06127569079399109,-0.14296841621398926,0.9719854383189716,-0.121811385475646,-0.1806346029108411,0.08818939745294538
1728331178220444700,2.413444580078125,-0.7291936278343201,-1.0478596687316895,-0.25386103987693787,-0.3398665487766266,0.27507275342941284,-0.8993473649024963,0.1868666708469391,-0.09848278760910034,-0.05270951986312866,0.9706603362129231,-0.12508735830522824,-0.186224236569944,0.0865571521536571
1728331178230475800,2.423475830078125,-0.6639978885650635,-0.9172751307487488,-0.028453487902879715,-0.34896767139434814,0.280798077583313,-0.8940771818161011,0.12843242287635803,-0.08717930316925049,-0.029384732246398926,0.9693623842922681,-0.12788618628764295,-0.19132834984891678,0.08587842154539879
1728331178240506600,2.433506591796875,-0.4789540469646454,-0.700343906879425,-0.02895735763013363,-0.35670751333236694,0.2860258221626282,-0.8893530964851379,0.08198830485343933,0.017700403928756714,0.016519904136657715,0.9681521367115935,-0.13037194462106444,-0.19577179152701563,0.08577859670878511
1728331178250538000,2.4435380859375,-0.030291033908724785,-0.2917250990867615,-0.11214492470026016,-0.36096033453941345,0.2881585359573364,-0.8869454860687256,0.01112210750579834,0.11264407634735107,0.17501616477966309,0.9675555862319256,-0.1314029554928784,-0.19814268897147158,0.08549194116175528
1728331178260568800,2.45356884765625,0.8704363703727722,-0.29020601511001587,-0.17958973348140717,-0.3642371594905853,0.2841334640979767,-0.8869044184684753,-0.12357103824615479,0.16905257105827332,0.10342663526535034,0.9675618104618419,-0.1292312379841052,-0.19961733385224312,0.08530083767277366
1728331178270600000,2.463599853515625,1.8887795209884644,-0.07434963434934616,-0.09881580621004105,-0.3660930395126343,0.271014004945755,-0.8902400135993958,-0.17753183841705322,0.2122928500175476,0.12292128801345825,0.9683501195545049,-0.12215683846855921,-0.19989422249116956,0.08612765404301798
1728331178280630800,2.473630859375,2.2083027362823486,-0.17189615964889526,-0.10226326435804367,-0.3674796521663666,0.2520878314971924,-0.8952152729034424,-0.13779985904693604,0.23411819338798523,0.05608874559402466,0.9694804823279576,-0.11192216471911738,-0.19966418798849467,0.08783527314771196
1728331178290662000,2.483661865234375,2.4662625789642334,-0.331281453371048,-0.22675591707229614,-0.36997121572494507,0.23045790195465088,-0.9000058174133301,-0.11489203572273254,0.3408769369125366,-0.024112224578857422,0.9705611565245991,-0.10029104681210896,-0.19984695674315056,0.08952027408180002
1728331178300692700,2.493692626953125,2.183245897293091,-0.44172194600105286,-0.3580913245677948,-0.37440598011016846,0.20779657363891602,-0.903681755065918,-0.06349071860313416,0.3071417808532715,0.15966320037841797,0.97140369495707,-0.0882070955092884,-0.20094434122864432,0.09063997463838708
1728331178310723800,2.503723876953125,1.1003082990646362,-0.31861892342567444,-0.28968244791030884,-0.3784400522708893,0.19138842821121216,-0.9056233167648315,-0.03968125581741333,0.09334059059619904,0.29475295543670654,0.9718864005041894,-0.07957371938909223,-0.202129569353311,0.09082094683400095
1728331178320754700,2.513754638671875,0.1406174600124359,-0.15189412236213684,-0.13717517256736755,-0.3812260329723358,0.1852809488773346,-0.9057249426841736,-0.08204606175422668,-0.1441432386636734,0.4007658362388611,0.9719397997753919,-0.07638555882235928,-0.20323082464225195,0.09052912173428537
1728331178330785800,2.523785888671875,-0.5700736045837402,0.184133380651474,-0.2798183560371399,-0.3814004361629486,0.18647164106369019,-0.9054071307182312,-0.108162522315979,-0.4462830424308777,0.5729944109916687,0.9719663969291565,-0.07723434270181459,-0.20330100716913613,0.08935831815100014
1728331178340816600,2.533816650390625,-1.1333147287368774,0.37952232360839844,-0.4174736738204956,-0.379445880651474,0.19314932823181152,-0.9048282504081726,-0.1955205202102661,-0.5213048458099365,0.4402133822441101,0.9720704574356777,-0.08132437276813556,-0.20241597753216484,0.08656256697292047
1728331178350847700,2.54384765625,-0.7157722115516663,0.2846289277076721,-0.17746666073799133,-0.37688347697257996,0.20081867277622223,-0.9042293429374695,-0.19347479939460754,-0.21307148039340973,0.276620090007782,0.9721541833373453,-0.08592700588467958,-0.2012507812558615,0.08385081364682821
1728331178360878600,2.553878662109375,-0.2914515435695648,-0.014243528246879578,0.17511534690856934,-0.3757091760635376,0.20506873726844788,-0.903764009475708,0.053855568170547485,-0.020681515336036682,0.013993501663208008,0.9720761275370606,-0.08825711978185621,-0.20081998410384194,0.08336685913277156
1728331178370909700,2.56390966796875,-0.33819079399108887,-0.287227064371109,0.17934072017669678,-0.3766134977340698,0.2084886133670807,-0.9026044607162476,0.3451956510543823,0.012687548995018005,-0.38531363010406494,0.9717112094804957,-0.08982560138476216,-0.20156672255982117,0.08413969909045908
1728331178380940800,2.57394091796875,-0.5707982182502747,-0.5000181198120117,-0.13030821084976196,-0.38025256991386414,0.2126428186893463,-0.9001061320304871,0.49264881014823914,0.08468995988368988,-0.45467597246170044,0.9710801429826571,-0.09186385177293946,-0.2037350554163509,0.0840024527505018
1728331178390971600,2.5839716796875,-0.7443479895591736,-0.7034395337104797,-0.2953512370586395,-0.3860791027545929,0.21772143244743347,-0.8964040875434875,0.5109112858772278,0.09882216155529022,-0.38515108823776245,0.9702580726726819,-0.09460323046001008,-0.20699801963799577,0.08247018352922071
1728331178401002800,2.594002685546875,-0.8809929490089417,-0.9335129261016846,-0.3133792281150818,-0.39412498474121094,0.22376103699207306,-0.8914014101028442,0.4864101707935333,0.057076990604400635,-0.24882686138153076,0.9691314123890924,-0.0978721808796211,-0.21147183131682068,0.08052851106986367
1728331178411033900,2.604033935546875,-1.1857359409332275,-0.9988135099411011,-0.36278674006462097,-0.4036155939102173,0.23158881068229675,-0.8851333856582642,0.3940941393375397,-0.012701466679573059,-0.05798184871673584,0.9676948250947569,-0.10211366800520673,-0.2168089418136702,0.07831565646273943
1728331178421065700,2.614065673828125,-1.3942934274673462,-0.7469851970672607,-0.4691416621208191,-0.4125363826751709,0.24139021337032318,-0.8783760070800781,0.16505414247512817,-0.036647796630859375,0.1963234543800354,0.9661858585577547,-0.10762307598766656,-0.22187667011870807,0.07531758970553813
1728331178431096800,2.624096923828125,-1.3910129070281982,-0.28865376114845276,-0.41917943954467773,-0.41824501752853394,0.2518559396266937,-0.8727197051048279,-0.13410785794258118,0.014272570610046387,0.34345340728759766,0.9649891962035264,-0.11374234059033217,-0.2251729062168751,0.07180189853354048
1728331178441127700,2.634127685546875,-1.1256924867630005,0.12003464996814728,-0.2563958466053009,-0.41995251178741455,0.26147496700286865,-0.869063138961792,-0.37281784415245056,0.08497586846351624,0.331221342086792,0.9642619697229446,-0.11944356446610561,-0.2262778829025222,0.06877647218499919
1728331178451158800,2.64415869140625,-0.4933498799800873,0.3390136957168579,0.021829655393958092,-0.4179377853870392,0.2682141363620758,-0.8679799437522888,-0.44157445430755615,0.1354418396949768,0.16248983144760132,0.9641074566549583,-0.1234449420340404,-0.22532506728053453,0.06698271617340162
1728331178461189600,2.654189697265625,0.19071152806282043,0.21141420304775238,0.33865419030189514,-0.4150165319442749,0.2700728476047516,-0.8688048720359802,-0.3356395661830902,0.1378556191921234,0.029373109340667725,0.9642755986766933,-0.124332874016888,-0.2239171767800602,0.06763779054551643
1728331178471220700,2.664220703125,0.18873584270477295,0.22064514458179474,0.30092519521713257,-0.41225913166999817,0.2695706784725189,-0.8702723979949951,-0.09331029653549194,-0.03547033667564392,-0.13012433052062988,0.9645265195049794,-0.12371071473562685,-0.22261955500383043,0.06945967141494314
1728331178481251800,2.674251953125,0.0069740451872348785,0.09966013580560684,-0.021648578345775604,-0.41043999791145325,0.26929476857185364,-0.8712171316146851,0.03823235630989075,-0.15299227833747864,-0.04188406467437744,0.9647214912259375,-0.12345022224650268,-0.22170129546344786,0.07014982948383398
1728331178491282700,2.68428271484375,-0.34558799862861633,-0.022951211780309677,-0.1597025841474533,-0.4104383587837219,0.2702913284301758,-0.8709092736244202,0.02913650870323181,-0.15256977081298828,0.07043319940567017,0.964694789190801,-0.124141669755463,-0.22166239814790226,0.06941567608900916
1728331178501313800,2.694313720703125,-0.14055734872817993,0.01633201166987419,-0.12454992532730103,-0.4109845757484436,0.2722775638103485,-0.8700324892997742,0.014683336019515991,-0.08193942904472351,-0.037316083908081055,0.9645394140140261,-0.12540278243449057,-0.22194117793834017,0.06840939685288293
1728331178511344600,2.7043447265625,0.40236079692840576,0.11780015379190445,-0.10158921778202057,-0.4107497036457062,0.27068692445755005,-0.8706395626068115,-0.03233501315116882,0.05394381284713745,-0.15983223915100098,0.9647273784342503,-0.12467298586994599,-0.22166837523464758,0.0679754784946015
1728331178521375700,2.714375732421875,1.0975712537765503,0.251757949590683,-0.05911419168114662,-0.4093207120895386,0.2638765871524811,-0.8733989000320435,-0.16158688068389893,0.22699865698814392,-0.23707473278045654,0.9654222058769131,-0.12107012879913329,-0.22055059523063938,0.0682586968697482
1728331178531406800,2.72440673828125,1.7274775505065918,0.2130453884601593,0.054721295833587646,-0.40728092193603516,0.2512936294078827,-0.8780511021614075,-0.20250603556632996,0.3367190659046173,-0.12394779920578003,0.9665252768716822,-0.11421713385224709,-0.21892671028618763,0.06967201212179666
1728331178541438000,2.73443798828125,2.0129873752593994,0.23304760456085205,0.10614639520645142,-0.4052430987358093,0.2350827157497406,-0.8834670782089233,-0.12139871716499329,0.281000018119812,-0.034898340702056885,0.96775173810798,-0.10528855830664646,-0.21721135154854687,0.07204122105031534
1728331178551468800,2.74446875,2.07824444770813,0.38394874334335327,0.057831067591905594,-0.4022795259952545,0.21706588566303253,-0.8894119262695312,-0.038836777210235596,0.16786758601665497,0.21338653564453125,0.9690981972252762,-0.09546718105265951,-0.21489546547327312,0.07452865295950682
1728331178561500000,2.7545,2.1171700954437256,0.4440251290798187,0.06731271743774414,-0.3984099328517914,0.19869937002658844,-0.8954262137413025,-0.01908576488494873,0.13713133335113525,0.2521461844444275,0.9704682903366652,-0.0855838911867545,-0.21204316534951936,0.07683922267217355
1728331178571530800,2.76453076171875,2.126420259475708,0.19844236969947815,0.09976067394018173,-0.39518672227859497,0.1796826422214508,-0.9008560180664062,0.04640135169029236,0.07864867150783539,0.15219879150390625,0.9716600872049319,-0.07534085126676231,-0.20951311583078883,0.0794013568783618
1728331178581561900,2.774561767578125,1.6948350667953491,-0.07739479839801788,0.11488955467939377,-0.3944832682609558,0.1626836061477661,-0.9043875932693481,0.17971587181091309,-0.04892933368682861,-0.04184037446975708,0.9723578530956252,-0.06609130127150843,-0.20841816081111092,0.0819381760748478
1728331178591592700,2.7845927734375,1.219403624534607,-0.344230592250824,0.01459517888724804,-0.3963649272918701,0.1497430056333542,-0.9057990312576294,0.2882411479949951,-0.0759056955575943,-0.0047386884689331055,0.9725541831346015,-0.05896828826423078,-0.20886175729930492,0.08389112903991905
1728331178601623800,2.794623779296875,0.7442781329154968,-0.497694730758667,-0.1772027462720871,-0.4003535211086273,0.14063923060894012,-0.9055041074752808,0.3044215440750122,-0.025694742798805237,0.010682940483093262,0.9724144074902848,-0.05398978695445564,-0.21055416268585284,0.08462984313232522
1728331178611654700,2.804654541015625,0.7670571804046631,-0.6235078573226929,-0.2086448222398758,-0.4058474004268646,0.1332065612077713,-0.9041813611984253,0.20481285452842712,0.05694848299026489,0.016165614128112793,0.9720831191877216,-0.04998578888762225,-0.21309797048663043,0.08452890162057212
1728331178621685800,2.814685791015625,0.6279160976409912,-0.4821973741054535,-0.07775099575519562,-0.41113772988319397,0.12597356736660004,-0.9028269052505493,0.06303900480270386,0.04086604714393616,0.061869263648986816,0.9717159216866904,-0.04602051482621701,-0.21556591498473524,0.08474398067329848
1728331178631716600,2.824716552734375,0.22065941989421844,-0.3147332966327667,-0.023329300805926323,-0.41489627957344055,0.12197577208280563,-0.9016556739807129,-0.06459584832191467,-0.09571538120508194,0.1650681495666504,0.9713841686385111,-0.04374151005829619,-0.21739099044061466,0.0850912686107291
1728331178641748700,2.834748779296875,-0.44332683086395264,-0.0943966880440712,-0.08514100313186646,-0.4167831838130951,0.12244224548339844,-0.9007217288017273,-0.20119774341583252,-0.23970600962638855,0.4180557131767273,0.9711681827957455,-0.0439640559119795,-0.21841769407103379,0.08481286738287044
1728331178651781000,2.844781005859375,-1.6571056842803955,0.03207550197839737,-0.10746894776821136,-0.4171428382396698,0.13129094243049622,-0.8993078470230103,-0.3051776885986328,-0.40262269973754883,0.6049352884292603,0.9709448644008845,-0.04884699745778685,-0.21899785613218026,0.08318680473177835
1728331178661812000,2.85481201171875,-3.0732712745666504,0.12655887007713318,-0.0476791113615036,-0.41663122177124023,0.15220896899700165,-0.896242618560791,-0.3348793685436249,-0.5009180307388306,0.676638126373291,0.9704078314640017,-0.060275535157599966,-0.21964871789582507,0.0801854719812885
1728331178671843000,2.864843017578125,-4.397400379180908,0.3401409983634949,0.02758980728685856,-0.4146696627140045,0.1858965903520584,-0.8907814025878906,-0.2945130467414856,-0.5677019953727722,0.6915779113769531,0.9693450795346809,-0.07865797149218613,-0.22005050883857294,0.07589885254123223
1728331178681874000,2.8748740234375,-4.308282375335693,0.31057214736938477,0.2947029769420624,-0.41096869111061096,0.22648949921131134,-0.8830669522285461,-0.27167895436286926,-0.5890535712242126,0.5129650235176086,0.9676891350471221,-0.10078800682394004,-0.21979152075818587,0.07149180775033251
1728331178691905000,2.884905029296875,-3.0886595249176025,-0.30867937207221985,0.09079007804393768,-0.41071805357933044,0.2600463330745697,-0.8738916516304016,-0.22604644298553467,-0.4734252691268921,-0.2844030261039734,0.9655200878370297,-0.11893569582460065,-0.2211526365746614,0.06867818737933735
1728331178701936000,2.89493603515625,-1.7846237421035767,-0.4411660432815552,-0.520414412021637,-0.41461482644081116,0.28051453828811646,-0.8656824231147766,-0.036297619342803955,0.022769153118133545,-1.2753239870071411,0.9636492872053642,-0.13045103527531215,-0.22392254449881047,0.06496987123662308
1728331178711967000,2.904967041015625,-0.18457302451133728,-0.7468366622924805,-0.31486237049102783,-0.42105504870414734,0.2870807647705078,-0.8604052662849426,0.06717324256896973,0.7720928192138672,-0.8570019006729126,0.9624753386127186,-0.13448868920129983,-0.22739864852303465,0.0619983269219615
1728331178721998000,2.914998046875,0.6626815795898438,-0.9786949157714844,0.07249283045530319,-0.4289438724517822,0.28386813402175903,-0.8575698137283325,0.3440134823322296,0.8439089059829712,-0.432515025138855,0.9617074703132469,-0.13253788314390622,-0.2316221072531078,0.062478501141148945
1728331178732029000,2.92502880859375,0.1208127960562706,-0.7814570665359497,0.035153187811374664,-0.4365904629230499,0.28018397092819214,-0.8549185395240784,0.5408843755722046,0.4330423176288605,-0.20308011770248413,0.96091805582004,-0.1300826892755853,-0.23583728729837397,0.06399830312554383
1728331178742060000,2.93506005859375,-0.9683436155319214,-0.22385793924331665,-0.189462348818779,-0.44113269448280334,0.28356605768203735,-0.8514647483825684,0.32565420866012573,0.016894757747650146,0.19681692123413086,0.9600560450579825,-0.13192428767303951,-0.23846089700354148,0.06344151762437046
1728331178752091000,2.9450908203125,-1.451303482055664,0.04500195384025574,-0.2901857793331146,-0.4424443244934082,0.29317566752433777,-0.8475205302238464,-0.004912823438644409,-0.27578064799308777,0.33174294233322144,0.9592026408130211,-0.13766366411772,-0.23935005528332873,0.06074984819300878
1728331178762122000,2.9551220703125,-1.5198122262954712,0.05979021638631821,-0.2256978452205658,-0.44286051392555237,0.3044036626815796,-0.843334436416626,-0.19115740060806274,-0.3255828619003296,0.14770150184631348,0.9583005173841812,-0.14439313186440197,-0.2397569763436671,0.05768264420289371
1728331178772152800,2.96515283203125,-1.157204270362854,0.08844514191150665,-0.024369796738028526,-0.4424611032009125,0.3157425820827484,-0.8393656611442566,-0.17762553691864014,-0.0397568941116333,-0.08115124702453613,0.957407727957518,-0.15105532678836678,-0.23979041829531464,0.0552555693242165
1728331178782184000,2.975183837890625,-0.20879347622394562,-0.044653259217739105,0.10370294749736786,-0.44224807620048523,0.32151132822036743,-0.8372855186462402,-0.10702252388000488,0.34955495595932007,-0.08106470108032227,0.9568935508304106,-0.15427091798300513,-0.2399118934149697,0.054748505032673145
1728331178792214800,2.98521484375,-0.07620226591825485,0.03180912882089615,-0.024542370811104774,-0.44220414757728577,0.3224525451660156,-0.8369467258453369,-0.018122971057891846,0.3065910339355469,-0.16203093528747559,0.9567991957715659,-0.1547499078113541,-0.2399564718970222,0.0548503036303606
1728331178802246000,2.995245849609375,-0.046139441430568695,0.08722711354494095,-0.038391873240470886,-0.441852867603302,0.3230386972427368,-0.8369061946868896,-0.01421704888343811,0.17294824123382568,-0.05490899085998535,0.9568097989092601,-0.15516012008503063,-0.23973366077810898,0.05447972430470864
1728331178812277000,3.005277099609375,0.2147882878780365,0.10247594863176346,0.029112601652741432,-0.4411684572696686,0.32229822874069214,-0.837552547454834,0.0011507868766784668,0.0030496716499328613,0.11189031600952148,0.9569762907787039,-0.15475948873948236,-0.239318282977885,0.05452132976926081
1728331178822308000,3.01530810546875,0.5153084397315979,0.2732897698879242,-0.03774099424481392,-0.4395658075809479,0.3193627595901489,-0.8395172953605652,0.030843913555145264,-0.17254269123077393,0.058725059032440186,0.9574741720643456,-0.1531373878744206,-0.23830715290515264,0.05478766532870081
1728331178832339000,3.0253388671875,1.0037834644317627,0.30076974630355835,-0.07604551315307617,-0.4372691810131073,0.3127433955669403,-0.8432005643844604,-0.04893684387207031,-0.04698106646537781,0.04364001750946045,0.9584147928869553,-0.14953537536175246,-0.23672534689489722,0.055147385149934516
1728331178842370000,3.0353701171875,1.503329873085022,0.18703334033489227,-0.047942765057086945,-0.43539124727249146,0.3017359972000122,-0.8481684923171997,-0.12831416726112366,0.1907871961593628,-0.05423629283905029,0.9596509794131295,-0.14344405583876021,-0.2352435915682869,0.05616207943873772
1728331178852401000,3.04540087890625,1.5748825073242188,0.0696059912443161,-0.005063210614025593,-0.4344298541545868,0.2881720960140228,-0.8533624410629272,-0.11767885088920593,0.2896324396133423,-0.08262687921524048,0.9609068205254414,-0.1358626676647237,-0.23422233651010596,0.057785609811163804
1728331178862433000,3.05543310546875,1.2195872068405151,-0.03490070998668671,0.04820134490728378,-0.43421053886413574,0.2761276960372925,-0.8574466109275818,-0.08350488543510437,0.255961537361145,-0.019506514072418213,0.9618618922535255,-0.12907180861571815,-0.23370315164893637,0.059539583351406335
1728331178872464000,3.0654638671875,0.7291921377182007,-0.1449757069349289,0.08211643248796463,-0.43489113450050354,0.26804229617118835,-0.8596644401550293,-0.03193622827529907,0.12561920285224915,0.0839228630065918,0.9623428774565196,-0.12442792835797273,-0.23384921957691934,0.061059951239694966
1728331178882495000,3.075494873046875,0.47446346282958984,-0.15268369019031525,0.10326618701219559,-0.4359723925590515,0.26342126727104187,-0.860544741153717,0.0311262309551239,-0.05565762519836426,0.15024811029434204,0.96249286454137,-0.12167706324007042,-0.23435510842229962,0.06228724380861876
1728331178892525800,3.08552587890625,0.4965502619743347,-0.1466478556394577,0.12543009221553802,-0.43692120909690857,0.25985419750213623,-0.8611478209495544,0.06396591663360596,-0.15253913402557373,0.14293187856674194,0.9625723622287136,-0.11949503268344253,-0.23483402038008486,0.06346813692448748
1728331178902557000,3.095556884765625,0.7102090120315552,-0.22325767576694489,0.11808402091264725,-0.438213586807251,0.2551772892475128,-0.8618894219398499,0.07445934414863586,-0.16252592206001282,0.07543617486953735,0.9626696772593869,-0.11666258993753983,-0.23546790801469092,0.06489679561934268
1728331178912587800,3.105587890625,0.6385325789451599,-0.2636006772518158,0.05165919288992882,-0.44016367197036743,0.24955089390277863,-0.8625429272651672,0.10854443907737732,-0.13477428257465363,-0.012533366680145264,0.9627455366684345,-0.11333007435696228,-0.2363997425168802,0.06627512352686063
1728331178922619000,3.115618896484375,0.7381452322006226,-0.29485952854156494,0.007356441114097834,-0.44247275590896606,0.24388721585273743,-0.862981379032135,0.13711389899253845,-0.017797738313674927,0.07756572961807251,0.9627852466617435,-0.11004592697888638,-0.237485178798905,0.06734321033455185
1728331178932649700,3.125649658203125,0.9154115319252014,-0.4059586524963379,0.017862876877188683,-0.44553446769714355,0.23671960830688477,-0.8634018898010254,0.12740400433540344,0.09052038192749023,0.10206460952758789,0.9628072872458987,-0.10591451828422363,-0.23891664263223933,0.06857846103219643
1728331178942681000,3.13568115234375,0.9010679721832275,-0.4546803832054138,0.06450015306472778,-0.44920265674591064,0.22891999781131744,-0.8636044263839722,0.07885661721229553,0.09612274169921875,0.026583552360534668,0.9627508821137369,-0.10136668233875336,-0.24067110932333396,0.07009206508095725
1728331178952712000,3.1457119140625,0.7020419239997864,-0.5138072967529297,0.09812016040086746,-0.45318615436553955,0.2222353219985962,-0.8632692098617554,0.012725979089736938,0.07907998561859131,0.05003678798675537,0.962543207756508,-0.09735819524355609,-0.2426659657059253,0.07172901200453341
1728331178962743000,3.155742919921875,0.5280709266662598,-0.579683244228363,0.07025950402021408,-0.45777595043182373,0.21748103201389313,-0.8620575070381165,-0.05287465453147888,0.029512986540794373,0.053173840045928955,0.9621217439138248,-0.09438960632158197,-0.245075202283685,0.0731458189777288
1728331178972774100,3.165774169921875,0.4998125731945038,-0.6068761944770813,0.06774122267961502,-0.4627554416656494,0.21334758400917053,-0.8604302406311035,-0.10770964622497559,-0.029921680688858032,0.10310602188110352,0.9616048682128082,-0.0917746198478542,-0.24771414786009496,0.07437150575074655
1728331178982805000,3.175804931640625,0.47381263971328735,-0.5934280157089233,0.12175411731004715,-0.4677925109863281,0.20963647961616516,-0.8586167097091675,-0.1201285719871521,-0.07657982409000397,0.12340247631072998,0.9610295457133774,-0.08934328348761406,-0.25041847800794326,0.07570010135651752
1728331178992836000,3.185836181640625,0.436976820230484,-0.5678089261054993,0.13855068385601044,-0.4725307822227478,0.20631317794322968,-0.8568252921104431,-0.09199860692024231,-0.09672455489635468,0.13122409582138062,0.9604458097427926,-0.08707523655847374,-0.2529926284318733,0.07717831312168358
1728331179002867000,3.195866943359375,0.30828914046287537,-0.5298860669136047,0.11494335532188416,-0.47699299454689026,0.2037167102098465,-0.8549720048904419,-0.07404759526252747,-0.104610875248909,0.1239997148513794,0.9598550264451294,-0.08522409280945877,-0.2554424395200373,0.07851312128500448
1728331179012898000,3.20589794921875,0.26535746455192566,-0.5125775337219238,0.04779574275016785,-0.48132726550102234,0.20168589055538177,-0.8530222177505493,-0.07223105430603027,-0.10189341008663177,0.10358679294586182,0.9592668872255765,-0.08376127271879062,-0.25782349021783724,0.07948668011400435
1728331179022929000,3.215928955078125,0.32908397912979126,-0.496194064617157,-0.0006828433834016323,-0.485612690448761,0.1993061751127243,-0.8511505722999573,-0.06313911080360413,-0.08214917778968811,0.04190075397491455,0.9587213139552512,-0.0821884556330609,-0.26013412072343883,0.08017889405048033
1728331179032960000,3.2259599609375,0.34696510434150696,-0.4175775647163391,-0.0012961691245436668,-0.48959383368492126,0.19626867771148682,-0.8495742678642273,-0.04484522342681885,-0.06043492257595062,0.019190967082977295,0.9582580813533831,-0.08029814487255166,-0.26223094448820805,0.08079897506979727
1728331179042990800,3.235990966796875,0.33846136927604675,-0.33266401290893555,-0.030672967433929443,-0.4927615225315094,0.19338558614253998,-0.84840327501297,-0.023656874895095825,-0.021968349814414978,0.02184993028640747,0.9579054759662464,-0.07853075713938627,-0.26387742585849244,0.0813550069470907
1728331179053022000,3.24602197265625,0.5155363082885742,-0.3344079256057739,-0.08534207195043564,-0.4957038462162018,0.18954232335090637,-0.8475561141967773,-0.01184922456741333,0.03398367762565613,-0.015709877014160156,0.9576515170803038,-0.07631496493500234,-0.2653261467342809,0.08174099048040857
1728331179063052800,3.256052734375,0.7496534585952759,-0.36335012316703796,-0.12161485850811005,-0.49892234802246094,0.18362848460674286,-0.8469693660736084,-0.006067246198654175,0.07058295607566833,-0.1543581485748291,0.9574574477936308,-0.07298207612589362,-0.2668125588453753,0.08221881409352827
1728331179073085200,3.266085205078125,0.8847815990447998,-0.31431397795677185,-0.17764510214328766,-0.5021008253097534,0.1759180873632431,-0.8467275500297546,0.03489202260971069,0.05867055058479309,-0.19379979372024536,0.9573493373266545,-0.06870066288513975,-0.26817242096661104,0.0827397084938302
1728331179083116000,3.276115966796875,0.9585793614387512,-0.2673264741897583,-0.24290132522583008,-0.5049448609352112,0.16702152788639069,-0.8468379378318787,0.05221658945083618,0.06752133369445801,-0.13097578287124634,0.9573505280189408,-0.06387021721634155,-0.2692612739806451,0.08305903083661272
1728331179093147100,3.286147216796875,1.0380343198776245,-0.1385124772787094,-0.2849790155887604,-0.5070990324020386,0.15727247297763824,-0.8474171757698059,0.03021615743637085,0.06016528606414795,-0.06789648532867432,0.9574891413182401,-0.058673024520875174,-0.2699053092077663,0.08320494466416968
1728331179103178000,3.296177978515625,1.033443808555603,0.006244170479476452,-0.2931639850139618,-0.5081712007522583,0.1468535214662552,-0.8486436605453491,-0.004081547260284424,0.037060678005218506,-0.08688795566558838,0.957806585865071,-0.053206102948686336,-0.2699023740334323,0.08323603381463152
1728331179113209000,3.306208984375,1.0532872676849365,0.12021495401859283,-0.2228464037179947,-0.5079702734947205,0.13676001131534576,-0.8504486083984375,-0.059549808502197266,0.057804837822914124,-0.1379547119140625,0.9582670018010562,-0.04793936899715758,-0.2692164784214373,0.08335777979687693
1728331179123240000,3.316239990234375,1.1418941020965576,0.16909967362880707,-0.19194281101226807,-0.5070047378540039,0.1262788027524948,-0.8526428937911987,-0.0733480453491211,0.06021413207054138,-0.11108696460723877,0.9587982708266407,-0.04241202728975012,-0.2681040610514453,0.08382873252067966
1728331179133271000,3.32627099609375,1.099868893623352,0.21928411722183228,-0.21377433836460114,-0.5056189894676208,0.11563529074192047,-0.8549724221229553,-0.061931610107421875,0.02263987809419632,-0.1177142858505249,0.959360803923718,-0.03681614850377406,-0.2667552225936996,0.0843382826531431
1728331179143302000,3.336302001953125,1.0380644798278809,0.3027486503124237,-0.24961143732070923,-0.5036834478378296,0.10525297373533249,-0.8574524521827698,-0.060586512088775635,0.010164521634578705,-0.00968921184539795,0.9599823870255398,-0.03145233908278506,-0.2651122631860778,0.08461621607934561
1728331179153333000,3.3463330078125,0.900398850440979,0.4344945549964905,-0.2926739752292633,-0.5008418560028076,0.0955682098865509,-0.8602465391159058,-0.06889075040817261,0.00016545504331588745,0.03718745708465576,0.9607171140583316,-0.02659648225443716,-0.26300065400055705,0.08453367021014549
1728331179163363800,3.35636376953125,0.7895039916038513,0.5485848784446716,-0.30724892020225525,-0.49685001373291016,0.08676538616418839,-0.8634881973266602,-0.08121392130851746,-0.036319807171821594,0.050972938537597656,0.9615961799824227,-0.022343111080308647,-0.2603011603358344,0.08412425751477508
1728331179173395000,3.36639501953125,0.6954849362373352,0.5113546252250671,-0.36001384258270264,-0.4924182891845703,0.07867354899644852,-0.8667956590652466,-0.09748643636703491,-0.08503644168376923,0.023518681526184082,0.9625144952260695,-0.018552103871020815,-0.25740629713515206,0.08344825506514104
1728331179183425800,3.37642578125,0.5629798769950867,0.469794362783432,-0.3841050863265991,-0.4885421693325043,0.07132863253355026,-0.8696199059486389,-0.10940396785736084,-0.09394212812185287,-0.09087508916854858,0.9633376167474784,-0.015219891474042567,-0.25486938664667763,0.08240464360845923
1728331179193457000,3.386456787109375,0.5259079337120056,0.4645535945892334,-0.35470351576805115,-0.4846939444541931,0.06488900631666183,-0.8722735643386841,-0.110597163438797,-0.04314520210027695,-0.10889708995819092,0.964125833138304,-0.012385920241806642,-0.25240800513727446,0.08122926171776705
1728331179203488000,3.396488037109375,0.4089736044406891,0.5046769976615906,-0.30500200390815735,-0.4807198643684387,0.059023018926382065,-0.8748855590820312,-0.12365022301673889,0.010633382946252823,-0.05135345458984375,0.9648865209351706,-0.00980458346361518,-0.2499221875275592,0.08022976673012745
1728331179213518800,3.406518798828125,0.07107719779014587,0.5640800595283508,-0.2817922830581665,-0.47622400522232056,0.05542460456490517,-0.8775755167007446,-0.13392919301986694,0.011118996888399124,0.07152998447418213,0.9656754320439114,-0.008440382321397016,-0.24726706077612515,0.07911135860693212
1728331179223550200,3.41655029296875,-0.6280965805053711,0.6839665174484253,-0.2777637243270874,-0.4709141254425049,0.05633990094065666,-0.8803781270980835,-0.12068435549736023,-0.07184280455112457,0.286063551902771,0.9665374727536887,-0.009569949105878182,-0.2443754184512622,0.07742282974831995
1728331179233581000,3.4265810546875,-1.5846666097640991,0.7964019775390625,-0.22693434357643127,-0.46455463767051697,0.06485781818628311,-0.8831661343574524,-0.08894264698028564,-0.21422608196735382,0.4257686734199524,0.9674655244961549,-0.014870953443978275,-0.24123803941485092,0.07478826763375689
1728331179243612200,3.436612060546875,-2.6218128204345703,0.8259377479553223,-0.14656227827072144,-0.4574833810329437,0.08260206133127213,-0.8853732943534851,-0.04051768779754639,-0.34300851821899414,0.5142032504081726,0.9683001609582763,-0.02512631911866786,-0.2380798765958436,0.07128368705624978
1728331179253643000,3.44664306640625,-3.3564367294311523,0.6900705099105835,-0.10051543265581131,-0.4507644474506378,0.1090863049030304,-0.885952353477478,0.006581157445907593,-0.397568941116333,0.4268001317977905,0.9687582292078855,-0.040030259754218755,-0.23541750422499536,0.06695979936488307
1728331179263674000,3.456674072265625,-3.1230461597442627,0.54335618019104,-0.07196661084890366,-0.4454602599143982,0.1380600780248642,-0.8845928907394409,0.030283868312835693,-0.3378128409385681,0.17364013195037842,0.9687039078954585,-0.05618623575995034,-0.23355228985800827,0.06252222977340972
1728331179273705000,3.466705078125,-2.119887113571167,0.41553783416748047,-0.09672228991985321,-0.44136202335357666,0.16107086837291718,-0.8827546238899231,0.05595555901527405,-0.13606169819831848,-0.2126738429069519,0.9684566759575626,-0.0690452156699663,-0.23206776838239995,0.05889717066350777
1728331179283736800,3.47673681640625,-1.0863797664642334,0.28579583764076233,-0.1456325650215149,-0.4384574890136719,0.17469453811645508,-0.8816103339195251,0.05237963795661926,0.22388029098510742,-0.4500699043273926,0.968315723181102,-0.07678218158150016,-0.2308664443143778,0.05630042214809384
1728331179293768000,3.486767822265625,-0.19116567075252533,0.06114092096686363,-0.08576418459415436,-0.4371192455291748,0.17956581711769104,-0.8812961578369141,0.04809644818305969,0.5419155359268188,-0.33106040954589844,0.9683145296367434,-0.07966540077938095,-0.2302289124460978,0.05490945879985275
1728331179303799000,3.496799072265625,0.10582446306943893,-0.07533063739538193,-0.02367125079035759,-0.43746283650398254,0.17928548157215118,-0.8811826705932617,0.08083447813987732,0.4993796646595001,-0.2122620940208435,0.9682970595910483,-0.07956331909254347,-0.23038736359154172,0.05469838217062847
1728331179313830000,3.506829833984375,-0.2950851619243622,-0.004360537976026535,-0.07835100591182709,-0.4379747211933136,0.1796552836894989,-0.8808530569076538,0.06692680716514587,0.1281755268573761,-0.05032980442047119,0.9682279706842739,-0.07981211724669743,-0.23065884885534518,0.05441508203373971
1728331179323861000,3.516861083984375,-0.6924431920051575,0.10492600500583649,-0.10392587631940842,-0.43775779008865356,0.18376030027866364,-0.8801137804985046,-0.04281774163246155,-0.18548452854156494,0.12448328733444214,0.9680979289159156,-0.0822059298451668,-0.2306193989534,0.05332059066919055
1728331179333891800,3.526891845703125,-0.7285147905349731,0.21823002398014069,-0.05640655755996704,-0.43652239441871643,0.18991853296756744,-0.87941974401474,-0.11149698495864868,-0.25135040283203125,0.194147527217865,0.9679909214373459,-0.08574093853164308,-0.23008392436663241,0.05199328170459349
1728331179343923000,3.5369228515625,-0.4304197430610657,0.2945764660835266,0.027525892481207848,-0.4342489242553711,0.1950817108154297,-0.8794151544570923,-0.09991547465324402,-0.11057853698730469,0.18980944156646729,0.9680357635116996,-0.08866766597649674,-0.22897703395111188,0.05112908340543676
1728331179353954000,3.5469541015625,-0.11674276739358902,0.29106855392456055,0.08671091496944427,-0.43154463171958923,0.1976601630449295,-0.8801702260971069,-0.05817088484764099,0.084795281291008,0.1796087622642517,0.9682382183563325,-0.09008710853015155,-0.22759437115836256,0.050986778102984597
1728331179363985200,3.556985107421875,0.07089503854513168,0.2626153528690338,0.12158767133951187,-0.428905725479126,0.1983398050069809,-0.881306529045105,0.0014460086822509766,0.1928497850894928,0.13049781322479248,0.9685129306182015,-0.09040264981716487,-0.2262169525702937,0.051339067639113674
1728331179374016000,3.56701611328125,0.1496841311454773,0.22377020120620728,0.08673541992902756,-0.4265824556350708,0.19770503044128418,-0.8825758099555969,0.06850448250770569,0.17134405672550201,0.0030745267868041992,0.9688106544470626,-0.08998226777609962,-0.2249783840235751,0.05190157884056549
1728331179384047000,3.577047119140625,0.06926251947879791,0.15087363123893738,0.06354247778654099,-0.42474493384361267,0.1970261186361313,-0.8836132884025574,0.10040414333343506,0.09952846169471741,-0.018455803394317627,0.9690571346210088,-0.08957092179180488,-0.2239875130964135,0.05229629551400093
1728331179394078000,3.587077880859375,-0.08493930101394653,0.05719614028930664,0.06775692850351334,-0.42377611994743347,0.19729506969451904,-0.8840183615684509,0.08570241928100586,0.05716051161289215,0.015442311763763428,0.9691469877587987,-0.08966540135841243,-0.22349706158246996,0.05256704103035389
1728331179404109000,3.597109130859375,-0.30693748593330383,0.043510422110557556,0.07366062700748444,-0.42325296998023987,0.1993444710969925,-0.8838092088699341,0.054173409938812256,-0.004474461078643799,0.05698120594024658,0.9690873321530703,-0.09071428118662699,-0.2233076687315117,0.05267250516620209
1728331179414140000,3.607139892578125,-0.4929821193218231,0.10077781230211258,0.09127743542194366,-0.4225158989429474,0.20327062904834747,-0.8832674026489258,-0.0032958388328552246,-0.04732578992843628,0.10751062631607056,0.9689527225864565,-0.09278824397546209,-0.2230619324722791,0.052576854805493935
1728331179424171000,3.6171708984375,-0.51819908618927,0.15649354457855225,0.15925197303295135,-0.4211249351501465,0.20840132236480713,-0.8827359080314636,-0.04907462000846863,-0.05140364170074463,0.15196198225021362,0.9688172677111394,-0.09548580559500738,-0.2225185623011055,0.05254557084584383
1728331179434201900,3.627201904296875,-0.3253837823867798,0.20713189244270325,0.18118229508399963,-0.4191353917121887,0.2129685878753662,-0.8825927376747131,-0.04428926110267639,-0.03595136106014252,0.13001400232315063,0.9687650556055137,-0.09783061976844676,-0.22165923091370954,0.0528261594384811
1728331179444233000,3.63723291015625,-0.23801347613334656,0.2691188454627991,0.18235436081886292,-0.4166434109210968,0.2160346657037735,-0.8830273151397705,-0.02038353681564331,-0.0007026344537734985,0.11963009834289551,0.9688521131043945,-0.09936389804868392,-0.22048388873833924,0.05328466829839716
1728331179454263800,3.647263916015625,-0.07404211163520813,0.18295812606811523,0.17991863191127777,-0.4141964912414551,0.2183631956577301,-0.8836055397987366,-0.009524792432785034,0.06699143350124359,0.10856586694717407,0.9689695589243894,-0.1004878376533556,-0.21931580210753968,0.053858130177827486
1728331179464295000,3.657294921875,0.07482007145881653,0.062346480786800385,0.13124589622020721,-0.4127599895000458,0.21882589161396027,-0.8841630816459656,0.014963418245315552,0.08976785838603973,-0.02402472496032715,0.9690726094962321,-0.1005894554684938,-0.21863259410903463,0.05458682094221567
1728331179474326000,3.667325927734375,-0.020488670095801353,-0.08135348558425903,0.06585410237312317,-0.4127007722854614,0.2189389020204544,-0.8841627836227417,0.022075772285461426,0.027124330401420593,-0.0993272066116333,0.9690433275094528,-0.10053274320760236,-0.21865903695323402,0.055103435617135696
1728331179484358100,3.677358154296875,-0.12757571041584015,-0.17342694103717804,0.04524443671107292,-0.4137575626373291,0.2198093831539154,-0.8834525942802429,-0.002883613109588623,-0.015402629971504211,-0.10221940279006958,0.9688476642264705,-0.10091695204280243,-0.21929311826804226,0.05532111306740021
1728331179494389000,3.687388916015625,-0.25979846715927124,-0.2143581360578537,0.10355913639068604,-0.4153837263584137,0.22180835902690887,-0.8821889758110046,-0.040258944034576416,-0.044485971331596375,-0.08926182985305786,0.9685080957827135,-0.10187391279542647,-0.2202889273843348,0.0555564386741317
1728331179504420000,3.697420166015625,-0.40111058950424194,-0.18759843707084656,0.16844147443771362,-0.41690772771835327,0.2253568321466446,-0.8805692195892334,-0.05983784794807434,-0.05520607531070709,-0.039459407329559326,0.9680667640321348,-0.10360253431178675,-0.22131852850870043,0.05595666608380125
1728331179514451000,3.707450927734375,-0.2998424172401428,-0.12017880380153656,0.20147399604320526,-0.41787874698638916,0.22936393320560455,-0.8790730834007263,-0.05717310309410095,-0.03360891342163086,0.04452413320541382,0.9676456865897282,-0.10553664090181689,-0.22209339012648496,0.056552307075344886
1728331179524482000,3.71748193359375,-0.1410708725452423,-0.07898848503828049,0.16296520829200745,-0.4182952642440796,0.23201408982276917,-0.8781790733337402,-0.032067835330963135,-0.007603079080581665,0.058797359466552734,0.9673727177731694,-0.10674687796543514,-0.2225209267449799,0.057266650436307846
1728331179534513000,3.727512939453125,-0.0044073727913200855,-0.09412504732608795,0.12771853804588318,-0.4187541902065277,0.23328010737895966,-0.8776248097419739,-0.0031512975692749023,0.040615156292915344,0.06097441911697388,0.9671914078407671,-0.10725133395073246,-0.22290074042385496,0.0579068606419859
1728331179544544000,3.7375439453125,0.10851891338825226,-0.13259387016296387,0.15553872287273407,-0.4194314181804657,0.23327688872814178,-0.8773022294044495,0.015561819076538086,0.07931467890739441,0.08994871377944946,0.967059919140423,-0.10705274275699811,-0.223357576109098,0.0587041923294245
1728331179554574800,3.747574951171875,-0.002249080454930663,-0.1632750928401947,0.15329954028129578,-0.42043474316596985,0.23340333998203278,-0.8767881393432617,0.027749836444854736,0.043803080916404724,0.018771231174468994,0.9668710971025645,-0.10688772392223837,-0.22401100946985308,0.05961768468206555
1728331179564606000,3.75760595703125,-0.14843346178531647,-0.16669031977653503,0.11290949583053589,-0.4216076731681824,0.23459172248840332,-0.875907301902771,0.0051038265228271484,-0.020022645592689514,-0.04897361993789673,0.9666029681066065,-0.10733358084103967,-0.2247795344544047,0.060267518484611336
1728331179574637000,3.767636962890625,-0.347148060798645,-0.16125577688217163,0.1192837730050087,-0.4227893054485321,0.23729611933231354,-0.8746083378791809,-0.03518795967102051,-0.056464195251464844,-0.023859679698944092,0.9662447552669631,-0.10863921083264011,-0.22559557971170738,0.060621721075996955
1728331179584668000,3.77766796875,-0.44083622097969055,-0.1490478366613388,0.1527509242296219,-0.42385149002075195,0.24135777354240417,-0.8729813098907471,-0.04796549677848816,-0.051034897565841675,0.00702977180480957,0.9658055161977738,-0.11067217819853416,-0.22640898043645127,0.06091227773629538
1728331179594699000,3.787698974609375,-0.4854159355163574,-0.15880519151687622,0.15657256543636322,-0.42483699321746826,0.24609136581420898,-0.8711788058280945,-0.03646671772003174,-0.0357947051525116,0.016305208206176758,0.9653188535033246,-0.11305437692496456,-0.22722080591545565,0.06122748350946737
1728331179604729900,3.797729736328125,-0.4738905727863312,-0.1668335497379303,0.10656824707984924,-0.4259715676307678,0.25097373127937317,-0.8692297339439392,-0.022758841514587402,-0.03823569416999817,-0.002230226993560791,0.9648017038968303,-0.11554337538529898,-0.22811150529587923,0.0614191719994762
1728331179614761000,3.807760986328125,-0.3075747787952423,-0.10734529793262482,0.05486403778195381,-0.42701056599617004,0.25477761030197144,-0.867611825466156,-0.01779836416244507,-0.041261374950408936,-0.014224052429199219,0.9643819778980972,-0.11751528656645706,-0.22887601851888886,0.06142706295360034
1728331179624791800,3.817791748046875,-0.08652814477682114,-0.06298768520355225,0.04381059110164642,-0.42763713002204895,0.2566823959350586,-0.866741418838501,-0.022344529628753662,-0.013594597578048706,-0.020328283309936523,0.964153421994039,-0.1184916786795189,-0.2293229740069357,0.06147241528790686
1728331179634823200,3.8278232421875,0.09222176671028137,-0.031516097486019135,0.08246263861656189,-0.4278983175754547,0.25689586997032166,-0.8665491938591003,-0.0306740403175354,0.053162723779678345,-0.014920473098754883,0.9640830311400528,-0.11852198551028213,-0.22951672579149623,0.06179460481258897
1728331179644854000,3.83785400390625,0.13265067338943481,0.0070451428182423115,0.1300802379846573,-0.4277620017528534,0.25624144077301025,-0.8668102622032166,-0.03061199188232422,0.09071290493011475,0.018314778804779053,0.9641067723583715,-0.11801913056947944,-0.2294915361478936,0.062475836683497175
1728331179654885000,3.847885009765625,-0.006863539572805166,0.0029385481029748917,0.11519395560026169,-0.42738398909568787,0.25619617104530334,-0.8670100569725037,-0.026061415672302246,0.046339839696884155,0.024526536464691162,0.9641143180988575,-0.11784125170611083,-0.22936523001848713,0.06315537467640764
1728331179664916000,3.857916015625,-0.14296412467956543,-0.0452638678252697,0.05706913396716118,-0.42735013365745544,0.2572455406188965,-0.8667159676551819,-0.023363947868347168,-0.024686336517333984,-0.018507421016693115,0.9640160398998815,-0.11831253557016963,-0.22944313170803682,0.06349108605608758
1728331179674947000,3.867947021484375,-0.17965543270111084,-0.08658473193645477,0.012702204287052155,-0.42788299918174744,0.25880005955696106,-0.8659899830818176,-0.018528103828430176,-0.06983521580696106,-0.04265564680099487,0.9638266377645267,-0.11911365584498758,-0.22981938408607622,0.0635068872330057
1728331179684979000,3.87797900390625,-0.27419206500053406,-0.05664866790175438,0.004767315927892923,-0.42853546142578125,0.2607631981372833,-0.8650779724121094,-0.015663117170333862,-0.07770347595214844,-0.028308868408203125,0.9636016151503478,-0.12017279054107247,-0.230259639761229,0.06333240582290275
1728331179695010000,3.888010009765625,-0.30416998267173767,0.024365169927477837,0.022618750110268593,-0.42867326736450195,0.26340681314468384,-0.8642083406448364,-0.03465986251831055,-0.04017072916030884,0.019497036933898926,0.9633933435617716,-0.12162226500339893,-0.23044271815986964,0.06306699336739895
1728331179705041000,3.898041015625,-0.21149970591068268,0.07300034910440445,0.022952711209654808,-0.4281330704689026,0.26584571599960327,-0.8637291789054871,-0.04612529277801514,-0.0011057257652282715,0.03243035078048706,0.9632827763608063,-0.12296522657444278,-0.23024977060708357,0.06285597846979686
1728331179715072000,3.908072021484375,-0.020848598331212997,0.018368316814303398,-0.029060689732432365,-0.4277340769767761,0.2668609321117401,-0.8636137843132019,-0.03762844204902649,0.0057220458984375,-0.03898930549621582,0.963263597588845,-0.1235465061064663,-0.23006383849420367,0.06268964335610147
1728331179725102800,3.918102783203125,0.05224958062171936,0.011025182902812958,-0.06441095471382141,-0.4278407096862793,0.2663905620574951,-0.8637061715126038,-0.023758381605148315,0.017575502395629883,-0.08970874547958374,0.9633026751463262,-0.12335275808356404,-0.23006741158133615,0.06245663880499641
1728331179735134000,3.928134033203125,0.03598778694868088,0.035744860768318176,-0.023870721459388733,-0.4282453656196594,0.2664915919303894,-0.863474428653717,-0.02375045418739319,0.041629135608673096,-0.010762572288513184,0.9632526967207926,-0.12343555686754101,-0.23027471451196144,0.0623001947994601
1728331179745164800,3.938164794921875,0.004953970666974783,0.10408131033182144,0.02442064695060253,-0.4278469383716583,0.2655872702598572,-0.8639504909515381,-0.027139633893966675,0.04061087965965271,0.061139822006225586,0.9633828882144673,-0.12299192889767588,-0.22999511680120935,0.06219832576847265
1728331179755196000,3.94819580078125,-0.025904543697834015,0.12464596331119537,-0.006037394516170025,-0.42692261934280396,0.2639862895011902,-0.8648978471755981,-0.028231769800186157,-0.011987388134002686,0.053771138191223145,0.9636418417785838,-0.1222168620818655,-0.22937768054846536,0.06199321645094603
1728331179765227000,3.95822705078125,-0.15571606159210205,0.11587803810834885,-0.06357046216726303,-0.42618969082832336,0.2628858685493469,-0.865594208240509,-0.029178351163864136,-0.056587040424346924,0.02143228054046631,0.9638578171695515,-0.12178346812488593,-0.22884858288392027,0.061442288888338234
1728331179775258000,3.968258056640625,-0.176375612616539,0.06525321304798126,-0.06663895398378372,-0.4263862371444702,0.2634038031101227,-0.8653399348258972,-0.021428674459457397,-0.04090014100074768,0.014891326427459717,0.9638378404024346,-0.12222437881093122,-0.22889133769199646,0.060716256043372635
1728331179785289000,3.9782890625,-0.10601861774921417,0.05175924301147461,-0.061730217188596725,-0.4270472824573517,0.26445698738098145,-0.8646925091743469,-0.0031742453575134277,-0.006293505430221558,0.005760014057159424,0.9637055921590573,-0.12290108263279051,-0.22923585427516777,0.06014777251739556
1728331179795320000,3.988320068359375,-0.05283835530281067,0.0843103677034378,-0.06194327026605606,-0.426949679851532,0.2647812068462372,-0.8646414875984192,-0.00971105694770813,0.009083539247512817,-0.02018517255783081,0.9637216019271024,-0.12318508647066978,-0.2291390329674931,0.05967760075453328
1728331179805351000,3.998350830078125,-0.030437175184488297,0.10278631746768951,-0.04160763695836067,-0.42591506242752075,0.26474612951278687,-0.8651623129844666,-0.03775376081466675,0.019982874393463135,-0.004008829593658447,0.9638777769694715,-0.1232659153076013,-0.22852648850463303,0.059335772177958095
1728331179815382000,4.008382080078125,-0.05188600718975067,0.09532525390386581,-0.025614291429519653,-0.42549291253089905,0.26597318053245544,-0.8649936318397522,-0.040342628955841064,0.011950403451919556,0.019031167030334473,0.9638450751106706,-0.12396095506977242,-0.22833495533568832,0.05915622630880599
1728331179825412900,4.018412841796875,-0.08398935198783875,0.08689528703689575,-0.01801735907793045,-0.42594441771507263,0.2679344117641449,-0.8641657829284668,-0.02364051342010498,0.0023598074913024902,0.029189586639404297,0.9636408344988316,-0.12502576324273393,-0.22866061121102715,0.058983786796704615
1728331179835444000,4.02844384765625,-0.0779385194182396,0.0616639144718647,-0.025489922612905502,-0.4266599714756012,0.2683826982975006,-0.8636735081672668,-0.0006623566150665283,0.003391563892364502,0.03493821620941162,0.9635353710008683,-0.12533639365234744,-0.22902845210143707,0.05861851598183453
1728331179845475000,4.03847509765625,-0.08972779661417007,0.033887144178152084,-0.030242865905165672,-0.42738863825798035,0.2672313451766968,-0.863670289516449,0.008046627044677734,0.005000710487365723,0.038627564907073975,0.9635658434863986,-0.12484113695768977,-0.2293023261357846,0.058102417973316736
1728331179855506000,4.048505859375,-0.16817772388458252,0.03917207941412926,-0.03028973750770092,-0.42782965302467346,0.26708000898361206,-0.8634987473487854,0.006336182355880737,0.0030157864093780518,0.0487251877784729,0.963550604287074,-0.12487024303081716,-0.22947344682492438,0.05761541397023813
1728331179865537000,4.058537109375,-0.1561942994594574,0.040606193244457245,-0.0075157154351472855,-0.4275928735733032,0.2683122158050537,-0.8632339239120483,-0.007435113191604614,0.006315439939498901,0.06960910558700562,0.9635019378035291,-0.1256028201204672,-0.22936207131601571,0.057278626087480355
1728331179875569000,4.06856884765625,-0.07654675096273422,0.00935511477291584,-0.0316719189286232,-0.4274146258831024,0.26921510696411133,-0.8630411028862,-0.015136033296585083,-0.0019421577453613281,0.03853243589401245,0.9634659815004407,-0.12613745245213207,-0.22927885189174207,0.057041480313853844
1728331179885599700,4.078599853515625,-0.06582965701818466,0.001355511136353016,-0.05280463397502899,-0.42867884039878845,0.2700616717338562,-0.8621491193771362,-0.01649630069732666,-0.0158807635307312,-0.01430046558380127,0.9632547847889471,-0.1266453767295212,-0.2299703847097096,0.05669892352162508
1728331179895631000,4.088631103515625,-0.024849597364664078,-0.02243509143590927,-0.05181260406970978,-0.4304782748222351,0.2706034183502197,-0.8610820174217224,-0.018664121627807617,0.005199164152145386,-0.018175184726715088,0.9630011622808019,-0.12699921324989685,-0.23093333303203065,0.056298999579531
1728331179905662000,4.098661865234375,-0.016773294657468796,-0.02978621795773506,-0.045181866735219955,-0.43192344903945923,0.2707096040248871,-0.8603246212005615,-0.012534528970718384,0.027264058589935303,-0.025081872940063477,0.9628221970704879,-0.1271063870387671,-0.23169305144441957,0.05599627381616172
1728331179915693000,4.108693115234375,-0.03962348401546478,-0.03346414864063263,-0.03421656787395477,-0.43264561891555786,0.2712601125240326,-0.859788179397583,-0.007250010967254639,0.021479755640029907,-0.0013415813446044922,0.9626930023889231,-0.12742781162213207,-0.2320949523160872,0.055822844151468154
1728331179925724000,4.118723876953125,-0.04603930562734604,-0.043791890144348145,-0.03353160247206688,-0.43316859006881714,0.2719806730747223,-0.8592970967292786,-0.009427815675735474,0.009864449501037598,0.026869118213653564,0.9625736850134884,-0.12783454926077492,-0.23240006735837893,0.05568052075447067
1728331179935755000,4.128755126953125,-0.06976354122161865,-0.055769242346286774,-0.037241388112306595,-0.43398988246917725,0.2727983891963959,-0.858623206615448,-0.0073247551918029785,-0.007463306188583374,0.022884070873260498,0.9624088463174099,-0.12829657019354218,-0.23286988982858112,0.05550497626156208
