time,seconds_elapsed,rotationRateX,rotationRateY,rotationRateZ,gravityX,gravityY,gravityZ,accelerationX,accelerationY,accelerationZ,quaternionW,quaternionX,quaternionY,quaternionZ
1728066756413420500,0.077420654296875,-0.22420716285705566,-0.016579054296016693,-0.17934498190879822,0.09335767477750778,-0.04293503984808922,-0.9947064518928528,-0.032047830522060394,-0.008838046342134476,-0.004851043224334717,0.9986756937819204,0.021495986321368548,0.04674073584124825,4.246023963353098e-17
1728066756423451400,0.087451416015625,-0.23460999131202698,-0.03369252756237984,-0.19981749355793,0.09204930067062378,-0.04134166240692139,-0.994895875453949,-0.03461518883705139,-0.021814480423927307,0.0024642348289489746,0.9987227643122509,0.020737424296466203,0.0460654309345253,-0.0008706363582064784
1728066756433481500,0.0974814453125,-0.22223348915576935,-0.03865277022123337,-0.20143723487854004,0.09087126702070236,-0.03947432339191437,-0.9950799942016602,-0.03290310502052307,-0.013626277446746826,0.0006647109985351562,0.9987676450598305,0.01984372106640423,0.045455808745650125,-0.001806264745936463
1728066756443512300,0.10751220703125,-0.19404499232769012,-0.04626168683171272,-0.211416095495224,0.09083813428878784,-0.03686877340078354,-0.995182991027832,-0.02624765783548355,0.000751204788684845,-0.005915641784667969,0.9987910986639686,0.01858431242499942,0.04542182834210043,-0.0028061243819162167
1728066756453543400,0.11754345703125,-0.184562087059021,-0.044365838170051575,-0.223554790019989,0.09178802371025085,-0.03353917971253395,-0.9952135682106018,-0.02222318947315216,0.007385600358247757,-0.012080073356628418,0.998794967365401,0.016969515734081817,0.04588292372198435,-0.003911639710208636
1728066756463573500,0.127573486328125,-0.201245978474617,-0.042497895658016205,-0.2259628176689148,0.09258992224931717,-0.030638741329312325,-0.9952328205108643,-0.01873736083507538,0.01138213463127613,-0.017752408981323242,0.9987949179853737,0.015570283048879025,0.046272609452613245,-0.005016976456465044
1728066756473604400,0.137604248046875,-0.1993001401424408,-0.03433722257614136,-0.23684555292129517,0.09220677614212036,-0.02854221500456333,-0.9953307509422302,-0.01460055261850357,0.0037466660141944885,-0.020752012729644775,0.9988131987037895,0.014570438543534304,0.04606886165674049,-0.006122110471128516
1728066756483634400,0.147634521484375,-0.1801842302083969,-0.03356384485960007,-0.25116991996765137,0.09092100709676743,-0.026991205289959908,-0.9954922795295715,-0.019769243896007538,-0.011079488322138786,-0.016745269298553467,0.9988458062432732,0.013842547907135561,0.045412031461477854,-0.007288114671729845
1728066756493665500,0.15766552734375,-0.16288255155086517,-0.024704094976186752,-0.2439175844192505,0.0894567221403122,-0.026044420897960663,-0.9956501126289368,-0.026163250207901,-0.011492213234305382,-0.019990086555480957,0.998876064611187,0.013415080756121106,0.04466509252528279,-0.008458351500501973
1728066756503696400,0.1676962890625,-0.15454339981079102,-0.024248957633972168,-0.2451341152191162,0.08931560069322586,-0.024272123351693153,-0.9957075715065002,-0.01856057345867157,0.0022689364850521088,-0.01836097240447998,0.9988798192747507,0.012579791952496281,0.04458652431127671,-0.009636056049708566
1728066756513726500,0.1777265625,-0.16159071028232574,-0.043491628021001816,-0.25354039669036865,0.08910103142261505,-0.02246648259460926,-0.995769202709198,-0.0039111897349357605,0.005422402173280716,-0.022388756275177002,0.9988827358298836,0.011728943189530756,0.04447292753054973,-0.010851484842818799
1728066756523757600,0.187757568359375,-0.162915900349617,-0.05528650060296059,-0.26251712441444397,0.08867799490690231,-0.020605960860848427,-0.9958471655845642,0.0013488829135894775,-0.003869149833917618,-0.016100406646728516,0.998887706403842,0.010851421780888144,0.044256708690288464,-0.012119546982188959
1728066756533787400,0.197787353515625,-0.16756312549114227,-0.048963677138090134,-0.26273655891418457,0.08823136240243912,-0.018736708909273148,-0.9959237575531006,-0.0015766769647598267,-0.023148680105805397,-0.002825021743774414,0.9988904350005938,0.009969662458361984,0.044030890612710746,-0.013405265600248059
1728066756543818500,0.207818603515625,-0.16775061190128326,-0.033999111503362656,-0.2507358193397522,0.08789389580488205,-0.01680140011012554,-0.995988130569458,-0.004016302525997162,-0.030165165662765503,-0.005659818649291992,0.9988889839108873,0.009053733676049223,0.0438629627423893,-0.014658707507828302
1728066756553849300,0.217849365234375,-0.14213718473911285,-0.055774129927158356,-0.23426362872123718,0.08752094954252243,-0.015027607791125774,-0.9960493445396423,-0.0009578168392181396,-0.029085565358400345,-0.006178438663482666,0.9988863027241187,0.008214779140889038,0.04367900819001578,-0.01583887341385591
1728066756563879400,0.22787939453125,-0.11625179648399353,-0.058761127293109894,-0.21724921464920044,0.08696841448545456,-0.013553136959671974,-0.9961188435554504,0.008749999105930328,-0.03037693165242672,-0.005925774574279785,0.9988856331375462,0.007520230534431967,0.04340518451486662,-0.016939952832394772
1728066756573910500,0.23791064453125,-0.11604233831167221,-0.03710520640015602,-0.20161274075508118,0.08652269095182419,-0.012196759693324566,-0.996175229549408,0.016977697610855103,-0.016093051061034203,-0.013559877872467041,0.9988818173560647,0.00688194053185413,0.04318599777977147,-0.01796567043938614
1728066756583941400,0.24794140625,-0.14069122076034546,-0.00606526667252183,-0.1849309653043747,0.0863545686006546,-0.010733472183346748,-0.9962066411972046,0.012598700821399689,-0.00602069403976202,-0.015969812870025635,0.9988722865884379,0.006188773649762969,0.04310888703640941,-0.01890697404816348
1728066756593971500,0.257971435546875,-0.12679585814476013,0.0011726184748113155,-0.1775236427783966,0.08637889474630356,-0.009212160483002663,-0.9962197542190552,-0.0011127516627311707,-0.01669728010892868,-0.014476656913757324,0.9988584366186171,0.005465987429568614,0.043130497491049996,-0.01979266304344339
1728066756604002600,0.26800244140625,-0.09204132854938507,-0.021003257483243942,-0.16453327238559723,0.0863334909081459,-0.00795016996562481,-0.9962345957756042,-0.009719088673591614,-0.027831705287098885,-0.009731590747833252,0.9988453571822321,0.004869743638481783,0.04311611898981039,-0.02061957092538255
1728066756614032400,0.278032470703125,-0.06771881133317947,-0.028404396027326584,-0.1725938618183136,0.08610186725854874,-0.007034617010504007,-0.996261477470398,0.0007511824369430542,-0.011932073161005974,-0.011947691440582275,0.9988347008371289,0.004444709182103072,0.043005735630837635,-0.021444145568029222
1728066756625317400,0.2893173828125,-0.09227608889341354,-0.024924442172050476,-0.17192114889621735,0.0858711451292038,-0.0059909578412771225,-0.9962882399559021,0.02849350869655609,0.014810524880886078,-0.0182839035987854,0.9988206610872621,0.003960765897508953,0.04289746684684,-0.02239330102762924
1728066756644120600,0.30812060546875,-0.15280981361865997,-0.02182670682668686,-0.1893097311258316,0.08585279434919357,-0.005004878155887127,-0.9962952733039856,0.009285777807235718,-0.012710590846836567,0.010806381702423096,0.9987852629840025,0.003535782013776972,0.042893677796101856,-0.023990666787824966
1728066756654151400,0.3181513671875,-0.15935039520263672,-0.026952652260661125,-0.1999834179878235,0.08636949211359024,-0.004328975919634104,-0.9962537884712219,-0.007267899811267853,-0.012715104967355728,0.015312016010284424,0.9987522753879774,0.003243758386715224,0.04315777981598214,-0.02491377094827229
1728066756664181500,0.328181396484375,-0.14633312821388245,-0.037554964423179626,-0.18308351933956146,0.08653397113084793,-0.0031852577812969685,-0.9962438344955444,0.0015855655074119568,-0.001255064271390438,0.010251402854919434,0.9987262856241633,0.0027137556942800696,0.0432519484329657,-0.025840923523351596
1728066756674212400,0.33821240234375,-0.12629291415214539,-0.03203785419464111,-0.16145572066307068,0.0860803946852684,-0.0027218591421842575,-0.9962844848632812,0.01970881223678589,0.009878218173980713,0.00026702880859375,0.9987149696921839,0.002511214369668117,0.043028546329135234,-0.026658066318982376
1728066756684242400,0.348242431640625,-0.08257206529378891,-0.009400183334946632,-0.1252865493297577,0.08540462702512741,-0.003105518175289035,-0.9963415265083313,0.023543156683444977,0.02224002592265606,-0.0012018084526062012,0.9987110888340595,0.0027228117084596845,0.04268291226236926,-0.02733044922277641
1728066756694273500,0.3582734375,-0.038426704704761505,0.002320654224604368,-0.114776112139225,0.08540596067905426,-0.0030737516935914755,-0.9963414669036865,0.014325514435768127,0.024756476283073425,0.0009649395942687988,0.9986955202453419,0.0027310416219229736,0.04268247625369737,-0.027894426255240426
1728066756704304400,0.368304443359375,-0.02263202890753746,0.01956062763929367,-0.12183242291212082,0.0866355448961258,-0.0022002854384481907,-0.9962376356124878,0.004108496010303497,0.02099910005927086,0.0007542967796325684,0.9986523120182716,0.002337769442656346,0.04330950552347889,-0.028503584397799066
1728066756714334500,0.37833447265625,-0.043086837977170944,0.03163827583193779,-0.11172226816415787,0.08819198608398438,-0.0014794293092563748,-0.9961023926734924,-0.00028607994318008423,0.018065717071294785,0.011513769626617432,0.9986017179810185,0.0020250709486401572,0.044098761224384414,-0.029083009111759147
1728066756724365600,0.388365478515625,-0.05967113748192787,0.03456961736083031,-0.12505963444709778,0.08887912333011627,-0.0015746061690151691,-0.9960411787033081,0.00006438791751861572,0.006243782117962837,0.021050333976745605,0.9985701202948996,0.0021073637314413833,0.04444065092607247,-0.029636095421469978
1728066756734395400,0.3983955078125,-0.08253058046102524,0.039199043065309525,-0.146223783493042,0.0888780876994133,-0.0014322649221867323,-0.996041476726532,-0.002986334264278412,0.00016576936468482018,0.021447360515594482,0.9985504016828177,0.0020655340671159083,0.044440884913349736,-0.03029659254836701
1728066756744426500,0.408426513671875,-0.1371413618326187,0.02430957555770874,-0.17193074524402618,0.08920735865831375,-0.00033721353975124657,-0.9960130453109741,-0.0032698288559913635,0.002183512318879366,0.02769029140472412,0.9985196878128748,0.0015569143229305397,0.0446213719063102,-0.031061412248214498
1728066756754457600,0.41845751953125,-0.198688343167305,0.010182572528719902,-0.20028115808963776,0.0900593176484108,0.0018051705555990338,-0.995934784412384,0.005033485591411591,0.0005446666618809104,0.04560214281082153,0.9984718193341457,0.0005390578314021027,0.04508132148706185,-0.031960450364292896
1728066756764487400,0.4284873046875,-0.24540898203849792,0.0031036236323416233,-0.22067643702030182,0.09084448218345642,0.00491374870762229,-0.9958529472351074,0.00696437805891037,-0.006775336340069771,0.05272245407104492,0.9984181938855137,-0.0009570897342246871,0.04552581665192928,-0.032976861263920555
1728066756774518500,0.4385185546875,-0.2891705334186554,0.02070498839020729,-0.24428457021713257,0.09119752794504166,0.00821286253631115,-0.9957989454269409,0.0025982707738876343,-0.012973621487617493,0.05546087026596069,0.9983676650314841,-0.002550999623297621,0.04576040413162776,-0.0340817777534933
1728066756784548400,0.44854833984375,-0.34071066975593567,0.022590506821870804,-0.2924571633338928,0.09138565510511398,0.011815432459115982,-0.9957454800605774,-0.0037238895893096924,-0.013448136858642101,0.05462914705276489,0.9983096234463664,-0.004290960544278912,0.045922201947449746,-0.035364351060662644
1728066756794579500,0.458579345703125,-0.36941415071487427,0.01807847060263157,-0.31542107462882996,0.09152159094810486,0.015722237527370453,-0.9956789612770081,-0.011855430901050568,-0.009222010150551796,0.06081879138946533,0.9982405644742662,-0.006175961044844893,0.04606921675158794,-0.036814695659436854
1728066756804610600,0.468610595703125,-0.3984479308128357,0.020295819267630577,-0.299797385931015,0.09164103865623474,0.019710449501872063,-0.9955970048904419,-0.005978181958198547,-0.0047263335436582565,0.05699843168258667,0.9981650477801207,-0.008101181658163028,0.04621539888876371,-0.03827530228018774
1728066756814640400,0.478640380859375,-0.4436604976654053,0.03379399701952934,-0.29221534729003906,0.091819167137146,0.023953517898917198,-0.9954875707626343,0.0025259554386138916,-0.002102946862578392,0.06311452388763428,0.9980843922664197,-0.010156832903127258,0.04640109463641144,-0.03964092308841925
1728066756824671500,0.48867138671875,-0.5034854412078857,0.03882604092359543,-0.28706905245780945,0.09212437272071838,0.028943004086613655,-0.9953267574310303,-0.00420321524143219,-0.010647732764482498,0.07480984926223755,0.997989808449597,-0.012583933419693107,0.04667176568553289,-0.0409854709297093
1728066756834702600,0.49870263671875,-0.5663073658943176,0.047265756875276566,-0.2878914475440979,0.09248577058315277,0.03456072136759758,-0.9951140284538269,-0.01350625604391098,-0.019012033939361572,0.0894286036491394,0.9978816051710329,-0.01532505106312201,0.0469907028372197,-0.04230145381874953
1728066756844732200,0.508732177734375,-0.6240884065628052,0.05307571217417717,-0.29486119747161865,0.09289181977510452,0.04077260196208954,-0.9948410391807556,-0.015194036066532135,-0.023102939128875732,0.10198825597763062,0.9977559876954113,-0.018361505571294703,0.04735327458244759,-0.04362949431035228
1728066756854763500,0.518763427734375,-0.6723214387893677,0.08219641447067261,-0.28092700242996216,0.09345383197069168,0.04753262549638748,-0.9944882988929749,-0.01743452250957489,-0.019807428121566772,0.11095869541168213,0.9976099550440446,-0.02166992008570973,0.04781476531422585,-0.044927231066254215
1728066756864793300,0.52879345703125,-0.6984797716140747,0.1293381005525589,-0.2657155692577362,0.09437407553195953,0.05462413653731346,-0.9940370917320251,-0.015730246901512146,-0.009839605540037155,0.12256187200546265,0.9974419406246899,-0.025140391447135278,0.04847077009914768,-0.046130620674289476
1728066756874824200,0.53882421875,-0.7477361559867859,0.18829718232154846,-0.2790076732635498,0.09580565989017487,0.062072377651929855,-0.9934628009796143,-0.023372165858745575,-0.014846444129943848,0.13266873359680176,0.9972413171228793,-0.02877694066922952,0.04940139900017917,-0.04733945423603578
1728066756884855600,0.54885546875,-0.8394860625267029,0.26173627376556396,-0.2755863070487976,0.09787946194410324,0.07023732364177704,-0.9927166700363159,-0.03786661475896835,-0.016602694988250732,0.14757812023162842,0.9969950774258501,-0.03275530386704927,0.05068302482499533,-0.04857218876247264
1728066756894885400,0.558885498046875,-0.943557858467102,0.32677802443504333,-0.22293932735919952,0.1006544902920723,0.07933343946933746,-0.9917534589767456,-0.036262378096580505,-0.021578937768936157,0.1823662519454956,0.9967003755034801,-0.03719048570181112,0.05234643963576699,-0.04964900056785485
1728066756904916200,0.568916259765625,-1.0204992294311523,0.2713765501976013,0.19238649308681488,0.10390444844961166,0.0892941877245903,-0.9905707240104675,-0.021293342113494873,-0.03695656359195709,0.2181708812713623,0.9964033543740416,-0.04210532078504691,0.05423805230912384,-0.049655352707719626
1728066756914946300,0.5789462890625,-1.2827115058898926,0.03133994713425636,0.1963183879852295,0.10560023784637451,0.10045719146728516,-0.9893214702606201,0.11473670601844788,-0.03240301460027695,0.24907183647155762,0.996159462892723,-0.04774360546387021,0.05531564720355672,-0.04823864542852985
1728066756924977400,0.588977294921875,-1.4500688314437866,-0.042384073138237,0.12509454786777496,0.10558883100748062,0.11394906044006348,-0.9878596067428589,0.21634113788604736,-0.02836252748966217,0.3037775754928589,0.995847899030534,-0.054583664712988,0.05559513058767135,-0.04708148878111973
1728066756935008300,0.59900830078125,-1.4705195426940918,0.1286502629518509,0.1621313989162445,0.1060544028878212,0.12820254266262054,-0.986061155796051,0.03042023628950119,-0.01955997943878174,0.2919235825538635,0.9954488555155933,-0.061803271092931295,0.056122951700185615,-0.0459575387227052
1728066756945038300,0.609038330078125,-1.4567216634750366,0.33840349316596985,0.15487293899059296,0.10862031579017639,0.14252261817455292,-0.983813464641571,-0.034737229347229004,0.009805858135223389,0.22011107206344604,0.9949366210395086,-0.06902562234925955,0.057695169199411506,-0.04480768120231272
1728066756955069200,0.619069091796875,-1.464965581893921,0.478455126285553,0.11868404597043991,0.1129491850733757,0.15675990283489227,-0.9811568856239319,-0.07640435546636581,0.01892976462841034,0.19793850183486938,0.9943112951103013,-0.07617497895515406,0.06015758963167153,-0.04385665926111283
1728066756965099300,0.629099365234375,-1.462788462638855,0.5161148905754089,0.12255627661943436,0.11815810948610306,0.1710415631532669,-0.9781531095504761,-0.05623792111873627,0.0209445059299469,0.18597781658172607,0.9935910206274857,-0.08333952901393545,0.06307125033438377,-0.043052456368701274
1728066756975130400,0.63913037109375,-1.4498810768127441,0.4938315153121948,0.2659158408641815,0.1234118640422821,0.18507437407970428,-0.9749445915222168,0.010514549911022186,0.029570981860160828,0.19486957788467407,0.9928343944702335,-0.09042394097082807,0.06596367579801594,-0.041859217323200415
1728066756985161200,0.6491611328125,-1.4911071062088013,0.4938664138317108,0.48348063230514526,0.1289360523223877,0.19895346462726593,-0.9714900851249695,0.07687452435493469,0.04013647139072418,0.21698874235153198,0.9920512015853881,-0.09751384000803598,0.06889121658979067,-0.03974400786854803
1728066756995191300,0.65919140625,-1.5512065887451172,0.5539517402648926,0.6861072778701782,0.1352096050977707,0.21294128894805908,-0.967664361000061,0.094908207654953,0.04252132773399353,0.2241188883781433,0.9912096166979749,-0.10475781707373011,0.07206668241818098,-0.03654511778395894
1728066757005222400,0.669222412109375,-1.5866072177886963,0.6181520223617554,0.8253405094146729,0.14261189103126526,0.22718258202075958,-0.9633534550666809,0.05048808455467224,0.015996694564819336,0.22104394435882568,0.9902623420282812,-0.11222306927161224,0.0756917802777703,-0.03251358350593099
1728066757015253200,0.679253173828125,-1.4705042839050293,0.6782056093215942,0.8436720967292786,0.15083886682987213,0.24075515568256378,-0.9587932825088501,-0.017156600952148438,-0.02073870599269867,0.2011486291885376,0.9892460239645298,-0.1194251170099964,0.07963034225946285,-0.028089268812065853
1728066757025283300,0.689283447265625,-1.3099346160888672,0.7813591361045837,0.6206520795822144,0.1597186177968979,0.25294193625450134,-0.954206645488739,-0.080449178814888,-0.07171332836151123,0.128156840801239,0.9881877781917472,-0.1259234360278701,0.08390447403203813,-0.024253378904449445
1728066757035314400,0.699314453125,-0.4875020682811737,0.7023501992225647,0.2668580412864685,0.16802352666854858,0.2611602544784546,-0.9505595564842224,-0.1564878672361374,-0.10954895615577698,0.05624192953109741,0.9873118948661952,-0.13027447063554257,0.08802725436082283,-0.022249868817411363
1728066757045344300,0.70934423828125,-0.8593016862869263,1.0733435153961182,0.31631243228912354,0.17677317559719086,0.26681458950042725,-0.9473970532417297,-0.18629464507102966,-0.10415592789649963,-0.03938877582550049,0.9865306569352779,-0.13322734052656737,0.0924766717130053,-0.021350613828354695
1728066757055375400,0.719375244140625,-0.962121844291687,1.020689845085144,0.6502560377120972,0.18817846477031708,0.27498090267181396,-0.9428544044494629,-0.09117832779884338,0.05216750502586365,0.007582187652587891,0.9854235561772223,-0.13761409171666236,0.09815891869860782,-0.019175943437947665
1728066757065406200,0.72940625,-0.7750752568244934,1.0001416206359863,0.7704969644546509,0.19977855682373047,0.2816316783428192,-0.9384946227073669,0.07077506184577942,0.1169736385345459,0.07487767934799194,0.984376240898647,-0.1413817323631459,0.10374921506629214,-0.01583646518020233
1728066757075436300,0.739436279296875,-0.8818503618240356,0.9338429570198059,0.7295157313346863,0.2111390382051468,0.28770244121551514,-0.9341561198234558,0.0536009818315506,-0.026472002267837524,-0.01439124345779419,0.9833237495030235,-0.1449195558181807,0.10917998620097709,-0.012350001928690941
1728066757085467400,0.74946728515625,-1.0115886926651,0.8993152976036072,0.6088258028030396,0.2215278148651123,0.2951575219631195,-0.9294124245643616,0.009230881929397583,-0.0924140214920044,0.06172138452529907,0.982151366471191,-0.1491891503567442,0.11417696533805538,-0.009217535386727857
1728066757095497500,0.75949755859375,-1.1090062856674194,0.9292843341827393,0.6243661046028137,0.231841579079628,0.3036215007305145,-0.9241555333137512,-0.0498957633972168,-0.15181183815002441,0.13266688585281372,0.9808355393964817,-0.15401332144514288,0.1191726519847787,-0.006285040805937523
1728066757105528300,0.7695283203125,-1.2552434206008911,1.011939525604248,0.6885166168212891,0.2428642213344574,0.31298384070396423,-0.9181819558143616,-0.0962730199098587,-0.22938096523284912,0.14363056421279907,0.9793270167946595,-0.15940100496560652,0.12450037983530053,-0.003102079346725418
1728066757115559400,0.779559326171875,-1.2761783599853516,1.031610369682312,0.7298642992973328,0.2545209527015686,0.32289907336235046,-0.9115675091743469,-0.1115918755531311,-0.24211910367012024,0.18784314393997192,0.977641837920238,-0.1651921053420657,0.1301069796101875,0.00037801456666760285
1728066757125589200,0.78958935546875,-1.3119730949401855,1.1004695892333984,0.7048822641372681,0.26658910512924194,0.3327656388282776,-0.9045425653457642,-0.12320226430892944,-0.22743424773216248,0.16473543643951416,0.9758362044441938,-0.17104096749783992,0.13591798537463262,0.0038637511290588074
1728066757135620400,0.799620361328125,-1.298553705215454,1.1520720720291138,0.7087358832359314,0.27921223640441895,0.3427495062351227,-0.896974503993988,-0.11470723152160645,-0.16234487295150757,0.09955018758773804,0.9738762008966688,-0.17702637269221771,0.14203662996454178,0.007230707996235619
1728066757145651500,0.8096513671875,-1.151496171951294,1.156754493713379,0.7497855424880981,0.29210561513900757,0.3516230583190918,-0.8894017934799194,-0.07773488759994507,-0.09120136499404907,0.08894097805023193,0.9718989590581133,-0.1825191236238915,0.14827636110354908,0.010646402153759676
1728066757155681300,0.819681396484375,-1.0840742588043213,1.1466953754425049,0.7700897455215454,0.30510449409484863,0.3592478930950165,-0.8819593191146851,-0.026768922805786133,-0.05457568168640137,0.02520883083343506,0.9699381828917966,-0.18744202724455206,0.15455044402396217,0.014126353313181232
1728066757165712400,0.82971240234375,-1.0215957164764404,1.1450307369232178,0.7950129508972168,0.3180225193500519,0.3660704791545868,-0.8745593428611755,-0.02102544903755188,-0.022976666688919067,0.007387101650238037,0.9679706648343499,-0.192027721977354,0.16076589823485699,0.01767759837567591
1728066757175742500,0.839742431640625,-1.0107501745224,1.1721653938293457,0.8027044534683228,0.3311053514480591,0.3723132014274597,-0.8670364022254944,-0.04158508777618408,-0.021498441696166992,0.0030685067176818848,0.9659534176178851,-0.19639604145378128,0.16706403509105125,0.02126621575918015
1728066757185773300,0.849773193359375,-1.0396417379379272,1.2233144044876099,0.8288835883140564,0.34457188844680786,0.37840282917022705,-0.8591167330741882,-0.07432344555854797,-0.04240432381629944,0.0019237399101257324,0.9638146455739883,-0.20078789740785505,0.17356802470073304,0.024894607431693618
1728066757195804400,0.859804443359375,-1.064871907234192,1.257433533668518,0.8579397201538086,0.35847315192222595,0.38446158170700073,-0.8506975769996643,-0.10752707719802856,-0.07238885760307312,0.02435779571533203,0.9615242147186984,-0.20529250601460602,0.18029479507657795,0.028636041168644516
1728066757205834500,0.86983447265625,-1.1230310201644897,1.2858763933181763,0.8543785810470581,0.3725826144218445,0.3905814588069916,-0.8418006300926208,-0.12467306852340698,-0.10489121079444885,0.04539865255355835,0.9590866980342475,-0.20995307658504217,0.18713468904351202,0.03244972066074389
1728066757215865300,0.879865234375,-1.1721234321594238,1.2988005876541138,0.8382318019866943,0.3868226408958435,0.39705562591552734,-0.8322950601577759,-0.1338929533958435,-0.12322142720222473,0.06287062168121338,0.9564700965530611,-0.21491371739148268,0.19407362215196494,0.03622715029372913
1728066757225895400,0.8898955078125,-1.1417522430419922,1.2835761308670044,0.8232017159461975,0.40088585019111633,0.40337634086608887,-0.8225436806678772,-0.13219383358955383,-0.12157708406448364,0.0896945595741272,0.9537690810595949,-0.21988219110386753,0.2009477413126196,0.03995402441961248
1728066757235926300,0.89992626953125,-1.1672463417053223,1.2791390419006348,0.7912189960479736,0.41470205783843994,0.4095441401004791,-0.8125858902931213,-0.11402761936187744,-0.10383433103561401,0.08579450845718384,0.9509970255478547,-0.22483919563372154,0.20773636297020207,0.04356165840760677
1728066757245957400,0.909957275390625,-1.1490660905838013,1.279656171798706,0.7872738242149353,0.42831286787986755,0.41563600301742554,-0.8023682832717896,-0.10415515303611755,-0.054491013288497925,0.08317577838897705,0.948139130107048,-0.2298338501126622,0.21445808507271488,0.04707895844970283
1728066757255987500,0.919987548828125,-1.1338386535644531,1.3131507635116577,0.8141533732414246,0.4420090317726135,0.42127349972724915,-0.791932225227356,-0.08860021829605103,-0.006020843982696533,0.05317795276641846,0.9452016106769235,-0.23469229259351443,0.22125418298754093,0.05059694172084107
1728066757266018300,0.930018310546875,-1.1143712997436523,1.3444961309432983,0.8564944267272949,0.45608463883399963,0.42641714215278625,-0.7811243534088135,-0.07070863246917725,0.024449527263641357,0.012890100479125977,0.9421364725526954,-0.23944254734734982,0.22826542449447215,0.05423068146286913
1728066757276048400,0.94004833984375,-1.0925251245498657,1.3520312309265137,0.877711832523346,0.47034844756126404,0.4309258460998535,-0.7701138257980347,-0.05514153838157654,0.025479763746261597,-0.002926945686340332,0.9389862505860589,-0.24399819562576394,0.23538899297644875,0.057980738843333345
1728066757286079500,0.95007958984375,-1.1387290954589844,1.3352898359298706,0.8500016331672668,0.48443418741226196,0.43529024720191956,-0.7588451504707336,-0.04717832803726196,-0.005434930324554443,-0.023625612258911133,0.9357412214768512,-0.2485862212015587,0.24245066623660386,0.061733177992266304
1728066757296110300,0.9601103515625,-1.2180118560791016,1.3052704334259033,0.7996497750282288,0.4980567395687103,0.440112829208374,-0.747154712677002,-0.05990058183670044,-0.0349462628364563,-0.010825634002685547,0.9323630967531157,-0.25350652488926817,0.24931321382375532,0.0653944765762552
1728066757306140400,0.970140380859375,-1.3287913799285889,1.2749422788619995,0.7595897316932678,0.5110645294189453,0.4456295371055603,-0.7350015640258789,-0.06749159097671509,-0.05183076858520508,0.007737219333648682,0.928839630319615,-0.25888718553191253,0.255884021029349,0.06897622246058804
1728066757316169200,0.980169189453125,-1.4513484239578247,1.2475227117538452,0.7562741041183472,0.5236940383911133,0.45186737179756165,-0.7221913933753967,-0.06268024444580078,-0.04985934495925903,0.016060471534729004,0.9251053888119832,-0.2648155075501933,0.2622537648545921,0.07263410994480966
1728066757326200300,0.990200439453125,-1.5574597120285034,1.225210189819336,0.7892765402793884,0.536101758480072,0.45855703949928284,-0.7087456583976746,-0.05200141668319702,-0.039077699184417725,0.04179924726486206,0.9211476417842641,-0.27121491651728835,0.268457901302105,0.07655005264392668
1728066757336230400,1.00023046875,-1.6411975622177124,1.1769264936447144,0.8116310834884644,0.5483180284500122,0.46548977494239807,-0.6947421431541443,-0.04226034879684448,-0.04279085993766785,0.06855195760726929,0.9169777755492757,-0.27799394393999677,0.27449646062249006,0.08076382384204557
1728066757346261200,1.01026123046875,-1.633598804473877,1.1483089923858643,0.8017776608467102,0.5601452589035034,0.4723131060600281,-0.6805568337440491,-0.04102599620819092,-0.05254387855529785,0.07284504175186157,0.9127065521273899,-0.2848830234171444,0.28029135831058954,0.085118721335167
1728066757356291300,1.020291259765625,-1.6437283754348755,1.1306548118591309,0.7697773575782776,0.5715875625610352,0.478903204202652,-0.6662878394126892,-0.036965370178222656,-0.04555365443229675,0.033460021018981934,0.9083789452202031,-0.29174037980599915,0.2859084455671216,0.089396490129399
1728066757366322200,1.030322265625,-1.5798474550247192,1.1225308179855347,0.758755087852478,0.5827403664588928,0.4852180480957031,-0.6519027352333069,-0.026603281497955322,0.005046814680099487,0.028871119022369385,0.9039925935115108,-0.29852852536946944,0.29142641355641824,0.09353495965150198
1728066757376353300,1.040353271484375,-1.4146634340286255,1.1220903396606445,0.7982401847839355,0.5938143730163574,0.4903455972671509,-0.6379228830337524,0.0017819404602050781,0.07220014929771423,0.02757132053375244,0.8996897302663096,-0.3047132632277653,0.29696530361718043,0.09756897922466358
1728066757386383400,1.05038330078125,-1.2723393440246582,1.1289520263671875,0.8317113518714905,0.6049839854240417,0.49390971660614014,-0.6245379447937012,0.03857070207595825,0.10757645964622498,-0.0018353462219238281,0.8955225457050159,-0.3100766632779347,0.3026276579647586,0.10153001168412801
1728066757396414200,1.060414306640625,-1.2428895235061646,1.1605892181396484,0.8430553078651428,0.6162665486335754,0.49650219082832336,-0.6113110184669495,0.04994744062423706,0.09903302788734436,-0.002336442470550537,0.8913715455745274,-0.31498056469154534,0.3084343196118823,0.10541502819830473
1728066757406444300,1.0704443359375,-1.339440107345581,1.1792694330215454,0.8244627118110657,0.6275256872177124,0.49907630681991577,-0.5976071953773499,0.030875802040100098,0.04926347732543945,0.017925739288330078,0.8870514323816066,-0.32003232595345055,0.31428605745525495,0.10928570256921721
1728066757416475400,1.080475341796875,-1.5373870134353638,1.2089886665344238,0.8182887434959412,0.6387580633163452,0.5023665428161621,-0.5827658176422119,0.005742669105529785,-0.027055323123931885,0.041750192642211914,0.8823564350760517,-0.3257703254170156,0.3201418411553259,0.11326939540674648
1728066757426506200,1.09050634765625,-1.7496888637542725,1.2144510746002197,0.8210698366165161,0.6498824954032898,0.5065354704856873,-0.5666343569755554,-0.01052403450012207,-0.10075855255126953,0.0657188892364502,0.8772116801338001,-0.33238720985196685,0.3258857950505058,0.11754491723111973
1728066757436536300,1.100536376953125,-2.0278091430664062,1.20357346534729,0.8205881118774414,0.6608880162239075,0.5116913914680481,-0.5489981174468994,-0.006026566028594971,-0.1455720067024231,0.07232874631881714,0.871528733394275,-0.34004233583523474,0.33146966556864216,0.12221619443459385
1728066757446567400,1.1105673828125,-2.1716625690460205,1.1437932252883911,0.8428326845169067,0.6714963316917419,0.5175691843032837,-0.5302969217300415,0.006375372409820557,-0.1417299509048462,0.095619797706604,0.8654074784532476,-0.34857562630421024,0.33666980974881744,0.1273513982690069
1728066757456597200,1.12059716796875,-2.214276075363159,1.0935901403427124,0.9005820155143738,0.6819084882736206,0.5231271982192993,-0.5112130045890808,0.03525453805923462,-0.10351055860519409,0.04885643720626831,0.859041516968389,-0.35732396789860194,0.34163294326823807,0.13286926333624835
1728066757466628400,1.13062841796875,-2.1951682567596436,1.065305233001709,0.9753864407539368,0.6922821402549744,0.5277622938156128,-0.4921509027481079,0.07587581872940063,-0.04891097545623779,-0.016668736934661865,0.8525382621987473,-0.36591322067087184,0.34645643696802275,0.13875882487483948
1728066757476659200,1.1406591796875,-2.1761977672576904,1.0464986562728882,1.0317001342773438,0.7027539014816284,0.531288206577301,-0.4731487035751343,0.0944109559059143,0.006706058979034424,-0.03721204400062561,0.8459184310706276,-0.3742026849658547,0.3512805098692731,0.14490085055559226
1728066757486689300,1.150689208984375,-2.265424966812134,1.0488166809082031,1.0797480344772339,0.7132701277732849,0.5340564250946045,-0.45390480756759644,0.09384351968765259,0.03599667549133301,-0.05605924129486084,0.8390817167776211,-0.38244661190414336,0.3560648700886045,0.15130883748446533
1728066757496720400,1.160720458984375,-2.525114059448242,1.0226573944091797,1.1035298109054565,0.723778486251831,0.5367923974990845,-0.433587908744812,0.07895582914352417,0.024990379810333252,-0.06169706583023071,0.8317319495031565,-0.3912860927618673,0.3606954895523984,0.15816376875881186
1728066757506751200,1.170751220703125,-2.9316654205322266,0.9617664217948914,1.0725908279418945,0.7339004874229431,0.5403309464454651,-0.41162165999412537,0.05412435531616211,-0.03555500507354736,-0.03610175848007202,0.8236296621178055,-0.4013925236095934,0.3647920119406148,0.1656650904140521
1728066757516781300,1.18078125,-3.4039969444274902,0.8366622924804688,1.0274102687835693,0.7432535886764526,0.5452619791030884,-0.38763830065727234,0.018922924995422363,-0.12135761976242065,0.0017892718315124512,0.8145880582955392,-0.41326864378599915,0.3679536358196564,0.17396950832728536
1728066757526812400,1.1908125,-3.8047304153442383,0.6568863987922668,0.9689227342605591,0.7515524625778198,0.551363468170166,-0.36217013001441956,-0.011730074882507324,-0.1830621361732483,0.04068267345428467,0.8046998857077768,-0.4267655627016052,0.36984604454246156,0.18314774416526786
1728066757536842200,1.20084228515625,-4.0522308349609375,0.45235076546669006,0.9057019352912903,0.7587288618087769,0.5580453276634216,-0.33602944016456604,-0.02499479055404663,-0.19908243417739868,0.05136147141456604,0.7942029802723775,-0.44134525562991506,0.3704046976526639,0.19301876386847153
1728066757546873300,1.210873291015625,-4.104920387268066,0.3018989562988281,0.8426324129104614,0.7648592591285706,0.564612865447998,-0.31016549468040466,-0.03818994760513306,-0.16171979904174805,0.057876646518707275,0.7834416851884884,-0.45626488581914315,0.3697831923637606,0.2032285721572272
1728066757556904200,1.220904296875,-4.047774791717529,0.2061263471841812,0.8206032514572144,0.7703406810760498,0.5704071521759033,-0.2849756181240082,-0.047882795333862305,-0.08479619026184082,0.028902530670166016,0.7726114135685753,-0.47092698185357795,0.36842905681498633,0.21344678125638314
1728066757566934300,1.230934326171875,-3.9326512813568115,0.1587018519639969,0.8231204748153687,0.775558590888977,0.5749641060829163,-0.2606247663497925,-0.05943310260772705,-0.012616753578186035,0.004719555377960205,0.7618044571408608,-0.4849754330372377,0.36672394742483105,0.2235316230694276
1728066757576965400,1.24096533203125,-3.8415157794952393,0.12642720341682434,0.8472990989685059,0.7807586789131165,0.5781266689300537,-0.23703449964523315,-0.07841193675994873,0.022779643535614014,-0.01629197597503662,0.7510025532714791,-0.49834123162723043,0.364881855859321,0.233478854482288
1728066757586995500,1.250995361328125,-3.8167788982391357,0.1188686266541481,0.8582577109336853,0.7860038876533508,0.580059826374054,-0.21384216845035553,-0.11325913667678833,0.01776421070098877,-0.02465277910232544,0.7400698266940149,-0.5112331819879703,0.3629318753526502,0.24334690464722028
1728066757597026300,1.2610263671875,-3.823021650314331,0.16799654066562653,0.8535974621772766,0.7912886142730713,0.5810068845748901,-0.1905081421136856,-0.1559889316558838,-0.009031236171722412,-0.00015044212341308594,0.72883815007051,-0.5239095368392581,0.36092204831332575,0.25307908985313404
1728066757607057400,1.271057373046875,-3.8373515605926514,0.2657470703125,0.8391380906105042,0.7966166138648987,0.5811145901679993,-0.1664564162492752,-0.18818765878677368,-0.03689467906951904,0.024107158184051514,0.71716109778104,-0.5365545939973767,0.3589999415238488,0.26250360344162177
1728066757617087500,1.28108740234375,-3.828317165374756,0.39736396074295044,0.8168460726737976,0.8019444346427917,0.5804053544998169,-0.14147329330444336,-0.19238632917404175,-0.04637831449508667,0.02907705307006836,0.7050211419860608,-0.5491858772155609,0.35729290780073736,0.27144391108933963
1728066757627118300,1.291118408203125,-3.7818243503570557,0.4881061017513275,0.8216224908828735,0.8072680234909058,0.5787289142608643,-0.11572050303220749,-0.15719783306121826,-0.025490999221801758,0.01102989912033081,0.6924828007517998,-0.5616915398372847,0.355868461708976,0.2798710719616043
1728066757637148400,1.3011484375,-3.636878490447998,0.47960594296455383,0.8541141152381897,0.8126232624053955,0.5757606029510498,-0.09024013578891754,-0.08740353584289551,0.014998674392700195,-0.009750783443450928,0.6798451101864164,-0.573676141433829,0.35464858335687316,0.2879769895772825
1728066757647179300,1.31117919921875,-3.406564474105835,0.37473946809768677,0.906781017780304,0.8180310130119324,0.5713298320770264,-0.06638763099908829,0.0052416324615478516,0.06184875965118408,-0.0517306849360466,0.667537227610562,-0.5846675126237133,0.3535110781965081,0.29595229631756476
1728066757657210400,1.32121044921875,-3.129772186279297,0.1994398981332779,0.9591974020004272,0.8235312700271606,0.5654566287994385,-0.04533110186457634,0.09105002880096436,0.10991257429122925,-0.10568517446517944,0.6559429598177071,-0.5943045989889728,0.3523300894051907,0.30398083180053037
1728066757667240400,1.331240478515625,-2.884878158569336,0.017927629873156548,1.0093934535980225,0.829132616519928,0.5583751201629639,-0.027504045516252518,0.15925556421279907,0.16039013862609863,-0.15761566162109375,0.6452145755747791,-0.6025301598083024,0.35100624509163025,0.3121701974450151
1728066757677271300,1.341271240234375,-2.685098171234131,-0.1501699686050415,1.0235377550125122,0.8347769975662231,0.5504450798034668,-0.012541711330413818,0.1899878978729248,0.19859349727630615,-0.16592514514923096,0.6352332158665152,-0.6095998328238562,0.34945269791754213,0.32054559473083555
1728066757687302400,1.351302490234375,-2.4719886779785156,-0.26691630482673645,1.0351630449295044,0.8404273986816406,0.5419237613677979,-0.0002282895875396207,0.18012601137161255,0.2109905481338501,-0.13900822401046753,0.6260119603216076,-0.6155880734227088,0.3477602321552578,0.3289726576166912
1728066757697332500,1.36133251953125,-2.3612866401672363,-0.3101652264595032,0.9792661666870117,0.8459081053733826,0.5332286953926086,0.010316104628145695,0.1500939130783081,0.1987658143043518,-0.140275239944458,0.6173468535471148,-0.6208583898771822,0.345966633946167,0.33723089510337056
1728066757707363300,1.37136328125,-2.2886135578155518,-0.31451550126075745,0.8656298518180847,0.8508745431900024,0.5249890089035034,0.01997039094567299,0.08740353584289551,0.17780017852783203,-0.08666670322418213,0.6090421013894957,-0.6258617486699081,0.3439218902059485,0.34508317622937074
1728066757717393200,1.38139306640625,-2.248608350753784,-0.31549501419067383,0.7332449555397034,0.8551506996154785,0.5175599455833435,0.029136521741747856,0.017484188079833984,0.15132427215576172,-0.0193861722946167,0.6010366311778561,-0.6308082941675531,0.34153939222179364,0.3524012819805565
1728066757727424300,1.39142431640625,-2.2571945190429688,-0.34612882137298584,0.5823944211006165,0.858681857585907,0.5111033916473389,0.037931010127067566,-0.029443025588989258,0.11511725187301636,0.027178168296813965,0.5932622893022597,-0.6358341546180519,0.3386449957343276,0.3592692150353197
1728066757737455400,1.401455322265625,-2.332902669906616,-0.33763545751571655,0.3930378258228302,0.8612946271896362,0.5059596300125122,0.04665352776646614,-0.06358039379119873,0.08237349987030029,0.0641556978225708,0.5856102376918905,-0.6411808408359219,0.33498342216611027,0.36569648606442684
1728066757747485200,1.411485107421875,-2.4049997329711914,-0.33462023735046387,0.270852267742157,0.8631410598754883,0.5018818974494934,0.055697277188301086,-0.09991168975830078,0.058954834938049316,0.09747040271759033,0.577914213714425,-0.6469120022330885,0.3306864073199513,0.37170768617697836
1728066757757516300,1.421516357421875,-2.46445894241333,-0.2742953896522522,0.17009957134723663,0.8644587993621826,0.4984452426433563,0.06529458612203598,-0.09761309623718262,0.0472395122051239,0.08971941471099854,0.5700440461820427,-0.6529866159019202,0.3259689765013685,0.3773626112379515
1728066757767546000,1.431546142578125,-2.4679548740386963,-0.19537952542304993,0.03341974318027496,0.8651290535926819,0.495822548866272,0.07557357102632523,-0.07826399803161621,0.044140130281448364,0.05131839960813522,0.5620938399598526,-0.6593954755483165,0.32091181488389636,0.3824442127310987
1728066757777577200,1.4415771484375,-2.4430253505706787,-0.14679788053035736,-0.06747624278068542,0.86518394947052,0.4939717948436737,0.08630353212356567,-0.05601048469543457,0.05677881836891174,0.008895985782146454,0.5542317672971651,-0.6659721631708849,0.31564670687522395,0.3868788322246229
1728066757787608000,1.451608154296875,-2.3806159496307373,-0.14513367414474487,-0.102083221077919,0.8648764491081238,0.49252182245254517,0.09700990468263626,-0.0013511180877685547,0.08722054958343506,-0.019174933433532715,0.5465184375336947,-0.672502785793536,0.3102337081404996,0.39091256855758355
1728066757797638100,1.46163818359375,-2.2313411235809326,-0.21014942228794098,-0.04680025950074196,0.8646665215492249,0.4908328950405121,0.10693341493606567,0.06621110439300537,0.11419329047203064,-0.032058604061603546,0.5391067796226144,-0.6785772699582541,0.3049583486816529,0.39483806018142564
1728066757807669200,1.471669189453125,-2.0592756271362305,-0.31705936789512634,0.0459672287106514,0.8649659156799316,0.48843851685523987,0.11516016721725464,0.13318777084350586,0.11584001779556274,-0.041689157485961914,0.5321839344189049,-0.6838069450833707,0.29998024230808046,0.3989990036482503
1728066757817700000,1.4817001953125,-1.913159728050232,-0.3966093063354492,0.13408830761909485,0.8658522963523865,0.4852593243122101,0.12175072729587555,0.15970617532730103,0.09921330213546753,-0.032349586486816406,0.5256978695345731,-0.6882123340852861,0.2953627395727093,0.40344321840942166
1728066757827730200,1.491730224609375,-1.7978317737579346,-0.4425179362297058,0.18368062376976013,0.8671588897705078,0.48155033588409424,0.12706249952316284,0.13618284463882446,0.07928648591041565,-0.012011274695396423,0.5195796590657945,-0.6919726870882414,0.2910413252773384,0.4080512113281552
1728066757837761300,1.50176123046875,-1.7239173650741577,-0.445715069770813,0.206292986869812,0.8686932325363159,0.4775385856628418,0.1316390484571457,0.0885210633277893,0.06333968043327332,-0.0015274286270141602,0.5136976832669162,-0.6953245397274633,0.2869552421029599,0.4126682550285935
1728066757847791000,1.511791015625,-1.6563191413879395,-0.40635034441947937,0.19995413720607758,0.8702504634857178,0.4734705984592438,0.13597755134105682,0.04040944576263428,0.05733692646026611,-0.0217808336019516,0.5079684700998954,-0.6984734223073127,0.2830612236284042,0.4171082808172123
1728066757857822200,1.521822265625,-1.5404846668243408,-0.3458441197872162,0.16590029001235962,0.8716578483581543,0.4696219563484192,0.14024116098880768,0.006042838096618652,0.05643996596336365,-0.06544269621372223,0.5025016084245377,-0.7014628744160555,0.27941083856593624,0.4211549045157595
1728066757867853000,1.53185302734375,-1.46932053565979,-0.30674147605895996,0.12278611212968826,0.8728024959564209,0.4662032723426819,0.14446526765823364,-0.011642277240753174,0.05331265926361084,-0.09697999060153961,0.49734788349622927,-0.7043407426497775,0.2759288897047892,0.4247498174671829
1728066757877883100,1.541883056640625,-1.4920759201049805,-0.32810401916503906,0.06504718214273453,0.8737202286720276,0.4631906747817993,0.14855077862739563,-0.016389906406402588,0.053593963384628296,-0.07770431041717529,0.4923634559263434,-0.7071845064642884,0.27233336395027524,0.42813878334822575
1728066757887914200,1.551914306640625,-1.5400394201278687,-0.33572492003440857,-0.01786634512245655,0.8743546605110168,0.46063753962516785,0.15269878506660461,-0.0021012425422668457,0.05259177088737488,-0.04527701437473297,0.48733755251241045,-0.710172423948605,0.2683365809258644,0.4314541270461623
1728066757897944300,1.5619443359375,-1.457613468170166,-0.3272235691547394,-0.12307585775852203,0.8745512366294861,0.4589160680770874,0.15670347213745117,0.01883554458618164,0.017234385013580322,-0.032725945115089417,0.482567714287708,-0.7131974749674409,0.2640096606526173,0.4344842463431224
1728066757907975200,1.57197509765625,-1.4165515899658203,-0.30900222063064575,-0.14969494938850403,0.8744044899940491,0.45788976550102234,0.16047891974449158,0.04084807634353638,-0.020633995532989502,-0.05133296549320221,0.47818116648644193,-0.7161266497189851,0.25961911275784516,0.43715348449598496
1728066757918006300,1.58200634765625,-1.3737716674804688,-0.26476338505744934,-0.12287052720785141,0.8742467164993286,0.45679834485054016,0.16440171003341675,0.06789189577102661,-0.002925693988800049,-0.04954886436462402,0.47379050370250353,-0.7190281581733774,0.25534165591981084,0.4396836331988578
1728066757928036000,1.5920361328125,-1.1985044479370117,-0.22271767258644104,-0.08197875320911407,0.8741894960403442,0.45553162693977356,0.16817668080329895,0.10261702537536621,0.028080344200134277,-0.04918874800205231,0.4696649910389777,-0.7216700013842751,0.2515566532850717,0.4419573909223032
1728066757938067200,1.602067138671875,-1.1300084590911865,-0.22921524941921234,-0.049485791474580765,0.8742860555648804,0.45411667227745056,0.17146921157836914,0.12398958206176758,0.042450010776519775,-0.07012034952640533,0.4659152092708282,-0.723949585940946,0.24825713299345728,0.4440588845465535
1728066757948097300,1.61209716796875,-1.2620857954025269,-0.31271615624427795,-0.07241347432136536,0.8744958639144897,0.45255306363105774,0.17450681328773499,0.13688719272613525,0.06972473859786987,-0.013129949569702148,0.46204694386505063,-0.7261868127207861,0.24475726281008045,0.44638456740517135
1728066757958128000,1.622128173828125,-1.409011721611023,-0.41038069128990173,-0.13104084134101868,0.8746689558029175,0.4511011242866516,0.17737437784671783,0.14757823944091797,0.09888657927513123,0.09148536622524261,0.4578459739227597,-0.7285790846747198,0.24054044180731807,0.44909883250029864
1728066757968159200,1.6321591796875,-1.5702956914901733,-0.4966958463191986,-0.1765395998954773,0.8747901916503906,0.44978219270706177,0.18010595440864563,0.15621566772460938,0.08639636635780334,0.13395047187805176,0.4532899909622786,-0.7311341785145464,0.23557543741226195,0.45218936370879564
1728066757978189300,1.642189208984375,-1.6180427074432373,-0.5146958827972412,-0.18852968513965607,0.8749136328697205,0.4484342038631439,0.18284690380096436,0.17516571283340454,0.03031027317047119,0.1220846176147461,0.44839428861465175,-0.7338108332004033,0.23009804630040637,0.4555426934046528
1728066757988220200,1.65222021484375,-1.556667447090149,-0.5082576870918274,-0.20546366274356842,0.8749808669090271,0.44721221923828125,0.18549850583076477,0.20592129230499268,-0.05313873291015625,0.04045356810092926,0.4435844904744162,-0.7364067347143078,0.22462051531904645,0.45878486758865666
1728066757998251300,1.662251220703125,-1.6769909858703613,-0.5016945004463196,-0.2089225798845291,0.8750228881835938,0.44598299264907837,0.18823856115341187,0.23348218202590942,-0.11633220314979553,-0.04591992497444153,0.4386784778821511,-0.7390124637558116,0.21904304479651804,0.46199760170727294
1728066758008281300,1.67228125,-1.791880488395691,-0.4795660376548767,-0.2265457808971405,0.8749801516532898,0.44457951188087463,0.19172576069831848,0.26370692253112793,-0.10948127508163452,-0.020705342292785645,0.4332529339225004,-0.7419178131720114,0.21312164699512845,0.4652193251221515
1728066758018312200,1.682312255859375,-1.8518270254135132,-0.4663723111152649,-0.22895514965057373,0.8748942613601685,0.4430308938026428,0.19566167891025543,0.276991605758667,-0.0762859582901001,0.018342837691307068,0.4274808578441949,-0.7449805726783806,0.20696565578464335,0.4684327238274408
1728066758028342300,1.69234228515625,-1.8449409008026123,-0.44506436586380005,-0.22136540710926056,0.8748028874397278,0.4413203001022339,0.19989049434661865,0.27696096897125244,-0.06332960724830627,0.021255135536193848,0.4215332618909083,-0.7480841012879939,0.2007870184024526,0.47155532782981996
1728066758038373000,1.702373046875,-1.8458932638168335,-0.4383145272731781,-0.17866533994674683,0.8748209476470947,0.43933382630348206,0.20414234697818756,0.2653310298919678,-0.05440038442611694,0.03856384754180908,0.415514057330375,-0.7510999579215526,0.1947306532814258,0.4746334257469362
1728066758048404200,1.712404296875,-1.825221300125122,-0.3824022710323334,-0.14965499937534332,0.8749699592590332,0.43693622946739197,0.2086002081632614,0.24867188930511475,-0.03608790040016174,0.06743119657039642,0.4093506165442214,-0.7540733620297572,0.18887420716205375,0.4776315370179424
1728066758058434300,1.722434326171875,-1.7057135105133057,-0.268415242433548,-0.13074176013469696,0.8750700354576111,0.43439555168151855,0.21343199908733368,0.23490017652511597,-0.008553236722946167,0.05791500210762024,0.40328326526954283,-0.7570136785571349,0.18342925732859586,0.4802569276069824
1728066758068465200,1.732465087890625,-1.4706013202667236,-0.11745980381965637,-0.12880244851112366,0.8749383687973022,0.43205374479293823,0.2186606526374817,0.22860783338546753,0.011366695165634155,-0.010637611150741577,0.39770321598243724,-0.7598629289073989,0.17871389663431886,0.4821844687812766
1728066758078495200,1.7424951171875,-1.2113547325134277,-0.005205599125474691,-0.12193389236927032,0.8745434284210205,0.4301445782184601,0.223940908908844,0.229628324508667,0.022431105375289917,-0.05642998218536377,0.39293566602675134,-0.762484721978369,0.17489283001148265,0.483354040186291
1728066758088526300,1.7525263671875,-0.9864917397499084,0.031703416258096695,-0.12024597823619843,0.8739915490150452,0.42868509888648987,0.22884073853492737,0.24440151453018188,0.03594505786895752,-0.042042702436447144,0.38899367620506736,-0.7647894414344119,0.17180652342920208,0.4840078748521736
1728066758098557200,1.76255712890625,-0.726515531539917,-0.030970295891165733,-0.09876012802124023,0.8735150694847107,0.42764002084732056,0.23258361220359802,0.27254194021224976,0.05838283896446228,-0.007501393556594849,0.38595499779691445,-0.7665642345208714,0.16932537799433545,0.48450675441373847
1728066758108587300,1.772587158203125,-0.4692597985267639,-0.10652870684862137,-0.08125890046358109,0.8733118772506714,0.42702192068099976,0.2344750314950943,0.2983494997024536,0.054530173540115356,-0.005486488342285156,0.38396040981972546,-0.7675994178438394,0.1674175956264253,0.4851152757883076
1728066758118618400,1.782618408203125,-0.3426264822483063,-0.10912629216909409,-0.10478845983743668,0.8732037544250488,0.42686009407043457,0.23517100512981415,0.3153032064437866,0.0003554224967956543,-0.05069233477115631,0.38274207187597803,-0.7681574482260838,0.1658904406305629,0.4857189472416749
1728066758128648200,1.792648193359375,-0.3562384247779846,-0.026631157845258713,-0.16014891862869263,0.8728407621383667,0.4271697998046875,0.23595553636550903,0.3042527437210083,-0.08175662159919739,-0.09131753444671631,0.38178455891886154,-0.7687345772619739,0.16439256322397836,0.4860687283437854
1728066758138679300,1.80267919921875,-0.3595212399959564,0.14653652906417847,-0.17521175742149353,0.8719741106033325,0.4277890622615814,0.2380286157131195,0.284504771232605,-0.1564878225326538,-0.09415364265441895,0.3807559797779653,-0.7697090887393727,0.16297921508818658,0.4858091872458976
1728066758148710100,1.812710205078125,-0.3039895296096802,0.2245548963546753,-0.11821798235177994,0.8708783984184265,0.42826393246650696,0.24116578698158264,0.28410524129867554,-0.18400120735168457,-0.07061836123466492,0.37964066023869114,-0.7709468116520494,0.16193796564940427,0.48506712987127576
1728066758158740200,1.822740234375,-0.13888147473335266,0.24088631570339203,-0.03579368069767952,0.8699938654899597,0.42835402488708496,0.2441791296005249,0.3049938678741455,-0.14478468894958496,-0.03237199783325195,0.37875011266367636,-0.7720061954845101,0.16154255716242344,0.4842094063706839
1728066758168771300,1.832771240234375,0.07556610554456711,0.24233587086200714,0.030746998265385628,0.8694191575050354,0.4282340109348297,0.24642616510391235,0.3296622037887573,-0.0711783766746521,-0.05141890048980713,0.37842112685969354,-0.772648947621153,0.16194654896160102,0.4833056439663422
1728066758178802200,1.84280224609375,0.2517813444137573,0.22963818907737732,0.06799982488155365,0.8690768480300903,0.4281623661518097,0.24775473773479462,0.32803618907928467,0.00504988431930542,-0.08804106712341309,0.3787416636148129,-0.7728548988953733,0.16301126081121725,0.48236643159201
1728066758188832300,1.852832275390625,0.32564863562583923,0.24184344708919525,0.06917773932218552,0.8688325881958008,0.4282275140285492,0.2484971284866333,0.30208098888397217,0.05114251375198364,-0.07280758023262024,0.3795177165850463,-0.7727855339677081,0.16447212747748563,0.48137057353782503
1728066758198863400,1.86286328125,0.2663661539554596,0.2589836120605469,0.026083270087838173,0.8684481978416443,0.42851439118385315,0.24934495985507965,0.27925676107406616,0.05950736999511719,-0.0693219006061554,0.380362096676565,-0.7727569652463826,0.1658889844049874,0.4802625184387708
1728066758208893200,1.87289306640625,0.141783207654953,0.2329847514629364,-0.02328401245176792,0.8678485751152039,0.42898333072662354,0.25062257051467896,0.26845794916152954,0.023424416780471802,-0.0687379240989685,0.3809424993574653,-0.7729560266694513,0.16688400735263645,0.4791360339293955
1728066758218924300,1.88292431640625,-0.012916352599859238,0.17166350781917572,-0.01641012914478779,0.867266058921814,0.4293099045753479,0.2520767152309418,0.2820412516593933,-0.05751422047615051,-0.07240447402000427,0.3810728844810265,-0.7733257235183537,0.16734898815101035,0.47827307456940316
1728066758228955400,1.892955322265625,-0.1998199224472046,0.031836096197366714,0.043304599821567535,0.8670658469200134,0.4289112389087677,0.2534402012825012,0.3165583610534668,-0.1486378312110901,-0.079215407371521,0.38054972851603314,-0.7737617389157481,0.16737047389704404,0.47797678291097534
1728066758238985200,1.902985107421875,-0.43061819672584534,-0.1004919558763504,0.0960245355963707,0.8675019145011902,0.4274214208126068,0.2544628381729126,0.34522080421447754,-0.1904677152633667,-0.04437994956970215,0.37916677635975166,-0.7742054320987555,0.16684532583149955,0.4785406292879225
1728066758249016300,1.913016357421875,-0.5290379524230957,-0.15720663964748383,0.12178396433591843,0.8683422803878784,0.42516985535621643,0.2553667426109314,0.3438311219215393,-0.15730184316635132,-0.02067139744758606,0.37708272205599636,-0.7747168503411502,0.16582270824224704,0.479713661224505
1728066758259046400,1.92304638671875,-0.36692455410957336,-0.15880681574344635,0.18588651716709137,0.8694140315055847,0.42261919379234314,0.2559540867805481,0.30929696559906006,-0.09385326504707336,-0.07461866736412048,0.3750480341957593,-0.7750750498004939,0.16503243911657767,0.4810010754697728
1728066758269077200,1.9330771484375,-0.23983745276927948,-0.22056232392787933,0.26754167675971985,0.8708913922309875,0.4198318123817444,0.2555183172225952,0.2706950306892395,-0.0543990433216095,-0.16059347987174988,0.37352029883812576,-0.7749633307039822,0.1648969234137668,0.48241422806988027
1728066758279108400,1.9431083984375,-0.3119537830352783,-0.3346872925758362,0.3021412193775177,0.8728492259979248,0.4165458083152771,0.2542121112346649,0.2543327212333679,-0.03129193186759949,-0.2007453441619873,0.37196969800639834,-0.7745509110649316,0.16485431274193998,0.48428553569287197
1728066758289138400,1.953138427734375,-0.409628689289093,-0.4426345229148865,0.27971285581588745,0.8751062154769897,0.41299256682395935,0.2522427439689636,0.24826115369796753,-0.06397825479507446,-0.186507910490036,0.370168774125186,-0.7740082202569731,0.16441605789361277,0.4866762678476373
1728066758299169300,1.963169189453125,-0.5101349949836731,-0.49793756008148193,0.26596617698669434,0.8774710297584534,0.40938472747802734,0.2498977929353714,0.23967081308364868,-0.15817925333976746,-0.18094345927238464,0.3680973757347418,-0.773449701666478,0.16347616703130655,0.48944405144013176
1728066758309199400,1.973199462890625,-0.6504220962524414,-0.4623486399650574,0.3196866512298584,0.8799031972885132,0.40531477332115173,0.24797233939170837,0.22817480564117432,-0.2191576063632965,-0.1739826202392578,0.36551448569894485,-0.7730736380364402,0.16230625770265736,0.4923545175719432
1728066758319231700,1.983231689453125,-0.7707705497741699,-0.4552212953567505,0.3905520439147949,0.8825072050094604,0.40034550428390503,0.24678778648376465,0.2251434326171875,-0.1788184940814972,-0.1579207330942154,0.36222416411235325,-0.7729427301552545,0.1611006694940545,0.49537829929376864
1728066758329262800,1.993262939453125,-0.7937647700309753,-0.5282326340675354,0.4304797351360321,0.8854019045829773,0.3946628272533417,0.24556967616081238,0.21742701530456543,-0.06992533802986145,-0.11376442015171051,0.3585085388403302,-0.7728039866358181,0.15987130780424189,0.49868494551721604
1728066758339292700,2.003292724609375,-0.7279477715492249,-0.5876487493515015,0.42285510897636414,0.8885217308998108,0.38889217376708984,0.24349945783615112,0.20541131496429443,0.011132210493087769,-0.0937497615814209,0.3549008861433349,-0.7723908670934886,0.15862559999317216,0.5022903792769835
1728066758349323800,2.01332373046875,-0.6160427927970886,-0.5601279139518738,0.3875032365322113,0.8915547728538513,0.3835428059101105,0.24088382720947266,0.18946945667266846,0.0404227077960968,-0.13440808653831482,0.35169940884521256,-0.771776938616906,0.15748737664728318,0.5058316151074511
1728066758359354600,2.023354736328125,-0.48914316296577454,-0.5279978513717651,0.3781622052192688,0.8943653702735901,0.3787321150302887,0.23805929720401764,0.16691380739212036,0.01816415786743164,-0.17922154068946838,0.3490143630384897,-0.7710361448951555,0.15662986748700863,0.5090767824957758
1728066758369384700,2.033384765625,-0.41440367698669434,-0.4417646527290344,0.37926343083381653,0.8969977498054504,0.3741961419582367,0.23531323671340942,0.15607225894927979,-0.03883850574493408,-0.1813124418258667,0.34667511438160614,-0.770251494284427,0.15610654493202133,0.5120153754405256
1728066758379415800,2.043415771484375,-0.30864495038986206,-0.445468932390213,0.3809414803981781,0.899505615234375,0.3697970509529114,0.23267924785614014,0.16264337301254272,-0.06872594356536865,-0.19724847376346588,0.34460436214022144,-0.7694336048676335,0.15592162512881771,0.5146922656557342
1728066758389446000,2.05344580078125,-0.20692577958106995,-0.48724329471588135,0.40551501512527466,0.902094841003418,0.36556264758110046,0.22932186722755432,0.1632431149482727,-0.06244686245918274,-0.18217232823371887,0.34295020124331144,-0.7683265326667955,0.1559976661836701,0.517420633292534
1728066758399476700,2.063476806640625,-0.10893949121236801,-0.5279882550239563,0.4236559271812439,0.9048358798027039,0.36130884289741516,0.22522807121276855,0.1641947627067566,-0.04005032777786255,-0.1628808081150055,0.34162488690376935,-0.7669211482424592,0.15635212126663006,0.5202675150162138
1728066758409507800,2.0735078125,-0.07886973768472672,-0.5704789757728577,0.40091946721076965,0.9076297879219055,0.3572446405887604,0.22041857242584229,0.15093344449996948,-0.009420603513717651,-0.13655638694763184,0.34063145580712406,-0.7652572881358036,0.15681380804660502,0.5232216407171443
1728066758419537700,2.08353759765625,-0.128994882106781,-0.5185953378677368,0.38488268852233887,0.9102979302406311,0.3533143699169159,0.215700164437294,0.12014329433441162,0.02521038055419922,-0.09605610370635986,0.33960097686043494,-0.7636469420277684,0.1571414325366891,0.5261378856887194
1728066758429568800,2.09356884765625,-0.05507991835474968,-0.4192221462726593,0.35436445474624634,0.9126853942871094,0.3495714068412781,0.21167190372943878,0.10052859783172607,0.038718968629837036,-0.09118856489658356,0.33857188821936285,-0.7622461000829721,0.15753359325323948,0.5287088458408516
1728066758439598800,2.103598876953125,0.0585331954061985,-0.36335062980651855,0.298875629901886,0.9147099256515503,0.34646543860435486,0.2080077826976776,0.09510135650634766,0.002823442220687866,-0.1489257961511612,0.3380157095517342,-0.760907338055288,0.15818949681088612,0.5307931910856365
1728066758449629700,2.113629638671875,-0.03138976916670799,-0.3398735225200653,0.2863073945045471,0.9165024757385254,0.3437616229057312,0.2045755833387375,0.09895467758178711,-0.03820440173149109,-0.15959274768829346,0.33760757290769877,-0.7596528963936682,0.15879315948573058,0.5326662399694282
1728066758459660800,2.123660888671875,-0.15204760432243347,-0.3353355824947357,0.3051806688308716,0.9182597994804382,0.3407357633113861,0.20173753798007965,0.1318957805633545,-0.031638503074645996,-0.07766842842102051,0.3366939550333033,-0.7586485821322924,0.15912605190139703,0.5345730969737907
1728066758469691000,2.13369091796875,-0.26358187198638916,-0.43414685130119324,0.309925377368927,0.9201428890228271,0.33736613392829895,0.1987980604171753,0.16710662841796875,-0.032022565603256226,-0.0045996010303497314,0.335378743786681,-0.7576750169846032,0.15914646763082613,0.5367698620311635
1728066758479721700,2.1437216796875,-0.4518877863883972,-0.4830579161643982,0.28928878903388977,0.9221459031105042,0.3337514102458954,0.19559302926063538,0.1795385479927063,-0.07958582043647766,0.030832037329673767,0.33356396100601887,-0.7567329237453454,0.15859319134133487,0.5393871109816115
1728066758489751800,2.153751708984375,-0.6245130896568298,-0.48771339654922485,0.26818403601646423,0.924103319644928,0.3299729526042938,0.19274525344371796,0.16659480333328247,-0.11125349998474121,0.039523929357528687,0.3311016022553381,-0.7560426280582577,0.1573917651217134,0.5422167549767594
1728066758499783000,2.163782958984375,-0.4879869520664215,-0.3977752923965454,0.27725398540496826,0.9259307980537415,0.32619571685791016,0.19038990139961243,0.1396360993385315,-0.11527353525161743,0.03492125868797302,0.32847042498927304,-0.7555268637191752,0.15612208499670766,0.544896453910833
1728066758509813800,2.173813720703125,-0.10338546335697174,-0.3431061804294586,0.32451602816581726,0.927680492401123,0.32269224524497986,0.1878257542848587,0.12183427810668945,-0.09977662563323975,-0.002431511878967285,0.32678742409109524,-0.7547244108565995,0.15589721745507634,0.5470804665491164
1728066758519843800,2.18384375,0.15936148166656494,-0.3169132471084595,0.35991448163986206,0.9295024871826172,0.31938880681991577,0.18443410098552704,0.10225105285644531,-0.01840919256210327,-0.03263974189758301,0.3262144919191293,-0.7534123006314739,0.15680228389062206,0.5489691019650601
1728066758529874700,2.193874755859375,0.35047414898872375,-0.2425873726606369,0.3487933874130249,0.9312637448310852,0.3162960112094879,0.18084396421909332,0.08043968677520752,0.1148715615272522,0.00644230842590332,0.32637229776417115,-0.7518695772421338,0.1584743440433042,0.5505080433126177
1728066758539904800,2.20390478515625,0.49086809158325195,-0.13100683689117432,0.2274467498064041,0.9326279759407043,0.3141292333602905,0.17756082117557526,0.051182448863983154,0.17851600050926208,0.014577746391296387,0.327283494809407,-0.7503458021620253,0.16050416088022684,0.5514572245564189
1728066758549935900,2.213935791015625,0.4105578064918518,-0.12797802686691284,0.08516762405633926,0.9334354996681213,0.3133065700531006,0.1747497320175171,0.007116436958312988,0.1292899250984192,0.01975397765636444,0.3286747372241497,-0.7490366301099256,0.16223130333472935,0.551904133677622
1728066758559966700,2.223966796875,0.1856023371219635,-0.11673303693532944,0.024606814607977867,0.9339172840118408,0.31314799189567566,0.17244409024715424,-0.005648791790008545,0.01766255497932434,0.07184912264347076,0.32972628199968107,-0.748076656110295,0.1631053653498312,0.5523210954908534
1728066758569996800,2.233996826171875,-0.08078248798847198,-0.13013778626918793,0.03009186126291752,0.9342957735061646,0.31279897689819336,0.1710219383239746,0.0381622314453125,-0.11290881037712097,0.08837737143039703,0.3299175801715261,-0.7475752332624354,0.1632244987171749,0.5528503741072046
1728066758580028000,2.24402783203125,-0.4154855012893677,-0.20911622047424316,0.03502270206809044,0.9347822666168213,0.31187960505485535,0.17003941535949707,0.07797414064407349,-0.19635528326034546,0.09698928892612457,0.3290105845647783,-0.7474162590795209,0.16244581105354475,0.5538342937119641
1728066758590058800,2.254058837890625,-0.7366281151771545,-0.26004332304000854,0.06345008313655853,0.9354338049888611,0.310232549905777,0.16946862637996674,0.08713406324386597,-0.1819823980331421,0.12903906404972076,0.32683883718898077,-0.7476094338842527,0.16066876173735228,0.5553757102185509
1728066758600088800,2.2640888671875,-0.854932427406311,-0.2708945870399475,0.10988149791955948,0.9362531304359436,0.3078285753726959,0.16932612657546997,0.07160502672195435,-0.0815102756023407,0.13955746591091156,0.3237137684842133,-0.7480568249741825,0.1583478848737955,0.5572667380060959
1728066758610120000,2.274119873046875,-0.7081946730613708,-0.29150107502937317,0.11278381198644638,0.9371852874755859,0.3051661550998688,0.16898928582668304,0.03856849670410156,0.042886823415756226,0.12443709373474121,0.320575577922879,-0.7484014826564751,0.1561725532393021,0.5592286227213297
1728066758620149800,2.284149658203125,-0.5066033005714417,-0.34786611795425415,0.018218155950307846,0.9380645155906677,0.30322712659835815,0.1675942987203598,0.004592776298522949,0.13811802864074707,0.09082840383052826,0.31827962240606433,-0.7483319061852955,0.1542611638462404,0.5611602062702055
1728066758630180900,2.294180908203125,-0.2886722981929779,-0.2891484797000885,-0.14497502148151398,0.9385133981704712,0.3029087483882904,0.16564714908599854,-0.02861654758453369,0.2093593180179596,0.07094037532806396,0.3171712791743483,-0.7480428051773206,0.1524976597569005,0.5626533852328593
1728066758640211700,2.304211669921875,-0.22018618881702423,-0.3195773661136627,-0.32771024107933044,0.9384041428565979,0.3044942021369934,0.1633429378271103,-0.0674782395362854,0.2442728877067566,0.08131635189056396,0.31710724768094634,-0.7476746294864671,0.15051285658657462,0.5637122685196828
1728066758650241800,2.31424169921875,-0.3323201835155487,-0.2995253801345825,-0.4622294306755066,0.9377983212471008,0.3075685203075409,0.1610451638698578,-0.08657169342041016,0.20987218618392944,0.11655792593955994,0.3173962958767144,-0.7474444320815705,0.14781543105802739,0.5645678393871565
1728066758660273000,2.32427294921875,-0.5337201952934265,-0.3427056670188904,-0.5150817036628723,0.9368594288825989,0.31133902072906494,0.15925584733486176,-0.06214934587478638,0.08647283911705017,0.088287353515625,0.31740539721874755,-0.747526494895774,0.14433317171911877,0.565354656249674
1728066758670303000,2.334302978515625,-0.9063928723335266,-0.4074915945529938,-0.4929300844669342,0.9359686970710754,0.3147590458393097,0.15776285529136658,-0.02906268835067749,-0.06996235251426697,0.09232865273952484,0.3163739424386566,-0.7478816135962528,0.13983746487840748,0.5665915882226134
1728066758680333800,2.344333740234375,-1.2161880731582642,-0.3904181122779846,-0.48449718952178955,0.9351276159286499,0.3174976110458374,0.15726354718208313,0.020347297191619873,-0.15695986151695251,0.0991298109292984,0.31401193433344027,-0.7487112903533852,0.1343993306969522,0.5681239573315785
1728066758690365000,2.354364990234375,-1.4700900316238403,-0.40915077924728394,-0.48182496428489685,0.9342801570892334,0.31977561116218567,0.15768373012542725,0.0274050235748291,-0.14996057748794556,0.0919346809387207,0.31057371239770026,-0.7499455932517965,0.12815408206856282,0.5698263710384913
1728066758700394800,2.364394775390625,-1.6299636363983154,-0.36794865131378174,-0.4773963987827301,0.9334223866462708,0.321664959192276,0.15891623497009277,0.00012558698654174805,-0.06037348508834839,0.12678921222686768,0.30629701707742935,-0.7514913363851486,0.12132143981066205,0.5715978189459384
1728066758710425900,2.37442578125,-1.6399171352386475,-0.372224360704422,-0.5118750333786011,0.9324896335601807,0.3234505355358124,0.16075675189495087,-0.01052314043045044,0.07898476719856262,0.11486268043518066,0.3016724819450411,-0.7532091047277136,0.11425594162391954,0.5732497831607345
1728066758720455700,2.38445556640625,-1.5284138917922974,-0.39613282680511475,-0.6394327282905579,0.9313169717788696,0.3261125683784485,0.16217105090618134,-0.03626692295074463,0.17063727974891663,0.0739128589630127,0.29750041602463456,-0.7547483918666996,0.10695974778976078,0.5748113096660797
1728066758730486800,2.39448681640625,-1.3006064891815186,-0.26302164793014526,-0.77190101146698,0.9296007752418518,0.33029821515083313,0.16354067623615265,-0.08022022247314453,0.15856286883354187,0.011630192399024963,0.29432582032894383,-0.7561932218411479,0.09971031986836583,0.5758489443263514
1728066758740518000,2.404517822265625,-1.1852608919143677,-0.10142470896244049,-0.840719997882843,0.9272438287734985,0.3357222378253937,0.16585996747016907,-0.09403759241104126,0.09629982709884644,-0.08739934861660004,0.2920767018786091,-0.7578309946095392,0.09285562335210355,0.5759872084334606
1728066758750547700,2.414547607421875,-1.2791380882263184,0.0017331074923276901,-0.8512527942657471,0.9244802594184875,0.341449499130249,0.16955317556858063,-0.1076163649559021,0.05407357215881348,-0.06428290903568268,0.2898629382625778,-0.7598489248356798,0.08605926481070064,0.5755022319874461
1728066758760578800,2.424578857421875,-1.3192930221557617,0.031663842499256134,-0.8527950644493103,0.9215463399887085,0.34700632095336914,0.17417968809604645,-0.1014934778213501,0.042840421199798584,0.03605577349662781,0.2872867226739214,-0.7621275358695163,0.07906620511295123,0.5747837263755851
1728066758770608600,2.434608642578125,-1.1846866607666016,0.05945206433534622,-0.8348022103309631,0.9185358285903931,0.35250750184059143,0.17896999418735504,-0.09254711866378784,0.02063089609146118,0.0712130069732666,0.2848561906665977,-0.7643694998717466,0.07227906149944294,0.5739093333533362
1728066758780639700,2.4446396484375,-0.9117142558097839,0.18868744373321533,-0.8078376650810242,0.9154286980628967,0.35809987783432007,0.18372434377670288,-0.091499924659729,0.008675634860992432,0.039038658142089844,0.2831085618721882,-0.7664676265911538,0.06625368828026608,0.5727017709912308
1728066758790670800,2.4546708984375,-0.5633200407028198,0.3183026909828186,-0.7499690651893616,0.91214519739151,0.36381906270980835,0.18875083327293396,-0.09689855575561523,0.04528436064720154,-0.02284213900566101,0.282421092033261,-0.768497315739529,0.061540999646814795,0.570844052572403
1728066758800700700,2.46470068359375,-0.36899998784065247,0.40251225233078003,-0.7323560118675232,0.9087657928466797,0.3696219325065613,0.19371211528778076,-0.10539054870605469,0.09427574276924133,-0.03685188293457031,0.28264982179376624,-0.7703892130370127,0.05793545090405331,0.5685534481371114
1728066758810731800,2.474731689453125,-0.3626376688480377,0.36531561613082886,-0.8003198504447937,0.9051623344421387,0.37584638595581055,0.19854578375816345,-0.10877573490142822,0.11397597193717957,0.024812325835227966,0.2833343882575829,-0.7722041829806011,0.054530652242472014,0.5660818417554206
1728066758820761600,2.48476171875,-0.32329893112182617,0.36519724130630493,-0.8333705067634583,0.9013370275497437,0.3825632333755493,0.20306874811649323,-0.11686742305755615,0.08833825588226318,0.09803283214569092,0.28420640590890245,-0.7739166504668987,0.05086641106388551,0.5636420201269087
1728066758830792700,2.494792724609375,-0.24731360375881195,0.4129945635795593,-0.8247674107551575,0.8973222374916077,0.38948124647140503,0.20764748752117157,-0.08686673641204834,0.012313246726989746,0.09955768287181854,0.2853797785036027,-0.7756126803834703,0.047420632086286024,0.5610122706618554
1728066758840823600,2.504823486328125,-0.466712087392807,0.3669067621231079,-0.804337203502655,0.893287181854248,0.396060585975647,0.2125415951013565,-0.04630237817764282,-0.03305399417877197,0.06983745098114014,0.28624083974580794,-0.7773974628935033,0.04386318918178084,0.5583863856198129
1728066758850853600,2.514853515625,-0.7327362895011902,0.31522732973098755,-0.7902799844741821,0.8894007802009583,0.40182211995124817,0.21795670688152313,-0.015209555625915527,0.0015896856784820557,0.1286465972661972,0.2859970115074692,-0.7793684352350756,0.039537288565921,0.5560821203689659
1728066758860884700,2.524884765625,-0.7597585320472717,0.30427417159080505,-0.8008759021759033,0.8855041861534119,0.4071987271308899,0.22376620769500732,0.01966238021850586,0.03634369373321533,0.12697219848632812,0.28517249711491555,-0.7814570727466785,0.03475548546822844,0.5538894097582366
1728066758870914800,2.534914794921875,-0.6497768759727478,0.3335958421230316,-0.8194847702980042,0.8814706206321716,0.4127517342567444,0.2294454127550125,0.0011128783226013184,0.025282233953475952,0.09115681052207947,0.28457935844998794,-0.7834660488006321,0.030060925284158716,0.5516264361922153
1728066758880945700,2.544945556640625,-0.5462799668312073,0.34484875202178955,-0.8324437141418457,0.8772264122962952,0.4186353385448456,0.23498545587062836,-0.04522573947906494,0.013127356767654419,0.0923001617193222,0.2844756049769381,-0.7853871384045827,0.025685992270487297,0.5491637666816518
1728066758890976800,2.554976806640625,-0.5294874310493469,0.29885196685791016,-0.8232411742210388,0.8729835152626038,0.4246235489845276,0.2399885058403015,-0.07934343814849854,0.029035449028015137,0.09623883664608002,0.28460133409098454,-0.787106381129307,0.021396127378240995,0.5468160194790014
1728066758901006600,2.565006591796875,-0.5190499424934387,0.27759861946105957,-0.7887950539588928,0.868844211101532,0.43035006523132324,0.24476288259029388,-0.08887583017349243,0.039635926485061646,0.09637787938117981,0.2846904564914544,-0.7887240217506837,0.017200638420878447,0.544582416034957
1728066758911037700,2.57503759765625,-0.5076441168785095,0.25367438793182373,-0.8024107217788696,0.8647644519805908,0.43595486879348755,0.2492503821849823,-0.0830262303352356,0.0062142908573150635,0.07020759582519531,0.2848010986758827,-0.7902245734411195,0.01305051792901428,0.5424602622896144
1728066758921068500,2.585068603515625,-0.48453447222709656,0.30837562680244446,-0.7851571440696716,0.8605580925941467,0.44160330295562744,0.25382286310195923,-0.06816929578781128,-0.04211297631263733,0.03426298499107361,0.2849574435457191,-0.7917273934083954,0.008897402466949972,0.5402663564239414
1728066758931098600,2.5950986328125,-0.309770405292511,0.38823026418685913,-0.7250139117240906,0.8562912940979004,0.44705069065093994,0.25867152214050293,-0.05010843276977539,-0.05268728733062744,0.0059310197830200195,0.28538637165612146,-0.7932889172173788,0.005333862445531549,0.5377907336304145
1728066758941129700,2.605129638671875,-0.23850366473197937,0.3551483154296875,-0.6643471121788025,0.8521782755851746,0.45227184891700745,0.26313990354537964,-0.04062420129776001,-0.020387083292007446,0.014371663331985474,0.2861587598461729,-0.7947101720381208,0.0023862376746104693,0.5352974054533914
1728066758951159800,2.615159912109375,-0.16624093055725098,0.21793295443058014,-0.6528486609458923,0.8484429717063904,0.4573048949241638,0.26648950576782227,-0.034188270568847656,0.045960456132888794,0.048421263694763184,0.28711182583108497,-0.7957667036100418,-0.00033459998485178464,0.5332185356887971
1728066758961190700,2.625190673828125,-0.2980458438396454,0.12152848392724991,-0.686199963092804,0.8448740839958191,0.4624338448047638,0.26896652579307556,-0.042444825172424316,0.0686178207397461,0.10253921151161194,0.2880645188964344,-0.7965376724939673,-0.0033161840455430713,0.531540849499477
1728066758971221800,2.6352216796875,-0.5992581248283386,0.07223949581384659,-0.6786131262779236,0.8414738178253174,0.4669814705848694,0.27175402641296387,-0.05827063322067261,0.062498539686203,0.10170474648475647,0.28803679349111455,-0.7973865300181493,-0.00719307586281773,0.5302431921228553
1728066758981251800,2.645251953125,-0.5461646318435669,0.0674826130270958,-0.61246657371521,0.8382156491279602,0.4708116352558136,0.2751927375793457,-0.058125197887420654,0.03622272610664368,0.039687544107437134,0.28738667914823246,-0.7984170475327177,-0.011250844427878002,0.528973149573178
1728066758991282700,2.65528271484375,-0.42489519715309143,0.048959262669086456,-0.5659462213516235,0.8353007435798645,0.47439467906951904,0.277889609336853,-0.06416720151901245,-0.06077456474304199,-0.0763973593711853,0.28703501521524777,-0.7992037274533821,-0.014771838864939667,0.5278884322632827
1728066759001312800,2.665312744140625,-0.5475594997406006,0.019992433488368988,-0.5822860598564148,0.8324741721153259,0.477864146232605,0.280414879322052,-0.0772709846496582,-0.14238446950912476,-0.13544118404388428,0.2866603937470829,-0.7999210223459632,-0.01827006104968538,0.5268950185266933
1728066759011343600,2.675343505859375,-0.6356115937232971,0.06855570524930954,-0.5941067934036255,0.8295276761054993,0.4810694754123688,0.2836473882198334,-0.10845845937728882,-0.14566609263420105,-0.10937681794166565,0.28578794300318455,-0.8008317121511406,-0.02218702286408975,0.525834102683358
1728066759021374700,2.685374755859375,-0.509913444519043,0.14236612617969513,-0.5456864833831787,0.8264491558074951,0.4841694235801697,0.2873353958129883,-0.11589318513870239,-0.10692644119262695,-0.09484589099884033,0.2849674750290615,-0.8018713388386758,-0.02588529388642693,0.5245243532769862
1728066759031404800,2.69540478515625,-0.18535183370113373,0.23492375016212463,-0.45015251636505127,0.8234908580780029,0.48723304271698,0.2906317412853241,-0.10440510511398315,-0.046986401081085205,-0.12437209486961365,0.2848547461387218,-0.802807997297392,-0.028551631648659745,0.5230123550090998
1728066759041435600,2.705435546875,0.08805593848228455,0.1992281824350357,-0.4184936583042145,0.8207318186759949,0.4906637668609619,0.2926570177078247,-0.09583264589309692,0.02091759443283081,-0.10898712277412415,0.28586688365866564,-0.803383763470938,-0.030050572633479253,0.5214897289321944
1728066759051465700,2.7154658203125,0.27693504095077515,0.08801670372486115,-0.4276336431503296,0.8182136416435242,0.49466410279273987,0.29297393560409546,-0.10312581062316895,0.09791097044944763,-0.025212764739990234,0.28771876232369287,-0.8034436038864675,-0.031069930082185924,0.5203180847417697
1728066759061496800,2.725496826171875,0.6234323382377625,0.021855473518371582,-0.4148704409599304,0.8159646391868591,0.49942830204963684,0.2911578118801117,-0.1005258560180664,0.13753455877304077,0.01728317141532898,0.29061051319342207,-0.8028594364486145,-0.03155367814796238,0.5195830347173491
1728066759071527700,2.735527587890625,0.9429317712783813,0.09520053118467331,-0.3759632408618927,0.8138376474380493,0.5049677491188049,0.28753340244293213,-0.08588677644729614,0.10227090120315552,-0.10221555829048157,0.294857796920979,-0.8017520880255311,-0.030988600245617174,0.5189335390724481
1728066759081557800,2.745557861328125,0.8780404329299927,0.22031599283218384,-0.36858123540878296,0.8115265369415283,0.5106353759765625,0.28403544425964355,-0.10275578498840332,0.04315185546875,-0.2056969404220581,0.2996011483895664,-0.8007063397161603,-0.029783966845377527,0.5179009618903295
1728066759091588600,2.755588623046875,0.5855369567871094,0.27434036135673523,-0.4345807433128357,0.8087225556373596,0.5159767866134644,0.282375305891037,-0.14739137887954712,0.0053550004959106445,-0.14490902423858643,0.30362622102908604,-0.8002132343313866,-0.02909361581158558,0.5163559581003704
1728066759101618700,2.76561865234375,0.4890095591545105,0.2737952470779419,-0.4910711944103241,0.80555659532547,0.5212132334709167,0.281807005405426,-0.16955506801605225,-0.04288077354431152,-0.0609208345413208,0.3069511046799843,-0.8000312191918173,-0.02921556564639702,0.5146624779656327
1728066759111649800,2.77564990234375,0.3859542906284332,0.30092355608940125,-0.5237372517585754,0.8020550012588501,0.5266104340553284,0.2817608714103699,-0.1402202844619751,-0.12379366159439087,-0.06066107749938965,0.31013897148463415,-0.8000015543809665,-0.029630315189859986,0.5127702678085062
1728066759121680600,2.7856806640625,0.16667404770851135,0.2925300598144531,-0.5056610107421875,0.7984711527824402,0.5315172672271729,0.28272464871406555,-0.11428231000900269,-0.13874077796936035,-0.021402716636657715,0.31257054791152694,-0.8002671078826687,-0.030575707637901253,0.5108202423899152
1728066759131710700,2.795710693359375,0.36222437024116516,0.3068424165248871,-0.5000015497207642,0.7949793934822083,0.5361700654029846,0.2837774455547333,-0.08736824989318848,-0.059760093688964844,0.050466328859329224,0.31483915152961095,-0.8005595621778104,-0.03151360650724802,0.5089083213542326
1728066759141741800,2.805741943359375,0.6020961999893188,0.32941994071006775,-0.5022910833358765,0.7913244962692261,0.5416179895401001,0.2836465537548065,-0.05514901876449585,0.009559869766235352,-0.062394171953201294,0.3181960030440035,-0.8005096114914305,-0.031743244008858786,0.5068806287651267
1728066759151772000,2.81577197265625,0.6904391050338745,0.33372652530670166,-0.47939908504486084,0.7877254486083984,0.5473179221153259,0.28272196650505066,-0.06194114685058594,0.06726038455963135,-0.1132580041885376,0.32206688859984073,-0.8002282458043769,-0.031555372494800685,0.5048880200336642
1728066759161802800,2.825802734375,0.7721512913703918,0.3329488933086395,-0.4955272078514099,0.7841178178787231,0.5532357692718506,0.2812283933162689,-0.05854719877243042,0.11735743284225464,-0.07029092311859131,0.32632838232401606,-0.7997803317776276,-0.031074300209842844,0.5028872610476803
1728066759171833900,2.835833740234375,0.5795110464096069,0.41691356897354126,-0.5231468677520752,0.7802413702011108,0.5591740608215332,0.2802630066871643,-0.08743149042129517,0.09620606899261475,-0.03447455167770386,0.33043033160092833,-0.799489871163179,-0.030780569601454238,0.5006836813853536
1728066759181863700,2.84586376953125,0.354266494512558,0.5253928899765015,-0.5325707197189331,0.7759271264076233,0.5645967721939087,0.2813672721385956,-0.11598455905914307,0.03495150804519653,0.033131569623947144,0.33367873302759554,-0.7998285343893868,-0.03095085712212802,0.497970732336237
1728066759191894800,2.855894775390625,0.1002182587981224,0.5457655191421509,-0.5764952898025513,0.7712492942810059,0.5695725679397583,0.28418540954589844,-0.11931759119033813,-0.050682246685028076,0.07019984722137451,0.33610391340246076,-0.8006807502245813,-0.03167078926725284,0.4949155194592483
1728066759201924900,2.8659248046875,-0.1251424252986908,0.5748188495635986,-0.6509237289428711,0.7661007046699524,0.5742484331130981,0.28866657614707947,-0.10779082775115967,-0.11807167530059814,0.0651388168334961,0.33761236833135816,-0.8020141043829627,-0.0332665845465443,0.4916142644936377
1728066759211955700,2.875955810546875,-0.213010773062706,0.4900858402252197,-0.6688331961631775,0.7606591582298279,0.5788558721542358,0.29380863904953003,-0.08059018850326538,-0.13165128231048584,0.055831074714660645,0.33865263145565033,-0.8035216555428427,-0.03545806781019491,0.4882725166893746
1728066759221986800,2.88598681640625,-0.18102140724658966,0.35078442096710205,-0.573375940322876,0.7557810544967651,0.5829720497131348,0.2982253134250641,-0.04385179281234741,-0.11333715915679932,0.03939053416252136,0.33939363714458437,-0.804788597195257,-0.03778852372302196,0.48548860943836386
1728066759232017000,2.896016845703125,-0.010021429508924484,0.24240894615650177,-0.5232171416282654,0.7517196536064148,0.5867904424667358,0.30098944902420044,0.019978463649749756,-0.08567655086517334,-0.004953712224960327,0.3403978204189711,-0.8055551959037882,-0.039693175986962974,0.4833576778321707
1728066759242047700,2.9060478515625,-0.030580101534724236,0.19907239079475403,-0.5360423922538757,0.7479540109634399,0.5907410383224487,0.30263835191726685,0.033982694149017334,-0.059552013874053955,-0.06170210242271423,0.3416910138155776,-0.8059768781853556,-0.0414782037139886,0.48158917861855666
1728066759252077800,2.916077880859375,-0.06088607758283615,0.16798238456249237,-0.49374714493751526,0.7443169951438904,0.5944370627403259,0.30436286330223083,-0.0028162002563476562,0.0006403923034667969,-0.02407422661781311,0.3427493688557296,-0.8064113617796297,-0.043383723359145095,0.47993896584775997
1728066759262109000,2.92610888671875,0.16619262099266052,0.16538894176483154,-0.45407775044441223,0.740994930267334,0.5980761051177979,0.3053380846977234,-0.01810985803604126,0.0354839563369751,0.011251181364059448,0.34408094076988976,-0.8066296668697149,-0.04491797553358167,0.47847593141552686
1728066759272139800,2.936139892578125,0.350565642118454,0.18908707797527313,-0.41042909026145935,0.7378605008125305,0.6021140813827515,0.30499279499053955,-0.020392179489135742,-0.007707953453063965,-0.041183680295944214,0.3462626834359429,-0.806478587173759,-0.04570216089617732,0.4770805007340677
1728066759282169900,2.946169921875,0.32202380895614624,0.21371513605117798,-0.3693698048591614,0.7348894476890564,0.6060410141944885,0.3043873608112335,-0.04296445846557617,-0.0516740083694458,-0.02341213822364807,0.34863224666214726,-0.8062681063187519,-0.046102219464937026,0.47566987600111527
1728066759292200700,2.95620068359375,0.24194416403770447,0.1934303641319275,-0.3485063314437866,0.7320461273193359,0.6095560789108276,0.3042200803756714,-0.05971342325210571,-0.04577434062957764,0.06694984436035156,0.35068800612448486,-0.806192973562227,-0.04650728183504882,0.4742445465513199
1728066759302231800,2.966231689453125,0.2284238338470459,0.10627672076225281,-0.32621487975120544,0.7295182943344116,0.6127050518989563,0.30396679043769836,-0.06255650520324707,-0.04262137413024902,0.11301010847091675,0.35241801339798484,-0.8060809556709925,-0.04708381770338429,0.47309433078952295
1728066759312262000,2.976261962890625,0.42069393396377563,0.018401460722088814,-0.3475092351436615,0.727281391620636,0.6161095499992371,0.3024415373802185,-0.045915424823760986,-0.07410210371017456,0.11128520965576172,0.3545106771555573,-0.8055792968327941,-0.04756845938437894,0.4723361453460664
1728066759322293200,2.986293212890625,0.5558257699012756,-0.03739895299077034,-0.39358457922935486,0.7250108122825623,0.6203328967094421,0.2992432415485382,-0.02939307689666748,-0.10603541135787964,0.03519883751869202,0.3574159520582267,-0.8045664187029298,-0.04790099554121143,0.47183919792547474
1728066759332323300,2.9963232421875,0.4986623525619507,-0.047591403126716614,-0.3923094570636749,0.7226791381835938,0.6247910857200623,0.2955850064754486,-0.0278397798538208,-0.09648621082305908,-0.0044168829917907715,0.36049651870123384,-0.8034049329696206,-0.04830133573690295,0.4714335362654785
1728066759342354200,3.006354248046875,0.40174317359924316,-0.04558476433157921,-0.34867170453071594,0.7204887270927429,0.628800094127655,0.29241445660591125,-0.020781755447387695,-0.0661628246307373,0.033604711294174194,0.3631690913809272,-0.8023862346773883,-0.04882177244546045,0.4710635725883732
1728066759352385300,3.01638525390625,0.3062632381916046,-0.021495677530765533,-0.3095772862434387,0.7185157537460327,0.6322069764137268,0.28991225361824036,-0.004511356353759766,-0.08560675382614136,0.04765781760215759,0.36536572388677535,-0.8015729005769381,-0.049366025693011524,0.470692723959471
1728066759362415400,3.026415283203125,-0.0057303449138998985,-0.06454019248485565,-0.3013976812362671,0.7166868448257446,0.6349143981933594,0.288519948720932,0.015200972557067871,-0.15970993041992188,0.06459882855415344,0.36678593849772534,-0.8010840037775196,-0.050243376941727,0.4703277041276359
1728066759372446200,3.0364462890625,-0.6204233169555664,-0.09775353223085403,-0.30904412269592285,0.7149835228919983,0.6361813545227051,0.2899516224861145,0.02636474370956421,-0.24154329299926758,0.14854013919830322,0.3662068039383941,-0.8013945770743368,-0.052369348613036396,0.4700178829099393
1728066759382476300,3.046476318359375,-1.007922887802124,-0.1848447620868683,-0.26625460386276245,0.7135509252548218,0.6358284950256348,0.29422295093536377,0.03916507959365845,-0.29311615228652954,0.27166447043418884,0.36350741241739604,-0.8024972068470095,-0.0557647285188955,0.4698413208399551
1728066759392507400,3.05650732421875,-1.1483936309814453,-0.22198760509490967,-0.20199410617351532,0.7126705050468445,0.6342237591743469,0.2997685670852661,0.05284774303436279,-0.3143995404243469,0.2683313190937042,0.359581576288735,-0.8039444377704442,-0.05964584067933821,0.4699115848705602
1728066759402538200,3.066538330078125,-1.0378856658935547,-0.2899825870990753,-0.174541175365448,0.7122693657875061,0.6321908831596375,0.30497074127197266,0.05689573287963867,-0.2679330110549927,0.17369738221168518,0.35547128706309467,-0.8052686642869887,-0.06346459858333053,0.47027102845773827
1728066759412568300,3.076568359375,-0.788407027721405,-0.3293158710002899,-0.128740131855011,0.712249755859375,0.6304695010185242,0.30855873227119446,0.0210113525390625,-0.18305134773254395,0.11389601230621338,0.35202884306283727,-0.8061122948020301,-0.06680073177664464,0.47095257540144214
1728066759422599400,3.086599365234375,-0.5059214234352112,-0.303866982460022,-0.035048794001340866,0.7127276659011841,0.6290379762649536,0.31037116050720215,-0.028264224529266357,-0.07197022438049316,0.06703957915306091,0.3494819704211813,-0.8064685923104846,-0.06923864630831034,0.4718863075010324
1728066759432629200,3.096629150390625,-0.27968424558639526,-0.2241724133491516,0.0454242080450058,0.7136130928993225,0.6277701258659363,0.31090304255485535,-0.08130419254302979,0.02303236722946167,0.02890998125076294,0.3478027009298812,-0.80651663059299,-0.0705864890969573,0.4728441912895316
1728066759442660400,3.106660400390625,-0.10431118309497833,-0.12058135867118835,0.015124095603823662,0.7143904566764832,0.626897394657135,0.310879111289978,-0.13409870862960815,0.052011847496032715,-0.010311603546142578,0.34687769875653207,-0.8064569564625448,-0.07118102652652912,0.47353591480585605
1728066759452691200,3.116691162109375,0.047667164355516434,-0.06506935507059097,-0.09375445544719696,0.7144291400909424,0.627086877822876,0.3104080259799957,-0.17467999458312988,0.0291936993598938,-0.014585942029953003,0.3468315641912976,-0.8062784457566253,-0.07154772400481467,0.47381842171137056
1728066759462721300,3.12672119140625,0.12058771401643753,-0.027578283101320267,-0.1715749353170395,0.7136999368667603,0.6283483505249023,0.30953341722488403,-0.17706352472305298,-0.01949208974838257,-0.03130468726158142,0.3474985135639999,-0.8059691810497223,-0.07197491851915232,0.4737912632820672
1728066759472752400,3.13675244140625,0.08638367056846619,-0.05890557914972305,-0.14548687636852264,0.7127935290336609,0.6298760175704956,0.3085149824619293,-0.13678956031799316,-0.05504697561264038,-0.03140023350715637,0.3483358176276826,-0.8056117679818731,-0.07243736405009929,0.4737136698755114
1728066759482782500,3.146782470703125,-0.021098647266626358,-0.0756465271115303,-0.04699573665857315,0.7123783230781555,0.6306630373001099,0.30786556005477905,-0.08757668733596802,-0.05186671018600464,0.05079221725463867,0.34865205818900563,-0.8053692030421001,-0.07289187815056129,0.47382375044592057
1728066759492813300,3.156813232421875,0.020792342722415924,-0.1860731840133667,0.007459784392267466,0.7126778364181519,0.6307296752929688,0.3070344030857086,-0.05108731985092163,-0.0348283052444458,0.12337014079093933,0.3486129589201294,-0.805086420656733,-0.07316459521095564,0.47429073883965484
1728066759502844400,3.166844482421875,0.053224116563797,-0.27657419443130493,-0.031015967950224876,0.7133561372756958,0.6309319734573364,0.30503731966018677,-0.0584489107131958,-0.0472833514213562,0.16868698596954346,0.3487324061057401,-0.8044350331025287,-0.07350462913340901,0.475254696252062
1728066759512874200,3.176874267578125,-0.10191300511360168,-0.2775648832321167,-0.07837283611297607,0.7138617038726807,0.6312749981880188,0.3031385838985443,-0.08545911312103271,-0.05131906270980835,0.1327134072780609,0.3486915909830172,-0.8037754951602225,-0.07425796053057468,0.47628223730597113
1728066759522905300,3.1869052734375,-0.2699575126171112,-0.25973042845726013,-0.1097525954246521,0.71406090259552,0.6313885450363159,0.30243250727653503,-0.1021224856376648,-0.03225219249725342,0.09859883785247803,0.34806165564215147,-0.8034347050971007,-0.07555747942417938,0.47711296553659244
1728066759532935400,3.196935302734375,-0.36989715695381165,-0.2981920838356018,-0.16937942802906036,0.7140287756919861,0.6313918232917786,0.302501380443573,-0.10845327377319336,-0.016111671924591064,0.10011684894561768,0.3469839237189451,-0.803284211374846,-0.0773638618854368,0.4778612624574202
1728066759542966300,3.20696630859375,-0.4070790410041809,-0.3614709675312042,-0.23572783172130585,0.7137466073036194,0.631658136844635,0.3026120066642761,-0.09741353988647461,0.012857913970947266,0.07530239224433899,0.3457688104983775,-0.8030914685441224,-0.07968745614773343,0.4786836165168206
1728066759552997400,3.216997314453125,-0.3963238596916199,-0.3675142228603363,-0.2559486925601959,0.7132770419120789,0.6322092413902283,0.30256810784339905,-0.07217901945114136,0.050026535987854004,0.021681100130081177,0.3445846127545976,-0.8028144099939802,-0.08229867403494799,0.4795596173413761
1728066759563027500,3.22702734375,-0.37489739060401917,-0.3838798403739929,-0.2275652438402176,0.7128713726997375,0.6327754259109497,0.30234092473983765,-0.040263831615448,0.07465273141860962,-0.018100202083587646,0.3434645915453104,-0.8024789178825423,-0.0848413193498321,0.48048076789794936
1728066759573058300,3.237058349609375,-0.3380477726459503,-0.41040119528770447,-0.21408458054065704,0.7126811146736145,0.6332607865333557,0.3017723560333252,-0.014515161514282227,0.07029151916503906,-0.03378233313560486,0.34237658046011743,-0.8020399398917389,-0.08728176049120585,0.4815517963127919
1728066759583089400,3.24708935546875,-0.25989770889282227,-0.47833287715911865,-0.2530037760734558,0.7125390768051147,0.6340004801750183,0.3005516231060028,-0.002578139305114746,0.055544137954711914,-0.037444472312927246,0.3415287504197471,-0.801393416108293,-0.08969056771519555,0.48278589483520473
1728066759593119500,3.257119384765625,-0.2499915510416031,-0.5269070863723755,-0.33163946866989136,0.7122076153755188,0.6353460550308228,0.29848846793174744,-0.02568429708480835,0.04675227403640747,0.009174317121505737,0.3409955430444739,-0.8004457589272356,-0.09236247815453331,0.48422895814464434
1728066759603150300,3.267150390625,-0.19492903351783752,-0.47741761803627014,-0.3706931173801422,0.7114607691764832,0.6371767520904541,0.2963601350784302,-0.046772658824920654,0.0495755672454834,0.03863120079040527,0.3406904131228636,-0.7994477887148036,-0.0952013890779724,0.485540882056678
1728066759613180400,3.277180419921875,-0.04422979801893234,-0.352688193321228,-0.3704587519168854,0.7103010416030884,0.6394818425178528,0.2941690683364868,-0.04382765293121338,0.04592776298522949,0.03178906440734863,0.3409140853965244,-0.7984599015782452,-0.09770523300862372,0.48651109274855675
1728066759623211300,3.287211181640625,0.035665564239025116,-0.2943859398365021,-0.36174729466438293,0.7088770866394043,0.642106294631958,0.29187747836112976,-0.024032175540924072,0.04507321119308472,0.006935209035873413,0.34166993953362734,-0.7974942937994395,-0.09970755172247885,0.4871578598311645
1728066759633242400,3.297242431640625,0.01848125271499157,-0.32240933179855347,-0.36142292618751526,0.7074505686759949,0.6447375416755676,0.2895289361476898,0.0026018619537353516,0.0627514123916626,0.021994352340698242,0.34249780373599314,-0.7965173772499127,-0.10160971051747564,0.4877814326183132
1728066759643272400,3.3072724609375,0.011427403427660465,-0.3601488471031189,-0.3561762273311615,0.7060951590538025,0.6473394632339478,0.28702181577682495,0.04956597089767456,0.07611042261123657,0.01742154359817505,0.3432693465234803,-0.7954742791383625,-0.10359335768746397,0.48852366851785245
1728066759653303300,3.31730322265625,-0.01980162225663662,-0.3877248167991638,-0.2992170751094818,0.7050046920776367,0.6496978998184204,0.28436002135276794,0.092038094997406,0.06076645851135254,-0.0025914013385772705,0.3438906769748299,-0.7943773848184797,-0.10556791942185711,0.48944768218080187
1728066759663333400,3.32733349609375,-0.11786533892154694,-0.44647619128227234,-0.196323961019516,0.7045451998710632,0.6512603759765625,0.2819141447544098,0.12093991041183472,0.03294360637664795,0.014808118343353271,0.34400844006787734,-0.793356718648524,-0.10743455018025416,0.49061282908478066
1728066759673364500,3.337364501953125,-0.14394406974315643,-0.5473290681838989,-0.11068949103355408,0.704957127571106,0.6519497036933899,0.27927905321121216,0.128523588180542,0.015896916389465332,0.04257449507713318,0.34356902487618796,-0.7922797905311877,-0.10923491500075998,0.49226082768051216
1728066759683395300,3.347395263671875,-0.09085795283317566,-0.6143672466278076,-0.07700503617525101,0.7059893608093262,0.6522414684295654,0.27597135305404663,0.10911989212036133,0.0007126927375793457,0.02052214741706848,0.34297481300005633,-0.7910028084113652,-0.11090645101078106,0.4943507065855873
1728066759693425400,3.35742529296875,0.05763031542301178,-0.5864511728286743,-0.10999467223882675,0.707064688205719,0.6528300642967224,0.271794855594635,0.055294930934906006,-0.016401231288909912,-0.027257561683654785,0.3427835974945603,-0.7894766181345749,-0.11235698618339353,0.49659036000420337
1728066759703456500,3.36745654296875,0.1424189805984497,-0.5127352476119995,-0.14690127968788147,0.7076969742774963,0.6540332436561584,0.26721838116645813,-0.010614395141601562,0.0014995932579040527,-0.0850437581539154,0.34320735182742845,-0.7878540204081304,-0.11355717731517082,0.49859760844797046
1728066759713486300,3.377486328125,0.309093177318573,-0.434882789850235,-0.1595451831817627,0.7079581618309021,0.6556615829467773,0.2624943256378174,-0.0659140944480896,0.05257517099380493,-0.12569937109947205,0.3441460336521195,-0.7862261611340401,-0.11443593472120774,0.5003162898474828
1728066759723517400,3.387517333984375,0.5744239687919617,-0.40107160806655884,-0.19746379554271698,0.7078738212585449,0.6580881476402283,0.2565828561782837,-0.09379911422729492,0.0749746561050415,-0.11907073855400085,0.34611599016476,-0.7843009699891362,-0.11473194948668841,0.5019086971873089
1728066759733548300,3.39754833984375,0.637915849685669,-0.39755383133888245,-0.20372621715068817,0.7075310349464417,0.6611031889915466,0.24968446791172028,-0.10366445779800415,0.059569358825683594,-0.14417004585266113,0.3488351876119908,-0.7821103180255572,-0.11465461605356557,0.5034597617315819
1728066759743578400,3.407578369140625,0.5443199872970581,-0.42624643445014954,-0.15784288942813873,0.7073307037353516,0.6638587117195129,0.24284788966178894,-0.09574317932128906,0.036580801010131836,-0.07303282618522644,0.3513735404138434,-0.7799301032732169,-0.11459919723519867,0.5050869125898989
1728066759753609500,3.417609375,0.56271892786026,-0.4635908603668213,-0.11433056741952896,0.7074874043464661,0.6661390662193298,0.23605109751224518,-0.06286466121673584,-0.0035110116004943848,0.006059989333152771,0.3536007188430645,-0.7777589008453355,-0.11452790667447701,0.5068933813417177
1728066759763639600,3.4276396484375,0.5870323181152344,-0.541127622127533,-0.07690969109535217,0.7080146670341492,0.6681652069091797,0.22862684726715088,-0.02841883897781372,-0.06199461221694946,-0.008549466729164124,0.3558122695585667,-0.775400543288075,-0.11431283556852481,0.5090030678436029
1728066759773670400,3.43767041015625,0.49321553111076355,-0.6083983182907104,-0.07443934679031372,0.7088326811790466,0.6699276566505432,0.22080126404762268,-0.009339332580566406,-0.10281950235366821,-0.00031185150146484375,0.3578069262745164,-0.7728862649853612,-0.114225443476976,0.5114426508596805
1728066759783701500,3.447701416015625,0.35988935828208923,-0.6354230642318726,-0.0826522633433342,0.7096350789070129,0.6714262962341309,0.21355262398719788,0.01309746503829956,-0.11554867029190063,0.02308058738708496,0.35930419551472786,-0.770489132247824,-0.11455482233866882,0.5139301167893325
1728066759793731300,3.4577314453125,0.11004546284675598,-0.759782075881958,-0.05685502290725708,0.7106160521507263,0.6724519729614258,0.20696189999580383,0.013444006443023682,-0.12148767709732056,0.061943650245666504,0.3600156895395453,-0.7682097919756148,-0.11547582542838239,0.5166311884291053
1728066759803762400,3.467762451171875,-0.05548005551099777,-0.8669564723968506,-0.04444975405931473,0.7119733691215515,0.672804594039917,0.2010674774646759,0.021852433681488037,-0.11996328830718994,0.061734601855278015,0.35971948572240936,-0.7660468555367931,-0.11707243470406388,0.5196809201620306
1728066759813792500,3.47779248046875,-0.23670443892478943,-0.8466192483901978,-0.1014520525932312,0.7132115960121155,0.6730573773384094,0.19576261937618256,0.03774970769882202,-0.13037854433059692,0.001640230417251587,0.3588987360493922,-0.7639784274501535,-0.11924040276802819,0.5227909889921525
1728066759823823400,3.4878232421875,-0.6103588342666626,-0.7847495079040527,-0.06603467464447021,0.7141745686531067,0.672890305519104,0.1928037405014038,0.006269097328186035,-0.162972092628479,-0.02774953842163086,0.3570198289344564,-0.7625450993203107,-0.12217546200468898,0.5254854568319521
1728066759833854500,3.4978544921875,-0.6509592533111572,-0.719495415687561,0.027739224955439568,0.7155013680458069,0.6717287302017212,0.19193266332149506,-0.01490938663482666,-0.12547945976257324,0.048820480704307556,0.3540549239731454,-0.7617463442175204,-0.1253348930971758,0.5279002766963155
1728066759843884500,3.507884521484375,-0.3079664409160614,-0.6681042313575745,0.0010903016664087772,0.7169822454452515,0.6706423759460449,0.19019746780395508,-0.01545947790145874,-0.08941996097564697,0.04217849671840668,0.351701644351768,-0.7607711763195818,-0.12777303466451548,0.5302896693216849
1728066759853915400,3.517915283203125,-0.1160113736987114,-0.5862269401550293,-0.04216476157307625,0.7179965972900391,0.6704574823379517,0.18699608743190765,-0.03360939025878906,-0.06878823041915894,-0.010986089706420898,0.3506394199986956,-0.7594311543258744,-0.12946955690971634,0.5324978068494332
1728066759863945500,3.527945556640625,-0.12638339400291443,-0.5526118874549866,-0.0074674999341368675,0.7188840508460999,0.670405924320221,0.18374356627464294,-0.041943132877349854,0.007816791534423828,0.02907063066959381,0.34985982205006144,-0.75811451846292,-0.13089751970608052,0.5345337655738919
1728066759873976600,3.5379765625,-0.032912299036979675,-0.5521870851516724,0.009088573977351189,0.7199075222015381,0.6702330708503723,0.18033495545387268,-0.007825672626495361,0.05959475040435791,0.08782289922237396,0.34916840678678,-0.7567840647186569,-0.13208087223416592,0.5365760713403502
1728066759884007400,3.54800732421875,0.04087870568037033,-0.5634417533874512,0.003804329317063093,0.7209511995315552,0.6702008843421936,0.17623747885227203,0.033336341381073,0.020747482776641846,0.02267596125602722,0.34881392805217126,-0.7552665706858249,-0.1330080583895738,0.5387113407477268
1728066759894037500,3.55803759765625,0.011202565394341946,-0.5209547281265259,-0.04476720094680786,0.7217849493026733,0.67039954662323,0.1720195710659027,0.06282192468643188,-0.053349435329437256,-0.01912654936313629,0.34862671433241815,-0.7537020491514573,-0.13395149977807203,0.540786025997462
1728066759904068400,3.568068359375,-0.20748037099838257,-0.37585461139678955,-0.08002132922410965,0.7221093773841858,0.6707364916801453,0.16932366788387299,0.08430230617523193,-0.10614609718322754,-0.014935269951820374,0.34818407216900626,-0.7525805526240892,-0.13521961355668868,0.5423153726770364
1728066759914098400,3.578098388671875,-0.4536949396133423,-0.24675308167934418,-0.025934657081961632,0.7222422957420349,0.6705704927444458,0.16941367089748383,0.08481025695800781,-0.10120409727096558,0.03058314323425293,0.34684342478214863,-0.7523074222980771,-0.1368955086949564,0.5431322996539549
1728066759924129500,3.588129638671875,-0.5375849008560181,-0.22279639542102814,0.006347914692014456,0.7225769758224487,0.6697654128074646,0.17116323113441467,0.08911430835723877,-0.07314682006835938,0.09505677223205566,0.34479195537436386,-0.7525564205528605,-0.13870993634509507,0.543633051476681
1728066759934160400,3.598160400390625,-0.42783045768737793,-0.32907596230506897,-0.030184263363480568,0.7229925394058228,0.6689741611480713,0.1724979132413864,0.08952277898788452,-0.056074321269989014,0.08990742266178131,0.3427830617580799,-0.7526627997770302,-0.14052638885158278,0.5442893186522394
1728066759944190500,3.6081904296875,-0.337523877620697,-0.32350149750709534,-0.06665092706680298,0.7232257127761841,0.6686992049217224,0.1725861132144928,0.07181823253631592,-0.03738206624984741,0.021536126732826233,0.34126040006848773,-0.7523522326641577,-0.14233472852085513,0.5452048164536747
1728066759954221600,3.6182216796875,-0.2930421531200409,-0.29746589064598083,-0.04231123626232147,0.7233948707580566,0.6685461401939392,0.17247028648853302,0.04174184799194336,0.011919498443603516,-0.0407259464263916,0.3399835672692068,-0.7520068767019734,-0.14394722389829168,0.5460549983859114
1728066759964252400,3.62825244140625,-0.12800359725952148,-0.18189089000225067,-0.006436590105295181,0.7236658334732056,0.6683261394500732,0.1721859723329544,0.010404050350189209,0.05672574043273926,-0.053747281432151794,0.3390372630774813,-0.7517007143060864,-0.1450483506436392,0.5467730670036709
1728066759974282500,3.638282470703125,0.03903120383620262,-0.11791563034057617,0.007614514324814081,0.7239390015602112,0.6682297587394714,0.17140965163707733,-0.019074559211730957,0.05769181251525879,-0.1167985200881958,0.33877033892302283,-0.7513765011670865,-0.14538974902126234,0.5472931903340975
1728066759984313600,3.648313720703125,0.09438233822584152,-0.0739312395453453,-0.02417164482176304,0.724055290222168,0.6684014201164246,0.17024558782577515,-0.05538463592529297,0.02921515703201294,-0.13751554489135742,0.33900852389597624,-0.750996185769062,-0.14535309143653008,0.5476773247069819
1728066759994343200,3.65834326171875,0.04765957593917847,-0.09715160727500916,-0.06015761196613312,0.723919153213501,0.6688346266746521,0.16911882162094116,-0.07656514644622803,-0.005977630615234375,-0.11951257288455963,0.33933740982467453,-0.7506001973108221,-0.1454604852040233,0.5479878164344535
1728066760004374500,3.66837451171875,-0.10541712492704391,-0.11925116181373596,-0.08779270201921463,0.7235947251319885,0.6693332195281982,0.16853374242782593,-0.0803910493850708,-0.029364407062530518,-0.0982365608215332,0.33936772839452706,-0.750301981621854,-0.1459924953993844,0.5482359482111401
1728066760014405400,3.6784052734375,-0.221884623169899,-0.11082039028406143,-0.09706449508666992,0.7231737375259399,0.6697186231613159,0.16881036758422852,-0.07760488986968994,-0.03684502840042114,-0.08124028146266937,0.33889307278483877,-0.7501944711739017,-0.14701509524667977,0.5484034988561197
1728066760024435200,3.688435302734375,-0.2222074568271637,-0.13626646995544434,-0.050752390176057816,0.7228386998176575,0.6699044108390808,0.1695062816143036,-0.07148677110671997,-0.035108208656311035,-0.08248542249202728,0.33816797856563885,-0.7502062963222969,-0.1481339059140662,0.548533778321148
1728066760034466600,3.698466552734375,-0.2105761021375656,-0.11702699214220047,-0.048948898911476135,0.7227174639701843,0.669899046421051,0.17004364728927612,-0.06811541318893433,-0.023353636264801025,-0.1056973785161972,0.3373789114891918,-0.7501826016442381,-0.149157262262142,0.5487747271137676
1728066760044496400,3.708496337890625,-0.1290309727191925,-0.04714522138237953,-0.03758758679032326,0.722586989402771,0.6698936820030212,0.17061880230903625,-0.07155543565750122,0.002866387367248535,-0.12678037583827972,0.3367662848249044,-0.7502189745255878,-0.14993628577469986,0.5488890353801957
1728066760054527200,3.71852734375,-0.010180753655731678,0.03192562982439995,-0.020551078021526337,0.722404420375824,0.6699823141098022,0.17104269564151764,-0.08142846822738647,0.033814072608947754,-0.1700814813375473,0.33657228484626117,-0.7502964720650332,-0.15025496150918002,0.5488148690341603
1728066760064558600,3.72855859375,0.07233163714408875,0.07410254329442978,-0.011831621639430523,0.7222163677215576,0.6701486706733704,0.1711847335100174,-0.09125024080276489,0.05375874042510986,-0.18113352358341217,0.3367947064773029,-0.7503726653801298,-0.15011072635295364,0.5486136450641015
1728066760074588400,3.73858837890625,0.09286380559206009,0.11689501255750656,-0.02513411082327366,0.7219265103340149,0.6704296469688416,0.17130717635154724,-0.09785735607147217,0.06402158737182617,-0.16476120054721832,0.33722774058094424,-0.7504757391440422,-0.14979904448966472,0.5482917237427821
1728066760084619300,3.748619384765625,0.11513695120811462,0.16335944831371307,-0.04396212846040726,0.7213494181632996,0.6711824536323547,0.17078936100006104,-0.09393858909606934,0.06012547016143799,-0.14954924583435059,0.33809713609477793,-0.7503749520957476,-0.14943933538746532,0.5479923408731153
1728066760094649300,3.7586494140625,0.08408476412296295,0.20143067836761475,-0.050504185259342194,0.7205609083175659,0.6721837520599365,0.17017847299575806,-0.08578014373779297,0.0422174334526062,-0.12110628187656403,0.3391536939193573,-0.7502406712522393,-0.14909114756128464,0.5476179722452168
1728066760104680200,3.76868017578125,0.06846772134304047,0.2555626630783081,-0.03517716005444527,0.7197902202606201,0.6730184555053711,0.17014145851135254,-0.07257348299026489,0.02331632375717163,-0.08649291098117828,0.340076903366352,-0.7503062299869562,-0.14869865516755118,0.5470620665415952
1728066760114711300,3.778711181640625,0.07254528254270554,0.25868096947669983,-0.015285741537809372,0.7190960049629211,0.6737357974052429,0.17023803293704987,-0.05295836925506592,0.01010209321975708,-0.06951487064361572,0.340987181676513,-0.7504393550510026,-0.14818837217532008,0.5464510034606068
1728066760124741400,3.788741455078125,0.09663404524326324,0.22906629741191864,-0.00744965672492981,0.7183935642242432,0.6745427846908569,0.17000797390937805,-0.043192148208618164,0.008852601051330566,-0.032724738121032715,0.3419910030400763,-0.7504641316128813,-0.1476738668206148,0.5459287216610478
1728066760134772200,3.798772216796875,0.12878745794296265,0.22617650032043457,-0.015282811596989632,0.7175917625427246,0.675629198551178,0.16907739639282227,-0.034471094608306885,0.013244092464447021,-0.018580079078674316,0.34325644530972316,-0.7502550326489491,-0.14716005406210494,0.5455605297226936
1728066760144802300,3.80880224609375,0.12913739681243896,0.26287978887557983,-0.03501443937420845,0.716490626335144,0.6770827174186707,0.1679297536611557,-0.028090357780456543,0.02784287929534912,-0.03668902814388275,0.34478447265071677,-0.7499641485184523,-0.14669236272390787,0.5451228251040712
1728066760154833400,3.81883349609375,0.1021190881729126,0.33257126808166504,-0.05286640673875809,0.7149540781974792,0.6788913011550903,0.1671738475561142,-0.025989294052124023,0.04683184623718262,-0.036955490708351135,0.3464527521511026,-0.7497757294840172,-0.14636694595822952,0.5444111371614413
1728066760164864300,3.8288642578125,0.10473837703466415,0.42046913504600525,-0.06489697098731995,0.7130416631698608,0.6809751391410828,0.16686677932739258,-0.01894986629486084,0.05088222026824951,-0.037609681487083435,0.348290241139716,-0.7497344701561974,-0.14605346259182864,0.5433788274172491
1728066760174894300,3.838894287109375,0.1079123318195343,0.44909197092056274,-0.06624452769756317,0.7111986875534058,0.6827318072319031,0.16755148768424988,-0.009386003017425537,0.03635376691818237,-0.04249049723148346,0.3499638736738926,-0.7500665003696071,-0.14551971297320923,0.5419866006887042
1728066760184925400,3.848925537109375,0.057795166969299316,0.45913058519363403,-0.06274726986885071,0.709579586982727,0.6840271353721619,0.16912686824798584,0.0001983046531677246,0.01983034610748291,-0.021894916892051697,0.35126176800076964,-0.7507068690329416,-0.14492284107525696,0.5404181908453288
1728066760194955300,3.858955322265625,0.06518091261386871,0.47440409660339355,-0.0750018060207367,0.7081373333930969,0.68498295545578,0.1712885946035385,0.0109788179397583,0.018538713455200195,-0.015969514846801758,0.35229072004506845,-0.7515512910385796,-0.14427388850553266,0.5387456848527387
1728066760204986400,3.868986328125,0.11331668496131897,0.4882020354270935,-0.09710923582315445,0.70674067735672,0.6857084631919861,0.17413029074668884,0.007660508155822754,0.02405405044555664,-0.006802454590797424,0.3531843803674203,-0.7526456346496364,-0.1434910813506998,0.536838484622553
1728066760215017200,3.879017333984375,0.14736279845237732,0.5702928900718689,-0.1156080886721611,0.7051003575325012,0.686654806137085,0.17702722549438477,-0.0020821690559387207,0.038290202617645264,-0.0035196542739868164,0.354306753687453,-0.7537745381417503,-0.14260981243151472,0.53474582248493
1728066760225047300,3.88904736328125,0.22858849167823792,0.6566950082778931,-0.11327143013477325,0.7031990885734558,0.6877816319465637,0.18018777668476105,-0.0066048502922058105,0.057350873947143555,-0.024258241057395935,0.35572673805262267,-0.7550377866566084,-0.1414631689061998,0.5323200871515059
1728066760235078400,3.899078369140625,0.3504893481731415,0.7010068297386169,-0.08882281184196472,0.7012856602668762,0.6889869570732117,0.18301719427108765,-0.015296339988708496,0.052757978439331055,-0.015979304909706116,0.3575497083202917,-0.7562739733996854,-0.1398509089945485,0.5297636706604051
1728066760245108500,3.9091083984375,0.41620132327079773,0.7636759877204895,-0.07293492555618286,0.6993972063064575,0.6902304291725159,0.18554028868675232,-0.02567601203918457,0.018341898918151855,-0.012490406632423401,0.3597167241661367,-0.7574829659100853,-0.13780311013988197,0.5270992410124398
1728066760255139300,3.919139404296875,0.3810252249240875,0.8025727868080139,-0.09834973514080048,0.6973696947097778,0.6915375590324402,0.18828506767749786,-0.04205054044723511,-0.01697707176208496,0.006432294845581055,0.36198817251107734,-0.7587809511463174,-0.1356244888497876,0.5242347071274436
1728066760265170400,3.92917041015625,0.2766713798046112,0.8502883315086365,-0.15511074662208557,0.6949399709701538,0.6930137276649475,0.19180893898010254,-0.06203585863113403,-0.031377315521240234,0.0512024462223053,0.3641068132022099,-0.7602763006671291,-0.1337326249349179,0.5210775900110501
1728066760275200300,3.9392001953125,0.24136480689048767,0.9344404935836792,-0.19559425115585327,0.691969633102417,0.6947138905525208,0.19634340703487396,-0.06434512138366699,-0.016079187393188477,0.04724779725074768,0.3661028710720621,-0.762047885772604,-0.13211632942705828,0.5174910818311231
1728066760285231400,3.9492314453125,0.2643401324748993,0.9832195043563843,-0.19099551439285278,0.6886961460113525,0.6965382695198059,0.20132464170455933,-0.050344884395599365,0.01755768060684204,0.02560397982597351,0.36817882527418067,-0.763968949380297,-0.13043681459621115,0.5135969916133482
1728066760295262500,3.959262451171875,0.3849954605102539,1.0324000120162964,-0.18213917315006256,0.6853604316711426,0.6984262466430664,0.20611068606376648,-0.009426653385162354,0.04894912242889404,-0.027415171265602112,0.3704915685182655,-0.7658662850049455,-0.12846857995119057,0.5095886332154062
1728066760305292300,3.969292236328125,0.5764173865318298,1.0410300493240356,-0.165764719247818,0.6819506883621216,0.7006230354309082,0.20992989838123322,0.05059325695037842,0.06750434637069702,-0.1015620231628418,0.3734450743301053,-0.7675264556282719,-0.12596860052910058,0.505543092916396
1728066760315323400,3.979323486328125,0.6418730616569519,0.9878648519515991,-0.11695192009210587,0.6788060069084167,0.7028791904449463,0.2125631421804428,0.0906030535697937,0.08384865522384644,-0.0738760381937027,0.3767975762173403,-0.7688574226773851,-0.12304402366376814,0.5017389395714571
1728066760325352700,3.989352783203125,0.6320401430130005,0.9164290428161621,-0.053583331406116486,0.6761716604232788,0.7048007845878601,0.21458692848682404,0.11572891473770142,0.08253741264343262,0.04427836835384369,0.38003644493927724,-0.7700025586021397,-0.11995635291768406,0.4982757781385429
1728066760335383600,3.999383544921875,0.5072308778762817,0.8127010464668274,0.0017054923810064793,0.6741238832473755,0.7062027454376221,0.21641287207603455,0.13314223289489746,0.042988479137420654,0.12069950997829437,0.382832086755551,-0.7710567638970076,-0.1169525517418728,0.4952101551721532
1728066760345414700,4.00941455078125,0.30232441425323486,0.7485939860343933,0.029952311888337135,0.6725666522979736,0.7069264054298401,0.2188820093870163,0.12963372468948364,-0.015535354614257812,0.19138100743293762,0.3847762569159488,-0.7722435801329753,-0.11437156645114757,0.49244927525996
1728066760355444700,4.01944482421875,0.09156052023172379,0.6184521913528442,0.0036940746940672398,0.6712013483047485,0.7071990370750427,0.22216732800006866,0.11146765947341919,-0.056167542934417725,0.24467527866363525,0.38587478555342075,-0.7735880516804519,-0.11245084642297973,0.48991529989671023
1728066760365475600,4.0294755859375,-0.09157434105873108,0.61530601978302,-0.09505407512187958,0.6695750951766968,0.707412600517273,0.22635561227798462,0.09508860111236572,-0.06294232606887817,0.184990793466568,0.38623842650249857,-0.7750821602562881,-0.11146952060856816,0.48748556632058976
1728066760375505700,4.039505615234375,-0.0028375524561852217,0.6532968282699585,-0.18265022337436676,0.6670920252799988,0.7081880569458008,0.2312096208333969,0.08814173936843872,-0.03429889678955078,0.032294392585754395,0.386675317753062,-0.7767258164524804,-0.11091356645352182,0.48464148467563606
1728066760385536800,4.049536865234375,0.18222537636756897,0.561072587966919,-0.2211448848247528,0.6642151474952698,0.7097522616386414,0.23466940224170685,0.06266772747039795,-0.007909059524536133,0.0016585588455200195,0.387844198172741,-0.7779235516588253,-0.11031612883127344,0.48191503183183315
1728066760395567600,4.059567626953125,0.272931843996048,0.4809151887893677,-0.2069222778081894,0.6614436507225037,0.7117129564285278,0.23655153810977936,0.05004304647445679,-0.0015842318534851074,0.0487876832485199,0.3895436317716494,-0.778633830546192,-0.10956791452612893,0.4795621320755847
1728066760405597700,4.06959765625,0.20721322298049927,0.36854231357574463,-0.19032146036624908,0.659027099609375,0.7135895490646362,0.2376406192779541,0.036392152309417725,-0.014904916286468506,0.08863794803619385,0.3912057645373647,-0.7790768866340744,-0.10890139427675515,0.47763759110461024
1728066760415628500,4.079628662109375,0.008446860127151012,0.307173490524292,-0.20532065629959106,0.6568480730056763,0.715104877948761,0.23911403119564056,0.0008209347724914551,-0.04921138286590576,0.1851106733083725,0.3922640309643948,-0.7795738730125936,-0.10872713239853833,0.47599565157750356
1728066760425658600,4.08965869140625,-0.18582627177238464,0.3124264180660248,-0.25624510645866394,0.6544708013534546,0.7163490056991577,0.24189305305480957,-0.037237465381622314,-0.09876471757888794,0.21712175011634827,0.3925739077684617,-0.780392110517741,-0.1092459659249946,0.47427762782768906
1728066760435689700,4.099689697265625,-0.2969626486301422,0.31160831451416016,-0.3191937208175659,0.6516305208206177,0.7176147103309631,0.24577714502811432,-0.06499123573303223,-0.1525360345840454,0.14852508902549744,0.3924535796546955,-0.7814831788884947,-0.1103295636191922,0.47232559139506874
1728066760445720600,4.109720458984375,-0.3794555366039276,0.31045541167259216,-0.3717389404773712,0.6483805775642395,0.718991219997406,0.250308632850647,-0.079334557056427,-0.17821967601776123,0.07351341843605042,0.3920801435425674,-0.7827113078538791,-0.11188082253933843,0.4702328177385652
1728066760455750700,4.119750732421875,-0.40758275985717773,0.3494161367416382,-0.38202008605003357,0.644805908203125,0.720418393611908,0.25538745522499084,-0.07394403219223022,-0.16156524419784546,0.00437811017036438,0.39157821460834674,-0.7840775696957389,-0.11364899509797383,0.46794530634889725
