time,seconds_elapsed,rotationRateX,rotationRateY,rotationRateZ,gravityX,gravityY,gravityZ,accelerationX,accelerationY,accelerationZ,quaternionW,quaternionX,quaternionY,quaternionZ
1728404374344194800,0.12719482421875,-0.3227350115776062,0.13490036129951477,0.2545563876628876,0.4634564518928528,0.2836846709251404,-0.8394826650619507,0.03321713209152222,-0.04772275686264038,0.054845213890075684,0.9590314381508986,-0.14790165306674635,0.24162735031069082,-5.240169328188729e-18
1728404374354225000,0.137224853515625,-0.41024959087371826,0.11134561151266098,0.23947568237781525,0.4652024805545807,0.2856064736843109,-0.8378636837005615,0.03296646475791931,-0.0598527193069458,0.0696447491645813,0.9586080177821351,-0.14935930918034407,0.2424045238167665,0.0015420084707254296
1728404374364256000,0.147256103515625,-0.5128659605979919,0.10028363764286041,0.21398283541202545,0.46673622727394104,0.288409560918808,-0.8360486030578613,0.02725180983543396,-0.07115492224693298,0.06480836868286133,0.9581308234729589,-0.151295073525864,0.2430751149574037,0.00310888599259831
1728404374374285800,0.157285888671875,-0.6502871513366699,0.0931667685508728,0.1960025131702423,0.46815475821495056,0.29231011867523193,-0.8338980078697205,0.02020278573036194,-0.07609307765960693,0.06958532333374023,0.9575629043054933,-0.15383420993039462,0.24369246901302832,0.004722656355046801
1728404374384317000,0.16731689453125,-0.7741427421569824,0.0776224285364151,0.17027078568935394,0.4693889319896698,0.2974611222743988,-0.8313789367675781,0.0103016197681427,-0.08966690301895142,0.09799575805664062,0.9568951264318792,-0.1570662401088562,0.24421453627670123,0.00640979287263182
1728404374394348000,0.17734814453125,-0.804559588432312,0.1566423624753952,0.17269691824913025,0.4708250164985657,0.3032394051551819,-0.8284742832183838,-0.003127872943878174,-0.11378628015518188,0.1309797763824463,0.9561233074105374,-0.16064931284135087,0.24485637405398847,0.008089853197066685
1728404374404377900,0.1873779296875,-0.8659089803695679,0.24924473464488983,0.13211886584758759,0.473022997379303,0.30945050716400146,-0.8249179720878601,-0.015076249837875366,-0.12961041927337646,0.11341589689254761,0.9551780018684298,-0.16448246060371152,0.24594011497975152,0.009696547496940601
1728404374414407200,0.1974072265625,-0.8077487349510193,0.26257842779159546,0.13872377574443817,0.4755748212337494,0.31583213806152344,-0.8210229277610779,-0.011173546314239502,-0.11554527282714844,0.07807248830795288,0.9541423494991701,-0.16838863975269885,0.24725250945943358,0.011124944719597477
1728404374424437200,0.207437255859375,-0.6877291202545166,0.2654213607311249,0.20498721301555634,0.4783082604408264,0.32111555337905884,-0.817377507686615,-0.001043856143951416,-0.08185774087905884,0.06383746862411499,0.9531675751550855,-0.1717478700599642,0.24862406353033356,0.012656569675698259
1728404374434468400,0.21746826171875,-0.6607348322868347,0.2491614669561386,0.257735937833786,0.4811510741710663,0.3255438506603241,-0.8139501810073853,0.029972612857818604,-0.0479407012462616,0.009094834327697754,0.9522444389977633,-0.17470042444833878,0.2500093473717845,0.014341808651871298
1728404374444498200,0.227498291015625,-0.6696335077285767,0.24535182118415833,0.33924996852874756,0.4841498136520386,0.32948967814445496,-0.8105772733688354,0.037014126777648926,-0.030875176191329956,-0.0016785860061645508,0.9513251958163619,-0.17750945306367233,0.25139957139790786,0.016405655572944152
1728404374454529300,0.237529296875,-0.6784735918045044,0.21970771253108978,0.3502275049686432,0.48721402883529663,0.3332936763763428,-0.8071789145469666,0.02369600534439087,-0.03351953625679016,0.018787860870361328,0.9503889396390078,-0.18032301095682596,0.2527729492829578,0.018713055643891297
1728404374464560400,0.247560302734375,-0.6658262610435486,0.17125895619392395,0.31242555379867554,0.4899323880672455,0.3370949923992157,-0.8039485216140747,0.026608139276504517,-0.0339181125164032,0.010857701301574707,0.9494916867377275,-0.18312299316758776,0.2539521668061409,0.020973486162708586
1728404374474590200,0.257590087890625,-0.6534780859947205,0.10050089657306671,0.24432264268398285,0.49197208881378174,0.341042160987854,-0.8010329008102417,0.02514827251434326,-0.026528000831604004,0.0027540922164916992,0.9486764344977924,-0.18592669149597318,0.2547838356383159,0.023012396349246428
1728404374484621300,0.267621337890625,-0.5856438875198364,0.007754981517791748,0.1735515296459198,0.4931526482105255,0.34503379464149475,-0.7985938787460327,0.0029868781566619873,-0.02784934639930725,0.0008338689804077148,0.9479896114201743,-0.18864454718516988,0.2551789617043564,0.024751929668373557
1728404374494651400,0.2776513671875,-0.4105183184146881,-0.08266402781009674,0.12031973898410797,0.4933249354362488,0.34832268953323364,-0.7970582246780396,-0.009499281644821167,-0.04004937410354614,-0.0017241239547729492,0.9475477005699392,-0.19083479408167617,0.25505480822605325,0.026126657240956818
1728404374504682200,0.28768212890625,-0.257315456867218,-0.07954014092683792,0.030243370682001114,0.4929184913635254,0.35056716203689575,-0.7963253855705261,0.00984334945678711,-0.03858596086502075,-0.030945181846618652,0.9473298264108139,-0.19228794807565966,0.2546815001187399,0.027000498270282863
1728404374514712000,0.297712158203125,-0.14815539121627808,-0.09196697920560837,-0.08407708257436752,0.4921700060367584,0.3523150384426117,-0.7960168719291687,0.009279578924179077,-0.020558446645736694,-0.0727117657661438,0.947242463553658,-0.19327146661504666,0.2542394739211763,0.027208281488384885
1728404374524743400,0.307743408203125,-0.062439434230327606,-0.12994125485420227,-0.11034730076789856,0.49092093110084534,0.3536610007286072,-0.7961912751197815,-0.017593294382095337,-0.019997060298919678,-0.076535165309906,0.947295643790126,-0.19388515728817263,0.2535998946780145,0.026956107434220247
1728404374534774300,0.317774169921875,-0.03937292844057083,-0.08581279218196869,-0.14478516578674316,0.48957377672195435,0.3546389639377594,-0.7965856194496155,-0.008937180042266846,-0.0430697500705719,-0.08088624477386475,0.9474114096202979,-0.1942474290106059,0.25293302297890646,0.026539603136306728
1728404374544804000,0.32780419921875,-0.017376283183693886,-0.006230342201888561,-0.24462628364562988,0.4885311424732208,0.3558346927165985,-0.7966925501823425,-0.000021010637283325195,-0.06382721662521362,-0.10031062364578247,0.9474627241518715,-0.1946342091240551,0.2525296898789177,0.02570516307434323
1728404374554835200,0.337835205078125,0.042164675891399384,0.03610065579414368,-0.3223775029182434,0.487644225358963,0.3571375906467438,-0.7966529130935669,-0.0384865403175354,-0.06903639435768127,-0.1048668622970581,0.9474889096735695,-0.19494138533102334,0.252331911562763,0.0243171763632056
1728404374564865000,0.347864990234375,0.05037946254014969,0.08451718837022781,-0.3987356722354889,0.4868171513080597,0.3584902882575989,-0.7965511679649353,-0.04998853802680969,-0.06005889177322388,-0.1090884804725647,0.9475072043788061,-0.1951628666785342,0.2522614986312195,0.02248886714051279
1728404374574896000,0.357896240234375,0.040872972458601,0.12933951616287231,-0.4772126376628876,0.48611029982566833,0.3602854311466217,-0.7961728572845459,-0.038478463888168335,-0.052820831537246704,-0.0979464054107666,0.9474579297843948,-0.19552609055221298,0.2523551298295421,0.02024935829213282
1728404374584926200,0.36792626953125,0.058130256831645966,0.1499079167842865,-0.5451567769050598,0.48538342118263245,0.3624170124530792,-0.7956487536430359,-0.050446897745132446,-0.058553487062454224,-0.08609563112258911,0.9473721848213188,-0.19597160874186145,0.25252872869062126,0.017619963234604033
1728404374594957000,0.37795703125,0.1317765861749649,0.16109734773635864,-0.6093272566795349,0.4845218360424042,0.3644998073577881,-0.795222282409668,-0.048303574323654175,-0.06718233227729797,-0.08746808767318726,0.9473105592897187,-0.19628725666834798,0.2527057056827475,0.014622081369087983
1728404374604987100,0.387987060546875,0.20541591942310333,0.19788599014282227,-0.6720577478408813,0.48356592655181885,0.36627548933029175,-0.794988214969635,-0.03300440311431885,-0.05900925397872925,-0.09247821569442749,0.9472956157036144,-0.19631332526955036,0.2529169257316226,0.011185511873159186
1728404374615018200,0.398018310546875,0.2503591477870941,0.22412797808647156,-0.6977748274803162,0.48274490237236023,0.3677808344364166,-0.7947921752929688,-0.030993223190307617,-0.051740795373916626,-0.08306121826171875,0.9472808768061289,-0.1961088913683831,0.25326904090840496,0.007422088730525068
1728404374625049000,0.408049072265625,0.31022435426712036,0.21797049045562744,-0.6852601170539856,0.4819584786891937,0.3688944876194,-0.79475337266922,-0.017145246267318726,-0.055677324533462524,-0.06927555799484253,0.9472929935064346,-0.19566263339751727,0.253652242513883,0.0035584288842149814
1728404374635079200,0.4180791015625,0.30885782837867737,0.19535939395427704,-0.6880865097045898,0.4810955226421356,0.36967360973358154,-0.7949141263961792,0.01473882794380188,-0.06468096375465393,-0.051841795444488525,0.9473420411414697,-0.19503425094662044,0.25397749863714236,-0.0002860762288397784
1728404374645110000,0.428110107421875,0.24469268321990967,0.18365132808685303,-0.7132294178009033,0.4800015091896057,0.3708357810974121,-0.7950341701507568,0.0361270010471344,-0.0683455765247345,-0.03121393918991089,0.9473646198382996,-0.19460481311663955,0.25418866895851244,-0.004155088514564623
1728404374655140000,0.43814013671875,0.20871131122112274,0.17391227185726166,-0.6799838542938232,0.47881680727005005,0.3724328875541687,-0.7950020432472229,0.03616735339164734,-0.0678827166557312,0.0133705735206604,0.9473319799217206,-0.19443509777746643,0.25435011336157404,-0.007949130381841446
1728404374665171200,0.448171142578125,0.16651752591133118,0.15403735637664795,-0.6291806101799011,0.47771021723747253,0.3740288019180298,-0.7949184775352478,0.03298616409301758,-0.08421865105628967,0.04717683792114258,0.9472742242401061,-0.19435098013384938,0.25449647109155865,-0.011437224684943698
1728404374675201300,0.458201171875,0.06505434215068817,0.13591235876083374,-0.6665013432502747,0.4764513075351715,0.37617170810699463,-0.7946628332138062,0.04321727156639099,-0.09589827060699463,0.06040990352630615,0.9471603431862385,-0.1946033876075597,0.25455470836436156,-0.01479150376300569
1728404374685232000,0.468232177734375,-0.07075488567352295,0.11497938632965088,-0.704213559627533,0.4748474657535553,0.3794468641281128,-0.7940654754638672,0.0368560254573822,-0.09680831432342529,0.08546257019042969,0.9469438969746492,-0.19547081300703603,0.2544767542414615,-0.018168822375374982
1728404374695263200,0.47826318359375,-0.2393285185098648,0.1032816618680954,-0.7473655343055725,0.472941130399704,0.3841273784637451,-0.7929520010948181,0.02521255612373352,-0.1029079258441925,0.11070102453231812,0.9465795340846134,-0.19712135505145476,0.25429742574396946,-0.021520654958083463
1728404374705293000,0.48829296875,-0.40788930654525757,0.1308581680059433,-0.7858708500862122,0.4708757996559143,0.3903219401836395,-0.7911540865898132,0.027552545070648193,-0.10994169116020203,0.13649100065231323,0.9460227230743445,-0.19961817971804396,0.2541171753298509,-0.02486111063694632
1728404374715324200,0.49832421875,-0.6084025502204895,0.19418132305145264,-0.8430492281913757,0.4689309298992157,0.39815548062324524,-0.7884008884429932,0.020372629165649414,-0.11927059292793274,0.14017707109451294,0.9451999871832015,-0.20302776868912725,0.2541245335063586,-0.02823768737690362
1728404374725354200,0.508354248046875,-0.842899739742279,0.26889654994010925,-0.9222186207771301,0.4672015309333801,0.40800851583480835,-0.7843798398971558,0.012092292308807373,-0.12807080149650574,0.13972657918930054,0.9440250012731872,-0.2075492310401608,0.254427559447321,-0.031728463222793594
1728404374735385000,0.518385009765625,-1.0672240257263184,0.3703254461288452,-0.9931508302688599,0.4656890630722046,0.4199664294719696,-0.7789492011070251,0.00255739688873291,-0.1424853503704071,0.15051597356796265,0.9424558822637182,-0.21323015161531916,0.25506528357456126,-0.03537606748658294
1728404374745415200,0.528415283203125,-1.3454598188400269,0.49895772337913513,-1.0331403017044067,0.46471667289733887,0.4340696334838867,-0.7717654705047607,-0.009501218795776367,-0.16098308563232422,0.12804299592971802,0.9404002478647178,-0.2201317143223817,0.2562406970367666,-0.03911514606504078
1728404374755446300,0.5384462890625,-1.5636183023452759,0.5409079194068909,-0.8639254570007324,0.46447277069091797,0.4497900903224945,-0.762859046459198,-0.01578807830810547,-0.179694265127182,0.141154944896698,0.9378897137710919,-0.2281461488387594,0.25791437155507346,-0.04233621715072807
1728404374765477000,0.54847705078125,-1.678043246269226,0.582521915435791,-0.7109534740447998,0.465198278427124,0.4657387435436249,-0.7527801394462585,0.013057917356491089,-0.17333459854125977,0.15800786018371582,0.9350976474355855,-0.2366518222654621,0.26001123594116343,-0.044524284811858134
1728404374775507200,0.558507080078125,-1.809036374092102,0.6370185017585754,-0.6920881867408752,0.4664463996887207,0.48205628991127014,-0.7416532039642334,-0.002457141876220703,-0.14825502038002014,0.1446988582611084,0.932034388971854,-0.24558464996396492,0.26241490893448566,-0.046242816776199645
1728404374785538300,0.568538330078125,-1.9094516038894653,0.6955974102020264,-0.6353452801704407,0.4680929183959961,0.4989331066608429,-0.7293522953987122,-0.030257195234298706,-0.1189434826374054,0.14890801906585693,0.9286535360892133,-0.25500335085495873,0.2651360641314011,-0.047736953039802146
1728404374795568000,0.578568115234375,-2.0066232681274414,0.7277161478996277,-0.5283282995223999,0.4703177213668823,0.51585453748703,-0.7160274386405945,-0.003353029489517212,-0.09297245740890503,0.14682883024215698,0.9250061358911357,-0.26470259900218795,0.26817684017555776,-0.04875795140537274
1728404374805599200,0.58859912109375,-2.086446523666382,0.7039658427238464,-0.45003587007522583,0.47287076711654663,0.5327297449111938,-0.7018492221832275,0.03161531686782837,-0.07907068729400635,0.15201401710510254,0.9211423870269615,-0.2746724298447529,0.271349324476498,-0.04920761732729046
1728404374815629300,0.59862939453125,-2.1357414722442627,0.6305333375930786,-0.3849988281726837,0.47525182366371155,0.5494527220726013,-0.687195360660553,0.03761136531829834,-0.08129781484603882,0.13145500421524048,0.9171572800112482,-0.28482387967350753,0.2743677659339726,-0.04919703193447161
1728404374825660200,0.60866015625,-2.1702158451080322,0.5538358688354492,-0.30695781111717224,0.47739410400390625,0.5657607316970825,-0.6723166108131409,0.03888699412345886,-0.0859023928642273,0.0813741683959961,0.9131215721212597,-0.29502861418710224,0.27712781453895474,-0.04865402449764079
1728404374835691300,0.618691162109375,-2.1941795349121094,0.44099560379981995,-0.2926526367664337,0.4790484309196472,0.5817568898200989,-0.6573214530944824,0.05304080247879028,-0.07496678829193115,0.0326572060585022,0.9090571158125086,-0.30531018926874437,0.2795084406200436,-0.04770531471929048
1728404374845721300,0.628721435546875,-2.2341251373291016,0.3209672272205353,-0.34058475494384766,0.47961586713790894,0.5976409316062927,-0.6424903869628906,0.04563739895820618,-0.058731019496917725,-0.010662078857421875,0.9050257569020035,-0.31569161561674364,0.281235881254887,-0.04662073899247903
1728404374855752200,0.638752197265625,-2.433605432510376,0.35579150915145874,-0.30843082070350647,0.47978973388671875,0.614016056060791,-0.6267264485359192,0.029045075178146362,-0.05241638422012329,-0.05637902021408081,0.9007257086563751,-0.32660891396960445,0.2827780176149322,-0.045346489330841684
1728404374865782300,0.6487822265625,-2.824983596801758,0.5550495386123657,-0.04736567288637161,0.4809611439704895,0.6312071681022644,-0.6084849238395691,0.0335957407951355,-0.057995498180389404,-0.008809387683868408,0.8957493740736548,-0.3385635919327132,0.2848372216759731,-0.04330703400537505
1728404374875813000,0.658813232421875,-3.4552996158599854,0.6038005352020264,0.34059274196624756,0.48559510707855225,0.6491825580596924,-0.5854564905166626,0.08105525374412537,-0.10937243700027466,0.07807129621505737,0.889495014129391,-0.35224589743166745,0.2884347162410454,-0.039074090837294254
1728404374885843200,0.66884326171875,-4.05225133895874,0.4517638385295868,0.4658694267272949,0.4913977384567261,0.6686756014823914,-0.5580334067344666,0.14228451251983643,-0.17642706632614136,0.18295717239379883,0.8820138219866955,-0.3682326917681438,0.2922121963916556,-0.03268673339855122
1728404374895874300,0.678874267578125,-4.377525329589844,0.15801718831062317,0.3112790584564209,0.4957634210586548,0.6898044347763062,-0.5276252031326294,0.052210211753845215,-0.16668742895126343,0.19533461332321167,0.8735988736023471,-0.3862823825302275,0.2949123761475296,-0.025249431835070304
1728404374905904400,0.688904296875,-4.301435470581055,0.11532911658287048,0.04381829872727394,0.4976091980934143,0.711313009262085,-0.49640586972236633,-0.058720678091049194,-0.060754597187042236,0.11843040585517883,0.864795122152718,-0.4050172193287637,0.29623997637085436,-0.01822707813659787
1728404374915935200,0.698935302734375,-4.226722717285156,0.15041401982307434,-0.40595948696136475,0.4971444308757782,0.7325026988983154,-0.46506693959236145,-0.1463143527507782,0.1068984866142273,-0.0053005218505859375,0.855784426414112,-0.42349475558752275,0.29684798393578543,-0.012906091302114968
1728404374925966300,0.70896630859375,-3.7798092365264893,0.5067955851554871,-0.8275682330131531,0.4941958785057068,0.7536141872406006,-0.43340054154396057,-0.2340793013572693,0.18734949827194214,-0.029779940843582153,0.8465174317477593,-0.4414684653985161,0.2973303275049637,-0.01041380427856115
1728404374935996400,0.718996337890625,-3.940208911895752,0.459967702627182,-1.1344983577728271,0.48856642842292786,0.7742448449134827,-0.402303010225296,-0.18537425994873047,0.04747140407562256,-0.14573168754577637,0.8372911587661537,-0.45889302354659944,0.29709542698445396,-0.009745537713036117
1728404374946027300,0.72902734375,-4.092327117919922,0.3322654068470001,-1.1955982446670532,0.4808371663093567,0.7956352233886719,-0.3684566020965576,-0.10409769415855408,-0.06536483764648438,-0.012219667434692383,0.8271236868957493,-0.47747798886514753,0.296287810281603,-0.009734644154186576
1728404374956057300,0.739057373046875,-4.1046977043151855,0.025912733748555183,-0.9602016806602478,0.4726317226886749,0.8153526186943054,-0.3343939781188965,-0.037542641162872314,-0.0867455005645752,0.028760462999343872,0.8167757333216236,-0.4960182287038187,0.2945656483763368,-0.008625111761020685
1728404374966088200,0.749088134765625,-3.8705217838287354,-0.2643555700778961,-0.44046926498413086,0.46640369296073914,0.8314517736434937,-0.30191972851753235,0.061657220125198364,-0.03375279903411865,0.007180929183959961,0.806803446378792,-0.5133570080213459,0.2924119060974073,-0.005292769854560483
1728404374976118300,0.7591181640625,-3.5435738563537598,-0.39999276399612427,0.042834263294935226,0.4638279676437378,0.8430142402648926,-0.2723791301250458,0.10881912708282471,0.06424272060394287,-0.007329672574996948,0.7976147885184907,-0.528563906474487,0.29056949183011965,0.00028653906403610844
1728404374986149400,0.7691494140625,-3.292316198348999,-0.3401699364185333,0.2046830803155899,0.46412232518196106,0.8511718511581421,-0.24514713883399963,0.05408141016960144,0.11931765079498291,-0.014603197574615479,0.7890038058980917,-0.5419027182174462,0.28942680190888076,0.006832076006573954
1728404374996180200,0.77918017578125,-3.131157159805298,-0.3329007625579834,0.12282790243625641,0.4648222029209137,0.8578380942344666,-0.21921275556087494,-0.04177224636077881,0.09046506881713867,-0.009440183639526367,0.7806632367472293,-0.5542657168752393,0.2884148665700988,0.013091589007918089
1728404375006210300,0.789210205078125,-3.186800241470337,-0.3468083143234253,-0.014808792620897293,0.4645651578903198,0.8641111254692078,-0.1936260163784027,-0.10514441132545471,0.0075470805168151855,0.01384696364402771,0.7723083439582142,-0.5664129095833026,0.286990260227395,0.018780656828965722
1728404375016241400,0.799241455078125,-3.3629801273345947,-0.334238737821579,-0.023780183866620064,0.4637156128883362,0.8701443672180176,-0.16678345203399658,-0.12446695566177368,-0.04174470901489258,0.06200134754180908,0.7634127168222106,-0.5790016970364391,0.28524604473402176,0.024347675521436223
1728404375026271200,0.809271240234375,-3.4949073791503906,-0.2912076413631439,0.1078026071190834,0.46355417370796204,0.8752236366271973,-0.1382075548171997,-0.09937259554862976,-0.044947028160095215,0.09505568444728851,0.7537800217039523,-0.5919683735550569,0.28367176370332975,0.03032420739042639
1728404375036302300,0.81930224609375,-3.550809144973755,-0.24227653443813324,0.24300996959209442,0.4648238718509674,0.8787454962730408,-0.10837560892105103,-0.06290730834007263,-0.012549757957458496,0.08905796706676483,0.7435278664559338,-0.6049186613555754,0.28264042310924364,0.03679982982178315
1728404375046332200,0.829332275390625,-3.4893436431884766,-0.279965341091156,0.29291656613349915,0.46699491143226624,0.8807729482650757,-0.07845211029052734,-0.04447901248931885,0.05105072259902954,0.06508541107177734,0.7330242485352012,-0.6175441054360505,0.2818035184027995,0.043606024407071106
1728404375056363000,0.839363037109375,-3.374025344848633,-0.37368249893188477,0.2606755197048187,0.46926993131637573,0.8816604614257812,-0.04960252344608307,-0.04435846209526062,0.1332930326461792,0.04018784314393997,0.7226708819036142,-0.6296078559800183,0.28070035037986896,0.050477434752734876
1728404375066394400,0.849394287109375,-3.288184881210327,-0.5018178224563599,0.1928493231534958,0.4711308777332306,0.8817836046218872,-0.022209476679563522,-0.03831535577774048,0.20705300569534302,0.015785517171025276,0.7126088773398147,-0.6411637869532899,0.278934150634923,0.05738702790391631
1728404375076424200,0.859424072265625,-3.179126739501953,-0.5822794437408447,0.1432916224002838,0.4725387990474701,0.8813015818595886,0.0038238591514527798,-0.02722632884979248,0.2394106388092041,-0.02112734317779541,0.7028223724035535,-0.6522558394495361,0.2765397790992006,0.06425554099632985
1728404375086455000,0.869455078125,-3.0617034435272217,-0.5836403369903564,0.15337514877319336,0.4739142656326294,0.8801066279411316,0.028593989089131355,-0.018179982900619507,0.19449353218078613,-0.0025777816772460938,0.6932980159091241,-0.6627750870527139,0.27390906942697363,0.07099921902674995
1728404375096485000,0.879485107421875,-3.0509917736053467,-0.5968406200408936,0.214050754904747,0.47574856877326965,0.8780047297477722,0.05264129117131233,-0.010263919830322266,0.13803231716156006,0.019502289593219757,0.6838378286012262,-0.6728209848447597,0.2713532152178711,0.07775128674395752
1728404375106516200,0.88951611328125,-3.1362948417663574,-0.6271884441375732,0.2648242115974426,0.47826695442199707,0.8748424649238586,0.07688473165035248,-0.012919634580612183,0.12402832508087158,0.05322694778442383,0.6740632257094294,-0.6827654639178555,0.2688376570216587,0.08483131478865859
1728404375116546000,0.899546142578125,-3.068305730819702,-0.6314151287078857,0.2884317934513092,0.4812937378883362,0.8707049489021301,0.10113834589719772,-0.027482151985168457,0.13639026880264282,0.07476495206356049,0.6640295254311982,-0.6925818903058505,0.26626960022931145,0.09217104356778978
1728404375126577200,0.9095771484375,-2.79598069190979,-0.5284967422485352,0.2795775830745697,0.4844107925891876,0.8660302758216858,0.12384483963251114,-0.061528801918029785,0.13549548387527466,0.07241366803646088,0.6544249798234023,-0.7016103225519497,0.2639419897496696,0.0990224417154177
1728404375136608000,0.91960791015625,-2.6697659492492676,-0.41087472438812256,0.28812524676322937,0.487490713596344,0.8609922528266907,0.1450694054365158,-0.1044798195362091,0.14736950397491455,0.06423544883728027,0.6452869279015487,-0.7098566208736963,0.2619890800997119,0.10521453019020548
1728404375146638000,0.92963818359375,-2.7578365802764893,-0.3271811604499817,0.29913529753685,0.49059683084487915,0.8553049564361572,0.16663867235183716,-0.11654287576675415,0.18673306703567505,0.06233477592468262,0.6358956425643238,-0.7179755302120449,0.2604428444479211,0.11098421780035551
1728404375156669200,0.939669189453125,-2.7700765132904053,-0.28555160760879517,0.28350865840911865,0.49364542961120605,0.8489160537719727,0.188826784491539,-0.11461716890335083,0.1801213026046753,0.07801887392997742,0.6260748207827121,-0.7262187262118054,0.2588817430630452,0.11669124763356757
1728404375166699300,0.94969921875,-2.6703250408172607,-0.24779997766017914,0.3048917353153229,0.4966411888599396,0.842049777507782,0.2104746401309967,-0.10467347502708435,0.10491055250167847,0.01595054566860199,0.6163385229622584,-0.7340981963034711,0.2575600136027738,0.12202241695490339
1728404375176730000,0.959730224609375,-3.0113401412963867,-0.22311359643936157,0.30262696743011475,0.4997204542160034,0.8342637419700623,0.2329883575439453,-0.07969176769256592,0.032649099826812744,0.012769699096679688,0.606011607250697,-0.7422141918588689,0.25614892294809605,0.12749823665441432
1728404375186760200,0.96976025390625,-3.119973659515381,-0.25966256856918335,0.30790695548057556,0.5028311610221863,0.8251380324363708,0.2575038969516754,-0.052467942237854004,0.011272609233856201,0.06673017144203186,0.5945620924294168,-0.7509483216676827,0.2546145365494777,0.13320680209350355
1728404375196791300,0.979791259765625,-3.2998979091644287,-0.37024617195129395,0.25400298833847046,0.5059951543807983,0.8150438070297241,0.2822633385658264,-0.03184354305267334,-0.01784837245941162,0.09851968288421631,0.5826279107627129,-0.7598440903581626,0.2525245173646858,0.13933086425223448
1728404375206822100,0.989822265625,-3.029057025909424,-0.3826410472393036,0.3415469527244568,0.5094585418701172,0.8040789365768433,0.30644580721855164,-0.024168014526367188,0.05402952432632446,0.07322332262992859,0.5705784947408271,-0.7685032249299172,0.250251253629952,0.14566143007402554
1728404375216852200,0.999852294921875,-2.391697883605957,-0.3780234456062317,0.4212026298046112,0.5137887001037598,0.7935269474983215,0.3260924220085144,-0.0017952919006347656,0.12341940402984619,-0.02488386631011963,0.5603302847923722,-0.7753727783465374,0.24868306868924386,0.15160408629880778
1728404375226883000,1.009883056640625,-2.277808427810669,-0.4088039994239807,0.3748289942741394,0.5183030962944031,0.7836840748786926,0.3423466682434082,-0.022651851177215576,0.13452881574630737,-0.1119999885559082,0.5514809871966865,-0.7810147972449383,0.24736454724829196,0.15714773556937556
1728404375236913200,1.0199130859375,-2.194355010986328,-0.40533924102783203,0.287964403629303,0.5222933888435364,0.7741016745567322,0.35773754119873047,-0.05618315935134888,0.15538740158081055,-0.06116771697998047,0.5429113163381606,-0.7864334690214289,0.2457461335180285,0.1624146745769695
1728404375246944300,1.0299443359375,-2.0154736042022705,-0.4067506790161133,0.33358702063560486,0.5261308550834656,0.7647625803947449,0.37192022800445557,-0.06369799375534058,0.13954955339431763,-0.047014832496643066,0.5347857475262263,-0.7914471673606,0.24407273011666547,0.16746386954903075
1728404375256974300,1.039974365234375,-1.5946123600006104,-0.3718011677265167,0.40916353464126587,0.5304422974586487,0.7558943033218384,0.3837377429008484,-0.024796605110168457,0.07549601793289185,-0.12168338894844055,0.5277091224306059,-0.795499929051928,0.24299945796637892,0.1722037948064928
1728404375267005200,1.050005126953125,-1.3953940868377686,-0.3898230493068695,0.4362255036830902,0.535132646560669,0.7479749321937561,0.39264053106307983,0.017021894454956055,-0.0009198784828186035,-0.2017989158630371,0.5219951679581856,-0.7984789324764543,0.2423874249749179,0.1766374172527883
1728404375277036300,1.060036376953125,-1.7187035083770752,-0.29966941475868225,0.45079246163368225,0.5397855043411255,0.7394357323646545,0.40232622623443604,0.03461635112762451,-0.0001016855239868164,-0.16877520084381104,0.515816414824073,-0.8016549924774669,0.24189332961976892,0.18102575870027662
1728404375287066000,1.070066162109375,-1.6038086414337158,-0.28916752338409424,0.49769312143325806,0.5444513559341431,0.7298352718353271,0.4134160876274109,0.03880053758621216,0.0631028413772583,0.0037896037101745605,0.5088136592424899,-0.8052245568495825,0.24149835456959573,0.1854737580566415
1728404375297097200,1.08009716796875,-0.8528560996055603,-0.46649372577667236,0.4481620788574219,0.5494991540908813,0.7219445109367371,0.420531302690506,0.03939849138259888,0.06568360328674316,0.05648893117904663,0.5037328333924931,-0.8074798809454243,0.24133357423765583,0.18970370196197844
1728404375307127300,1.090127197265625,-0.39339879155158997,-0.6436911225318909,0.30046528577804565,0.5545593500137329,0.717522919178009,0.42145511507987976,0.027410805225372314,0.034430086612701416,-0.014640629291534424,0.5017893757253268,-0.8079002145321607,0.24088338080614458,0.193596888881283
1728404375317158100,1.100158203125,-0.7059500217437744,-0.6894117593765259,0.28923580050468445,0.5594724416732788,0.7136310935020447,0.4215700924396515,0.008123993873596191,0.11186939477920532,-0.0199587345123291,0.5001287069448381,-0.8082507766006722,0.23982438363511932,0.19770246182605367
1728404375327188200,1.110188232421875,-0.5605667233467102,-0.6392111778259277,0.2614331841468811,0.5642964243888855,0.7091832756996155,0.42264464497566223,0.007923424243927002,0.20709168910980225,0.03000730276107788,0.4979069995114895,-0.8089342770034254,0.2386370827662582,0.2019065441519937
1728404375337219300,1.12021923828125,-0.29269060492515564,-0.6160096526145935,0.16220912337303162,0.5684513449668884,0.7062682509422302,0.4219578206539154,-0.012344717979431152,0.14189153909683228,-0.12070351839065552,0.49679974370174024,-0.8090484743135373,0.23752782872629197,0.2054535791932675
1728404375347250200,1.130250244140625,-0.2897163927555084,-0.653268575668335,0.14208388328552246,0.5721216797828674,0.704208254814148,0.420437216758728,-0.021294713020324707,0.07229626178741455,-0.17426720261573792,0.49620985784764854,-0.8089527346063049,0.23625003110290588,0.20870348791270435
1728404375357280300,1.1402802734375,-0.08495945483446121,-0.7343012094497681,0.16598202288150787,0.5761354565620422,0.702492892742157,0.4178180396556854,0.024038612842559814,0.10718429088592529,-0.12834352254867554,0.4960737527298682,-0.8085229979778499,0.23494590515761235,0.21213647910743397
1728404375367311400,1.150311279296875,0.1754622757434845,-0.738635241985321,0.174281507730484,0.5803971290588379,0.701720118522644,0.4131922721862793,0.04960763454437256,0.18383890390396118,-0.15400651097297668,0.49695679777549534,-0.807414188647148,0.2338342820892374,0.2154941602180993
1728404375377341200,1.160341064453125,0.356405645608902,-0.7347002029418945,0.1500701755285263,0.5845921635627747,0.7019138336181641,0.40690192580223083,0.024737119674682617,0.25787925720214844,-0.08909183740615845,0.49878000844160686,-0.8057146163960143,0.23296979297797218,0.21855803854736117
1728404375387372300,1.170372314453125,0.018954893574118614,-0.7572153210639954,0.08461979031562805,0.5884283185005188,0.702165961265564,0.4008929431438446,-0.008868992328643799,0.2043740153312683,0.04930233955383301,0.500456233972865,-0.8041742230613657,0.23184109350384888,0.22157864700591792
1728404375397402400,1.18040234375,-0.23277129232883453,-0.8410308361053467,0.1333031803369522,0.5923805832862854,0.7008088231086731,0.39743170142173767,-0.031391263008117676,0.010830461978912354,0.24427658319473267,0.5005446240715475,-0.8035969488861985,0.23010389278484894,0.22525350610791675
1728404375407433200,1.19043310546875,-0.36641404032707214,-0.8279297351837158,0.08715778589248657,0.5964864492416382,0.6992260813713074,0.39406439661979675,-0.012791991233825684,-0.17215698957443237,0.22438955307006836,0.5004337896333483,-0.8031094206152976,0.22813913058359697,0.22920252585118314
1728404375417463300,1.20046337890625,-0.8654566407203674,-0.7096081972122192,0.12980777025222778,0.6002793908119202,0.6960120797157288,0.3939943313598633,-0.03475821018218994,-0.1610085368156433,0.09833043813705444,0.49856565641643313,-0.803723428763342,0.22588893935904567,0.23331312707670493
1728404375427494400,1.210494384765625,-0.8559289574623108,-0.7019116282463074,0.13669098913669586,0.6039802432060242,0.6917212605476379,0.3958907723426819,-0.03046339750289917,0.008351922035217285,0.18255460262298584,0.495654973872253,-0.804933880823744,0.22366678840902576,0.23744627933230902
1728404375437525200,1.220525146484375,-0.6723266243934631,-0.7190849184989929,0.09834545850753784,0.6076622009277344,0.6879213452339172,0.39687657356262207,-0.0287131667137146,0.12363260984420776,0.0737197995185852,0.4931826749183985,-0.8058620315555308,0.2214151676347912,0.24152145070193537
1728404375447555300,1.230555419921875,-0.3124547302722931,-0.6606006026268005,0.07379990071058273,0.610980749130249,0.6854075193405151,0.3961299955844879,-0.0463903546333313,0.1787281632423401,0.030231088399887085,0.49180819000510867,-0.8061711747622178,0.21943798354466804,0.245070757035674
1728404375457586200,1.240586181640625,-0.01248891744762659,-0.5730915069580078,0.05591917037963867,0.613878071308136,0.6844187378883362,0.3933504819869995,-0.08473384380340576,0.14266860485076904,0.0093594491481781,0.4918062447211023,-0.8057008759332484,0.2179938893472889,0.24789384610448273
1728404375467616300,1.2506162109375,0.05402672663331032,-0.48146599531173706,0.0334135964512825,0.6162598133087158,0.684245228767395,0.3899127244949341,-0.11160600185394287,0.07504719495773315,0.023218929767608643,0.49243074975831813,-0.8049289489741486,0.2169003123957125,0.2501109245007533
1728404375477647400,1.2606474609375,0.0872465968132019,-0.3868662416934967,0.030321933329105377,0.6181397438049316,0.6843647956848145,0.3867146372795105,-0.11974185705184937,0.03273725509643555,0.06457924842834473,0.4931738429677375,-0.8041635084374417,0.21605177643883677,0.25183780494521163
1728404375487678200,1.27067822265625,-0.039702825248241425,-0.361440509557724,0.021037621423602104,0.6197643876075745,0.6843478679656982,0.3841356039047241,-0.10760313272476196,-0.022253811359405518,0.06720411777496338,0.4937058521591868,-0.8035607794562023,0.2153087920229035,0.2533510876599285
1728404375497708300,1.280708251953125,-0.3981919288635254,-0.37787896394729614,-0.018622705712914467,0.6211995482444763,0.6835023760795593,0.3833217918872833,-0.07540792226791382,-0.0625002384185791,0.10526466369628906,0.4932306977717324,-0.803621749654928,0.214133074736189,0.25507369740602004
1728404375507739400,1.290739501953125,-0.6048817038536072,-0.39121127128601074,-0.03843662515282631,0.6224575042724609,0.6817020177841187,0.384485125541687,-0.04305082559585571,-0.07428014278411865,0.1488094925880432,0.4915955216361489,-0.8044394542069456,0.21241404496144564,0.25708205125808065
1728404375517769200,1.300769287109375,-0.6521163582801819,-0.42887935042381287,-0.03806378319859505,0.623778760433197,0.6794995665550232,0.3862389624118805,-0.007888257503509521,-0.08935058116912842,0.0983191728591919,0.48952662884020964,-0.8055060190215333,0.21042702473698113,0.25931495471361593
1728404375527800300,1.31080029296875,-0.6429428458213806,-0.47526654601097107,0.004162767436355352,0.6253894567489624,0.6770902872085571,0.38786178827285767,0.009666085243225098,-0.0672881007194519,0.04945504665374756,0.48739372583981183,-0.8065324242245808,0.20841387783486776,0.26175650660933
1728404375537830400,1.320830322265625,-0.5999863147735596,-0.5779468417167664,0.06741470843553543,0.6276944279670715,0.6743915677070618,0.38883885741233826,0.007223725318908691,-0.020659327507019043,0.017121165990829468,0.48531222605359725,-0.807356992293653,0.20638340274936517,0.2646745277114693
1728404375547861200,1.330861328125,-0.37325116991996765,-0.5626277923583984,0.06687461584806442,0.6304623484611511,0.672085702419281,0.3883526623249054,0.0208590030670166,-0.05158716440200806,-0.10487490892410278,0.4839101971261384,-0.8076446227889451,0.20466188659870418,0.26768355791465265
1728404375557891300,1.340891357421875,-0.6698466539382935,-0.4399768114089966,-0.013876154087483883,0.6325777769088745,0.6700003147125244,0.38851645588874817,0.007452189922332764,-0.12687897682189941,-0.18610864877700806,0.4823771262624751,-0.8081480240282582,0.2028669633255673,0.27028526601005204
1728404375567922400,1.35092236328125,-0.8156922459602356,-0.4767148494720459,0.006108738947659731,0.6342498660087585,0.6670370697975159,0.39088207483291626,-0.021319568157196045,-0.11634737253189087,-0.006513118743896484,0.479698972292532,-0.8094210960666518,0.20069509027379473,0.2728514306329157
1728404375577953300,1.360953369140625,-0.6977998614311218,-0.5886067748069763,0.08280085027217865,0.6366357803344727,0.6638057827949524,0.392500638961792,0.026129722595214844,-0.09430199861526489,0.03875851631164551,0.47711459289699965,-0.8104507600328014,0.19854442052596896,0.27588282206277986
1728404375587983400,1.3709833984375,-0.6622088551521301,-0.6686065196990967,0.1373242884874344,0.63988196849823,0.6604141592979431,0.39294275641441345,0.06716442108154297,-0.07552957534790039,-0.029798895120620728,0.4748361886886685,-0.8110696585774254,0.19656396762788947,0.279390692795779
1728404375598014500,1.381014404296875,-0.648385226726532,-0.6575878262519836,0.13409972190856934,0.6434335708618164,0.6569311022758484,0.3929818868637085,0.059844017028808594,-0.037225961685180664,-0.029487013816833496,0.47261530716791944,-0.811556864298772,0.1945929118352985,0.2830968666568331
1728404375608044300,1.391044189453125,-0.5132948160171509,-0.6462153196334839,0.16557589173316956,0.6469376683235168,0.6536912322044373,0.39263156056404114,0.044315993785858154,-0.005772531032562256,-0.04274752736091614,0.4706598756780546,-0.8118722157588582,0.19281932042709407,0.2866417887331886
1728404375618075400,1.401075439453125,-0.419921338558197,-0.7824418544769287,0.27307572960853577,0.6510869264602661,0.6504537463188171,0.39114680886268616,0.05447947978973389,0.02786046266555786,-0.01428520679473877,0.46912113882297196,-0.8117546544748182,0.19138386049542844,0.2904341067299179
1728404375628105500,1.41110546875,-0.19941666722297668,-0.9851259589195251,0.37954092025756836,0.6567453145980835,0.646990180015564,0.38741353154182434,0.08554893732070923,0.044553399085998535,0.04952192306518555,0.4681520221830245,-0.8108945825985587,0.19014925747801295,0.2951726613548743
1728404375638136300,1.42113623046875,0.10451000928878784,-1.0333911180496216,0.3246622383594513,0.663029670715332,0.6444655656814575,0.38086187839508057,0.11277294158935547,-0.01658165454864502,-0.07661688327789307,0.46846169610679295,-0.8090938429442706,0.18920382183023662,0.30018779744597085
1728404375648167400,1.43116748046875,-0.06469713151454926,-0.958713173866272,0.19206316769123077,0.6684461236000061,0.6429193019866943,0.3739449083805084,0.06887388229370117,-0.09554070234298706,-0.16367873549461365,0.4691728621702873,-0.8072517663850416,0.18792829838724634,0.3048022955801981
1728404375658197500,1.441197509765625,-0.2162889838218689,-0.9433079957962036,0.19084610044956207,0.6731278300285339,0.6411516070365906,0.36854293942451477,0.02401578426361084,-0.0930863618850708,-0.038357943296432495,0.4691908853756861,-0.805970741870388,0.18623273061390364,0.3091740233499104
1728404375668228400,1.451228271484375,-0.4507278501987457,-1.0159788131713867,0.23981177806854248,0.6781570911407471,0.6384987235069275,0.36389899253845215,0.055088818073272705,-0.09298175573348999,-0.0016247928142547607,0.4684791807127493,-0.80497430540638,0.1842983188476715,0.3139710489699899
1728404375678258400,1.461258544921875,-0.7455049157142639,-0.994541347026825,0.24678952991962433,0.6833754777908325,0.6345942616462708,0.36095452308654785,0.06927961111068726,-0.11585646867752075,0.02747321128845215,0.466538564362454,-0.8045910808236018,0.18196276218414997,0.3191622244899611
1728404375688289300,1.471289306640625,-0.831741213798523,-0.9694729447364807,0.1926700919866562,0.6883680820465088,0.6301828622817993,0.3591925799846649,0.034547626972198486,-0.14077240228652954,0.10829094052314758,0.46385389474742217,-0.804653137178655,0.17924735533196684,0.32441241210306815
1728404375698319400,1.4813193359375,-0.9323294758796692,-1.0001970529556274,0.17192380130290985,0.6930117607116699,0.6257274150848389,0.3580501675605774,0.000011980533599853516,-0.14206957817077637,0.10336029529571533,0.46083523185168473,-0.8049569811350822,0.17626497507403513,0.32955395441984864
1728404375708350500,1.4913505859375,-0.6920215487480164,-0.9561372995376587,0.17872685194015503,0.6976001262664795,0.6215904951095581,0.35634157061576843,-0.006056606769561768,-0.1012810468673706,0.07368159294128418,0.4580830650430638,-0.805070471559231,0.17329837508251167,0.33464775271507635
1728404375718381300,1.50138134765625,-0.698326826095581,-0.8569087982177734,0.15122012794017792,0.7019417881965637,0.6180258393287659,0.3540085256099701,-0.005667924880981445,-0.056120872497558594,-0.018132060766220093,0.45591807833147496,-0.8048840674922194,0.17078027601461776,0.3393148035903805
1728404375728411400,1.511411376953125,-1.1357853412628174,-0.884736955165863,0.11494573950767517,0.7057044506072998,0.6139025688171387,0.3537018299102783,-0.033844709396362305,-0.04088926315307617,0.02589106559753418,0.4527122283174421,-0.8054249985738676,0.16775422837209708,0.3438033796670878
1728404375738442500,1.5214423828125,-0.8928645253181458,-0.9839561581611633,0.1949460357427597,0.7100152373313904,0.6090269684791565,0.35350361466407776,-0.015160441398620605,-0.022830069065093994,0.09632554650306702,0.4489390252105376,-0.8060531556387327,0.16440840521961003,0.34885820515079985
1728404375748472600,1.53147265625,-0.7895058989524841,-0.971349835395813,0.15391896665096283,0.7145611047744751,0.6049812436103821,0.3512837588787079,0.0347217321395874,-0.05392521619796753,-0.059230536222457886,0.44625829507063197,-0.8059412177295758,0.1615569082195604,0.3538526758536304
1728404375758503400,1.54150341796875,-1.2265223264694214,-0.9412455558776855,0.1927044540643692,0.7189087867736816,0.6002467274665833,0.3505343198776245,-0.014715611934661865,-0.014293909072875977,-0.010202258825302124,0.4426242789214203,-0.80636665468443,0.15824027351729597,0.3589104193725511
1728404375768533200,1.551533203125,-1.0127956867218018,-0.8727154731750488,0.30228662490844727,0.723633885383606,0.5942873954772949,0.3509649336338043,-0.011582493782043457,0.07017171382904053,0.08461245894432068,0.43815714918049475,-0.8070960516492253,0.1551722821515762,0.3640546668635909
1728404375778564400,1.561564453125,-0.8141579627990723,-0.8096587657928467,0.2193397879600525,0.7281726002693176,0.5892464518547058,0.3500763773918152,0.00031250715255737305,0.014574408531188965,-0.08626723289489746,0.4347502621512135,-0.8072739169610189,0.15279726720218142,0.3687195184642074
1728404375788595500,1.571595458984375,-0.9601324796676636,-0.7519422173500061,0.13584303855895996,0.7319294214248657,0.5848862528800964,0.34955334663391113,-0.04490238428115845,-0.0049149394035339355,-0.07211801409721375,0.43144718213243083,-0.807607822507219,0.1501541979239286,0.3729298852626718
1728404375798625300,1.581625244140625,-0.9798914194107056,-0.6115579605102539,0.1379282921552658,0.7351348400115967,0.5804466605186462,0.3502262532711029,-0.036389172077178955,0.02998119592666626,0.017052769660949707,0.4277354419834529,-0.8083254297560487,0.1473876536329963,0.3767350317815631
1728404375808656400,1.591656494140625,-0.9933608770370483,-0.4401581883430481,0.10775520652532578,0.7377012968063354,0.5760674476623535,0.3520558476448059,-0.0017850995063781738,0.012403011322021484,0.017801910638809204,0.42391291174876494,-0.8093329898279771,0.14494149041486465,0.37982891228988835
1728404375818686200,1.601686279296875,-0.7599274516105652,-0.5062209367752075,0.08330418914556503,0.7398533821105957,0.5721596479415894,0.35390689969062805,0.011779248714447021,0.021666526794433594,0.10535213351249695,0.4203691425805857,-0.8103187138798837,0.14260798847983605,0.38253921511307637
1728404375828717300,1.61171728515625,-0.4264783561229706,-0.610494077205658,0.09865199029445648,0.7423884272575378,0.569481372833252,0.35291725397109985,0.060666441917419434,0.06207996606826782,0.09414997696876526,0.41828967176650306,-0.8103523776135678,0.14066858270064017,0.38545452776730277
1728404375838747100,1.6217470703125,-0.3587380647659302,-0.5261952877044678,0.15498210489749908,0.7451402544975281,0.5671283006668091,0.3509010970592499,0.08376294374465942,0.10438048839569092,-0.019999027252197266,0.41683207883686335,-0.8099810827190943,0.13921636623796857,0.3883304005991496
1728404375848778200,1.6317783203125,-0.1748976707458496,-0.43063998222351074,0.15659171342849731,0.7477284073829651,0.564948320388794,0.3489059507846832,0.05091655254364014,0.1234060525894165,0.04109343886375427,0.415728827181876,-0.809514245187202,0.13834615138191603,0.3907895677550269
1728404375858809300,1.641809326171875,0.11898767948150635,-0.4046556353569031,0.08344081044197083,0.7498688101768494,0.5639266967773438,0.3459526002407074,0.004891872406005859,0.07381433248519897,0.05723032355308533,0.41566138487863535,-0.8086730177732279,0.13792843362246876,0.3927457527094374
1728404375868839200,1.651839111328125,0.1856844276189804,-0.4007194936275482,0.041073914617300034,0.7515904307365417,0.5640891194343567,0.34192898869514465,-0.022662758827209473,0.018277764320373535,0.044911861419677734,0.41653290478291916,-0.8074723199911061,0.13766968742507252,0.3943803869923397
1728404375878870300,1.661870361328125,-0.00503719225525856,-0.3760894536972046,0.057394832372665405,0.7531874775886536,0.5640638470649719,0.3384385108947754,-0.012617409229278564,0.007133662700653076,0.05342245101928711,0.41709494789480034,-0.8064664286305362,0.13722665884063398,0.39599565059267305
1728404375888900400,1.671900390625,-0.10557844489812851,-0.3101959228515625,0.07248802483081818,0.7547168135643005,0.5633435845375061,0.3362240195274353,0.012846052646636963,0.0015825629234313965,0.04260587692260742,0.4169262217929848,-0.8058805392077337,0.13663295895388713,0.3975682737231062
1728404375898931200,1.68193115234375,-0.08641660213470459,-0.24995148181915283,0.08718547970056534,0.7561081051826477,0.5623888969421387,0.33469295501708984,0.020427048206329346,-0.03597593307495117,0.002907782793045044,0.4165466559024646,-0.8054819224671055,0.13618129852320354,0.3989266242197524
1728404375908961300,1.691961181640625,-0.04314742982387543,-0.25695428252220154,0.08068949729204178,0.7574207186698914,0.561529278755188,0.33316487073898315,0.017924189567565918,-0.06740385293960571,-0.021031111478805542,0.4162927693787679,-0.8050572212220479,0.13588710183185343,0.4001473980988228
1728404375918992400,1.701992431640625,-0.12588565051555634,-0.28382205963134766,0.06596514582633972,0.758741021156311,0.5607241988182068,0.3315126597881317,0.011003971099853516,-0.04485505819320679,-0.017242640256881714,0.4160235488978158,-0.8046175597966513,0.13545079970607865,0.40145753872199724
1728404375929022200,1.712022216796875,-0.13099119067192078,-0.21861696243286133,0.07001981139183044,0.7599724531173706,0.5597268342971802,0.3303752839565277,0.0073004961013793945,0.020000338554382324,-0.021888375282287598,0.415480312715293,-0.8043555349594466,0.1349066979986681,0.40272631426048927
1728404375939053300,1.72205322265625,0.034367870539426804,-0.13911287486553192,0.0683063343167305,0.760963499546051,0.5590238571166992,0.32928258180618286,0.004295289516448975,0.04894733428955078,-0.07972514629364014,0.41525879142715605,-0.8040477120600917,0.13471661461274959,0.4036321409892412
1728404375949084200,1.732084228515625,0.12716810405254364,-0.0476258248090744,0.03142235055565834,0.7615448832511902,0.5589332580566406,0.32808995246887207,0.0070098042488098145,0.046413421630859375,-0.14080357551574707,0.4155798323982596,-0.8036434051322572,0.13491574157843633,0.40404011259880873
1728404375959114200,1.7421142578125,0.042056284844875336,-0.050379589200019836,-0.015861274674534798,0.7617247700691223,0.5592265725135803,0.3271716237068176,0.013757526874542236,0.05304765701293945,-0.11476930975914001,0.41600777265956185,-0.8033360131322023,0.13504467080309623,0.40416804706444986
1728404375969145300,1.752145263671875,-0.1746603101491928,-0.10160841792821884,0.008455516770482063,0.7619076371192932,0.5590835809707642,0.32698962092399597,0.03624904155731201,0.07591086626052856,-0.04204705357551575,0.4158063306604852,-0.803334968209686,0.13471356783091246,0.40448763132706345
1728404375979175400,1.762175537109375,-0.19448427855968475,-0.1540866494178772,0.08698654174804688,0.7626199126243591,0.5580232739448547,0.3271403908729553,0.0783071517944336,0.09134495258331299,-0.024497658014297485,0.41496504822761104,-0.8034629553290403,0.1342291803605011,0.40525768215200386
1728404375989206300,1.772206298828125,-0.02461988292634487,-0.14374558627605438,0.11608903855085373,0.7637181282043457,0.5568497180938721,0.32657748460769653,0.10455268621444702,0.06996595859527588,-0.1120542585849762,0.4144068629912835,-0.8033079696110191,0.13410835730010803,0.40617503821549394
1728404375999237400,1.7822373046875,0.039938803762197495,-0.08974110335111618,0.10098545253276825,0.7647057175636292,0.5560595989227295,0.32561153173446655,0.08214181661605835,0.06753659248352051,-0.19391298294067383,0.41432940839015664,-0.8029658625984318,0.1343562086282094,0.4068481095788031
1728404376009267500,1.792267333984375,0.04525979980826378,-0.06381310522556305,0.09010829776525497,0.7654861807823181,0.5554628372192383,0.32479536533355713,0.040025293827056885,0.11091899871826172,-0.15900862216949463,0.4143397236857886,-0.8026641153424986,0.13464028957294694,0.4073388386797809
1728404376019298300,1.80229833984375,0.21488958597183228,0.006433787290006876,0.11428607255220413,0.7661218643188477,0.555281400680542,0.3236039876937866,0.005652308464050293,0.14276230335235596,-0.1511949896812439,0.4147819501014734,-0.8022035124319673,0.1351721927914872,0.407619688386879
1728404376029328400,1.812328369140625,0.46630075573921204,0.08607082813978195,0.13919009268283844,0.766737163066864,0.5555844306945801,0.321620911359787,-0.024580180644989014,0.12649869918823242,-0.20858383178710938,0.416027959635744,-0.8013732992798775,0.1364231815137293,0.4075662704967952
1728404376039359200,1.822359130859375,0.6846271753311157,0.16992869973182678,0.11724670976400375,0.7670952081680298,0.556643545627594,0.3189244866371155,-0.06308525800704956,0.08776557445526123,-0.19824281334877014,0.418181071408458,-0.8002022264967061,0.13834247658001775,0.4070163772501315
1728404376049389300,1.832389404296875,0.7165358662605286,0.2829876244068146,0.06685624271631241,0.7668807506561279,0.5582090616226196,0.31669607758522034,-0.09160315990447998,0.0627015233039856,-0.16806021332740784,0.42070215884791456,-0.7991007535815611,0.14066281894610952,0.40578515190438363
1728404376059420400,1.84242041015625,0.5176498293876648,0.29660722613334656,0.0484069287776947,0.7662364840507507,0.559786319732666,0.31546908617019653,-0.10270810127258301,0.07330071926116943,-0.0660490095615387,0.4228886518548334,-0.7983428439019554,0.1427699256655229,0.4042655024664571
1728404376069450500,1.852450439453125,0.41804173588752747,0.26825734972953796,0.08402936905622482,0.7657172083854675,0.5607003569602966,0.31510648131370544,-0.0842292308807373,0.08390706777572632,0.03953823447227478,0.42435454908383696,-0.7979090738336574,0.1445488001891503,0.4029514923692414
1728404376079481300,1.8624814453125,0.4773416221141815,0.23326171934604645,0.13200195133686066,0.7655313611030579,0.5612877011299133,0.3145122528076172,-0.04632359743118286,0.03859633207321167,0.0040302276611328125,0.4257562532416269,-0.7973781381685185,0.1464385067070955,0.40184018461807014
1728404376089512400,1.872512451171875,0.4330037236213684,0.20718856155872345,0.17811991274356842,0.7657318711280823,0.5615259408950806,0.3135974109172821,-0.032623350620269775,-0.010912597179412842,-0.04865908622741699,0.42711279056125573,-0.79671826085228,0.1484544289639908,0.4009687692989298
1728404376099542300,1.882542236328125,0.3490758240222931,0.22096338868141174,0.19600890576839447,0.7661371231079102,0.5613029599189758,0.31300580501556396,-0.03337973356246948,-0.016259074211120605,-0.03315964341163635,0.4281392200464401,-0.7961586517213831,0.15044703744853608,0.40024220375215036
1728404376109573400,1.892573486328125,0.2434455305337906,0.29392391443252563,0.19456040859222412,0.7664363980293274,0.5607291460037231,0.3133014142513275,-0.04489415884017944,-0.00268477201461792,-0.04927864670753479,0.4287307508374636,-0.7958873367365746,0.15236157180854637,0.39942348673851
1728404376119603500,1.902603515625,0.25945207476615906,0.35253259539604187,0.1775963306427002,0.7664490342140198,0.560063898563385,0.3144588768482208,-0.05273449420928955,0.00707477331161499,-0.05103111267089844,0.4290695571480329,-0.7958807258310352,0.15428319710384839,0.3983339438426713
1728404376129634300,1.91263427734375,0.335897833108902,0.3721387982368469,0.16135825216770172,0.766252338886261,0.559731662273407,0.3155282437801361,-0.056596457958221436,0.005041956901550293,-0.03232511878013611,0.4296641504555567,-0.7958163274838401,0.15633455209196837,0.3970197793196007
1728404376139664400,1.922664306640625,0.2695412337779999,0.4166854918003082,0.16650693118572235,0.765921413898468,0.5594509840011597,0.3168264329433441,-0.05742532014846802,0.021283268928527832,-0.032356858253479004,0.4302616403695145,-0.7958041320445455,0.15845817343498986,0.3955524059263623
1728404376149695500,1.932695556640625,0.24485906958580017,0.39063310623168945,0.1421549916267395,0.765508234500885,0.5590257048606873,0.31857070326805115,-0.061238884925842285,0.049113333225250244,0.009020209312438965,0.43060921962808757,-0.7959515193363119,0.16045723507413037,0.3940689247222273
1728404376159726300,1.942726318359375,0.35210156440734863,0.4831979274749756,0.09307505935430527,0.7648113369941711,0.5590652227401733,0.3201711177825928,-0.0694989562034607,0.045671045780181885,-0.02457788586616516,0.4312045245909427,-0.7960574031454161,0.1624135535202732,0.39239908521834166
1728404376169756400,1.95275634765625,0.46633201837539673,0.5448911786079407,0.05772878974676132,0.7635250091552734,0.5598463416099548,0.3218717575073242,-0.07164585590362549,0.03451395034790039,-0.1031980812549591,0.4322933417007594,-0.7961287527536318,0.16466598425320633,0.39011090792236247
1728404376179787500,1.96278759765625,0.3506214916706085,0.5193177461624146,0.02673012763261795,0.7620264887809753,0.5609085559844971,0.3235699236392975,-0.08673340082168579,0.046238720417022705,0.00234261155128479,0.43346892737422765,-0.7962128691542806,0.16682336429527192,0.38771100089701
1728404376189817300,1.9728173828125,0.14928200840950012,0.5125703811645508,0.00486823869869113,0.7604300379753113,0.5616026520729065,0.3261112570762634,-0.07914042472839355,0.08402717113494873,0.05123850703239441,0.4339940099627545,-0.7966619647134902,0.16847951253111282,0.3854783241586644
1728404376199848400,1.982848388671875,0.17700012028217316,0.5486921072006226,-0.006429423112422228,0.7586957216262817,0.5620787143707275,0.32931482791900635,-0.056989848613739014,0.09923720359802246,-0.0031277239322662354,0.43411983786926195,-0.7973661239343489,0.16989609370179012,0.3832525403710438
1728404376209878500,1.99287841796875,0.38962769508361816,0.6480005979537964,0.002956355456262827,0.7567051649093628,0.5630436539649963,0.3322334289550781,-0.05110830068588257,0.06323796510696411,-0.08810809254646301,0.4347451365916334,-0.7978925175274625,0.1717097847474869,0.38063095359917554
1728404376219909400,2.002909423828125,0.5163798928260803,0.761415958404541,0.01740613393485546,0.7543945908546448,0.5645297169685364,0.33495497703552246,-0.05384838581085205,0.031188547611236572,-0.14203816652297974,0.4359774025759214,-0.7982109269406441,0.1741746558631863,0.3774203781637696
1728404376229940500,2.0129404296875,0.5092042684555054,0.8283752799034119,0.001259921584278345,0.751759946346283,0.5661942362785339,0.338054895401001,-0.05867522954940796,0.034803688526153564,-0.07241463661193848,0.43732309784465057,-0.7985741734934165,0.17693711665769601,0.3737928055849945
1728404376239970600,2.022970458984375,0.5319862961769104,0.8806735277175903,-0.035228047519922256,0.7487633228302002,0.5680570006370544,0.34156227111816406,-0.054442644119262695,0.04668909311294556,0.008810043334960938,0.43864435543114877,-0.7990525156069563,0.17971146265469184,0.3698783647749943
1728404376250001400,2.03300146484375,0.6507206559181213,0.9929731488227844,-0.07504470646381378,0.7452137470245361,0.5705190300941467,0.3452024757862091,-0.029759585857391357,0.03440046310424805,-0.0006437003612518311,0.4402605701218204,-0.7995316373921628,0.1826209120437991,0.3654715777149886
1728404376260031200,2.04303125,0.7421098351478577,1.0578078031539917,-0.09642429649829865,0.7411203980445862,0.5736188292503357,0.34885814785957336,0.0031117796897888184,0.0032854676246643066,-0.04012703895568848,0.4422924263876768,-0.7999315572182448,0.18584555930469238,0.3604834843931057
1728404376270062300,2.053062255859375,0.6564705967903137,1.0972273349761963,-0.10747188329696655,0.7367076873779297,0.5768892765045166,0.35278940200805664,0.04779237508773804,-0.018020927906036377,-0.03105786442756653,0.4443130298103687,-0.8003934418708291,0.18911646294764795,0.3552339764408634
1728404376280092200,2.063092041015625,0.41254886984825134,1.0198519229888916,-0.050499677658081055,0.7324582934379578,0.5794095993041992,0.3574765622615814,0.09755885601043701,-0.012743949890136719,0.02806726098060608,0.4456001782728861,-0.8011488099734781,0.19209076300074768,0.35028881889181734
1728404376290123300,2.073123291015625,0.36259782314300537,0.9532877802848816,0.051733747124671936,0.7289066910743713,0.5807527303695679,0.3625207543373108,0.13968461751937866,-0.030169904232025146,0.09696710109710693,0.44614053010509463,-0.8020345084241005,0.1949385027017872,0.3459743542797782
1728404376300153300,2.0831533203125,0.47231346368789673,0.9200066328048706,0.10868944227695465,0.7259830236434937,0.5816589593887329,0.36690759658813477,0.16525226831436157,-0.10607314109802246,0.019460171461105347,0.44675883034257635,-0.8026246890655256,0.19810957593984754,0.34198337745997126
1728404376310184200,2.09318408203125,0.4615026116371155,0.9526000022888184,0.09855131804943085,0.7231400012969971,0.582646369934082,0.37093424797058105,0.1488845944404602,-0.17253577709197998,-0.03670570254325867,0.44755553955760224,-0.8030473030611841,0.20145012604229054,0.33797494318893684
1728404376320215300,2.10321533203125,0.35798582434654236,0.9448549747467041,0.08193772286176682,0.720104455947876,0.5835496783256531,0.3753920793533325,0.10676926374435425,-0.17380547523498535,0.05995640158653259,0.4481030201719805,-0.8036291902547694,0.20463665514372487,0.333927554633756
1728404376330245400,2.113245361328125,0.24325203895568848,0.9504185914993286,0.07713072001934052,0.7169651985168457,0.5841299295425415,0.38046401739120483,0.08222907781600952,-0.13648289442062378,0.14387363195419312,0.4482060683263304,-0.804451525601159,0.2075807153086134,0.3299685107914679
1728404376340276200,2.123276123046875,0.2069532871246338,0.9977039098739624,0.10452638566493988,0.7137792110443115,0.5842956900596619,0.3861578702926636,0.08582711219787598,-0.08852231502532959,0.12069332599639893,0.44790070893710404,-0.8054698242510934,0.21046922736641713,0.32604610055828886
1728404376350306300,2.133306396484375,0.3621727228164673,1.0586825609207153,0.0960756465792656,0.7103410959243774,0.584636926651001,0.39193809032440186,0.10032790899276733,-0.0676538348197937,0.05924910306930542,0.44774828143526374,-0.8064224931072373,0.2136628460933625,0.32179580573001926
1728404376360337200,2.143337158203125,0.4084472060203552,0.9610554575920105,0.08385360240936279,0.7068314552307129,0.5855979919433594,0.3968178927898407,0.10096889734268188,-0.0642203688621521,0.01881629228591919,0.44813562958877223,-0.8070546589860838,0.21696019676136402,0.3174358959286903
1728404376370367200,2.1533671875,0.2623102366924286,0.8387172818183899,0.09302366524934769,0.7037679553031921,0.5863209962844849,0.4011714458465576,0.09972941875457764,-0.03692829608917236,0.07415515184402466,0.44837598928433675,-0.8076194720850622,0.2198556764420818,0.31364518733146
1728404376380398300,2.1633984375,0.20417913794517517,0.751474916934967,0.09035517275333405,0.7011065483093262,0.5865676403045654,0.40544775128364563,0.09553951025009155,-0.029530346393585205,0.09403342008590698,0.44825743690955405,-0.80825387578087,0.22237255160394648,0.3103890237961593
1728404376390429200,2.17342919921875,0.21408022940158844,0.6860224008560181,0.0927853137254715,0.6986948847770691,0.5867942571640015,0.40926507115364075,0.06392407417297363,-0.06312793493270874,0.05161139369010925,0.4481603045451318,-0.8087979073987333,0.22467416793522027,0.30744070854789873
1728404376400459300,2.183459228515625,0.2073829174041748,0.6448423266410828,0.11928589642047882,0.6965951323509216,0.5869165062904358,0.412654846906662,0.014128684997558594,-0.08252203464508057,0.02875131368637085,0.44809917811050287,-0.8092215594505499,0.22690941767129155,0.30476159678603704
1728404376410490400,2.193490478515625,0.23534585535526276,0.6528816223144531,0.1286218762397766,0.6946509480476379,0.5869579911231995,0.4158608913421631,-0.024988532066345215,-0.07533085346221924,-0.022992879152297974,0.4480659547214925,-0.80956450958407,0.22920677668068076,0.30216951088261035
1728404376420520700,2.203520751953125,0.2921677231788635,0.6956493258476257,0.09813293814659119,0.6925005316734314,0.587249755859375,0.4190232455730438,-0.05877262353897095,-0.055908262729644775,-0.10644707083702087,0.4481698350839386,-0.809865205585374,0.2315814734112795,0.2993861782461255
1728404376430551800,2.2135517578125,0.39145755767822266,0.7371802926063538,0.059677958488464355,0.6899494528770447,0.5881320238113403,0.4219836890697479,-0.07027482986450195,-0.028561770915985107,-0.1688404679298401,0.4485990257618443,-0.8100749153440332,0.23403093935319952,0.2962549159421543
1728404376440582000,2.223581787109375,0.40333306789398193,0.6991323828697205,0.04706895351409912,0.6871758103370667,0.5895147323608398,0.4245723783969879,-0.050594449043273926,0.005059182643890381,-0.21242943406105042,0.4493271718757963,-0.8101665465588473,0.23646639376082199,0.2929485538374514
1728404376450612700,2.23361279296875,0.3727740943431854,0.6178969144821167,0.058290183544158936,0.6846700310707092,0.59079509973526,0.426835298538208,-0.004478931427001953,0.041788578033447266,-0.18270987272262573,0.4500287887565784,-0.8101993025469256,0.23873571201047228,0.28992505038507566
1728404376460643800,2.243643798828125,0.3534192442893982,0.5318273901939392,0.05969127267599106,0.6825484037399292,0.5919619798660278,0.4286125898361206,0.0402909517288208,0.04378020763397217,-0.1219719648361206,0.4507354304928512,-0.8101377107433123,0.24079699003513827,0.28728259112537774
1728404376470674000,2.253673828125,0.3341238498687744,0.5332100987434387,0.09460265189409256,0.6807424426078796,0.5929699540138245,0.4300885498523712,0.06739592552185059,0.013002276420593262,-0.056965410709381104,0.45141629296958247,-0.8100083863406106,0.242756426188346,0.2849193033640011
1728404376480704800,2.263704833984375,0.28026771545410156,0.317158579826355,0.21189919114112854,0.6797023415565491,0.5932862162590027,0.4312957227230072,0.06724584102630615,-0.002938985824584961,0.10325008630752563,0.451915224258015,-0.8097597131670606,0.24482046683705505,0.28306308485339926
1728404376490734800,2.27373486328125,0.14926496148109436,0.2570720613002777,0.22936339676380157,0.6799547076225281,0.5926553010940552,0.4317648112773895,0.024665474891662598,-0.015247583389282227,0.3280006945133209,0.45216202176395837,-0.8093408466295574,0.2466775251435536,0.2822533139970529
1728404376500765700,2.283765625,0.021740291267633438,0.20119714736938477,0.13851524889469147,0.6799830198287964,0.5917505621910095,0.43296018242836,-0.03511607646942139,-0.010161817073822021,0.2749866247177124,0.45192007555147395,-0.8092810548689702,0.24808116425010798,0.2815815899926614
1728404376510795800,2.293795654296875,0.08017750084400177,0.2143009603023529,0.07687452435493469,0.6797672510147095,0.5912002325057983,0.43404921889305115,-0.09820902347564697,0.017640650272369385,0.25325238704681396,0.4516879075808185,-0.8093344113586625,0.24900285360957528,0.2809865112893673
1728404376520827000,2.303826904296875,0.12435641884803772,0.24127046763896942,0.05926516652107239,0.67911297082901,0.5912308096885681,0.4350306987762451,-0.127263605594635,0.036897242069244385,0.18870282173156738,0.45174033812348074,-0.809341346518147,0.24996386110104316,0.2800273701907925
1728404376530857700,2.313857666015625,0.06406191736459732,0.16602711379528046,0.035843465477228165,0.6785523295402527,0.5912830829620361,0.43583402037620544,-0.1335998773574829,0.07590752840042114,0.12687963247299194,0.4517966636957793,-0.8093430200718892,0.2507606293765419,0.2792182421055903
1728404376540887800,2.3238876953125,0.20500385761260986,0.2221314013004303,-0.03206607699394226,0.677741289138794,0.5917873978614807,0.4364111125469208,-0.13710707426071167,0.09331703186035156,0.08054143190383911,0.452032060769055,-0.8093401312720958,0.2513445921480292,0.278319100077873
1728404376550919000,2.3339189453125,0.4746558368206024,0.2253844439983368,-0.004484250210225582,0.6765445470809937,0.5934658646583557,0.4359884560108185,-0.13333165645599365,0.06136506795883179,-0.056471824645996094,0.45316307334861794,-0.8089229928140902,0.2522653757373968,0.27685566806763195
1728404376560948700,2.34394873046875,0.48591840267181396,0.12363071739673615,0.08503684401512146,0.676042914390564,0.5953785181045532,0.43415534496307373,-0.13495081663131714,0.027943134307861328,0.07471010088920593,0.4549284414471525,-0.8079614446691482,0.2535270849477127,0.27561310645973636
1728404376570979800,2.353979736328125,0.3085862398147583,0.02153604105114937,0.06705890595912933,0.676267683506012,0.5965204834938049,0.43223288655281067,-0.14065372943878174,0.025534510612487793,0.25346657633781433,0.45633266668556083,-0.8070365934413811,0.2545748971714386,0.275034598925771
1728404376581010000,2.364010009765625,0.2781497538089752,0.11069701611995697,-0.10986393690109253,0.675946056842804,0.597836434841156,0.43091633915901184,-0.1537443995475769,0.0019713640213012695,0.18300586938858032,0.4574178496064354,-0.8064887174505401,0.2550178674966994,0.27442825311610913
1728404376591040800,2.374040771484375,0.3154689073562622,0.13099883496761322,-0.2279847115278244,0.6742837429046631,0.600368857383728,0.4299987852573395,-0.1488930583000183,-0.05747640132904053,-0.033331215381622314,0.4587233960882367,-0.8062045188277689,0.25501700465768823,0.273081583787761
1728404376601070600,2.384070556640625,0.22978557646274567,0.02096756175160408,-0.1988409459590912,0.6725971102714539,0.6030650734901428,0.4288651943206787,-0.08252453804016113,-0.0724102258682251,-0.06921559572219849,0.46004758689486325,-0.8059575815749879,0.25468604245406223,0.27188883829141414
1728404376611102000,2.39410205078125,0.1277010142803192,-0.17963771522045135,-0.11657962948083878,0.6719680428504944,0.6048683524131775,0.42730945348739624,0.01421976089477539,-0.04503864049911499,-0.05990833044052124,0.4610583393421001,-0.8056549212713605,0.2541158809919925,0.2716073215156927
1728404376621132800,2.4041328125,0.10618433356285095,-0.33877235651016235,-0.08240754157304764,0.6725005507469177,0.605981707572937,0.4248875677585602,0.06721508502960205,-0.033654987812042236,-0.11080056428909302,0.46196422383347524,-0.8051664445817552,0.25328004325900133,0.27229642256100406
1728404376631162600,2.41416259765625,0.18558061122894287,-0.46599555015563965,-0.05228240042924881,0.673808753490448,0.6070447564125061,0.4212818741798401,0.055286705493927,-0.048435747623443604,-0.10672199726104736,0.4631449847796781,-0.8043680239735718,0.25225586879035644,0.27359779974230936
1728404376641194000,2.424194091796875,0.21722890436649323,-0.5415514707565308,-0.04132189229130745,0.6756377816200256,0.6082509756088257,0.41658633947372437,0.02080380916595459,-0.07509368658065796,-0.07614758610725403,0.4646980004691185,-0.8032420272992006,0.25118800840277844,0.2752499583671691
1728404376651223600,2.4342236328125,0.003655098844319582,-0.5390496850013733,-0.09778330475091934,0.6775333881378174,0.6091883778572083,0.41211390495300293,-0.030911743640899658,-0.06995809078216553,-0.017277538776397705,0.46596404216136783,-0.8022788779464862,0.24981104506097265,0.27716512425801476
1728404376661254700,2.444254638671875,-0.1530572772026062,-0.4118672013282776,-0.22558414936065674,0.6785263419151306,0.6099148392677307,0.4093967080116272,-0.07211160659790039,-0.03163731098175049,0.03904372453689575,0.46642978054705025,-0.8020179447497827,0.24792252092809655,0.2788275934631459
1728404376671284700,2.45428466796875,-0.19662339985370636,-0.30733469128608704,-0.3152247965335846,0.6782751083374023,0.6110848188400269,0.4080667793750763,-0.07034969329833984,-0.01202470064163208,0.01100069284439087,0.4665490206502098,-0.8022783142241011,0.24572932706085657,0.27981908943597594
1728404376681315600,2.464315673828125,-0.16135862469673157,-0.33548030257225037,-0.28284314274787903,0.6776735186576843,0.6123813390731812,0.40712088346481323,-0.009048700332641602,0.005034983158111572,0.014494597911834717,0.4665898933303553,-0.8026638527110277,0.24349781276028246,0.28059460588285423
1728404376691346700,2.4743466796875,0.025184359401464462,-0.5026160478591919,-0.20073126256465912,0.6778668165206909,0.613731324672699,0.40475964546203613,0.0718126893043518,0.00888824462890625,0.06858322024345398,0.46714486796130866,-0.8025427155711673,0.24146430041467334,0.28177267134234557
1728404376701376800,2.484376708984375,0.11075731366872787,-0.6858508586883545,-0.13535279035568237,0.6792618036270142,0.6151807904243469,0.4001944959163666,0.11186051368713379,-0.005958497524261475,0.07577282190322876,0.4684202626236107,-0.8017085391997909,0.2395008655092403,0.28369891782951323
1728404376711407600,2.49440771484375,0.09434531629085541,-0.697108805179596,-0.10697760432958603,0.6813279390335083,0.6164122819900513,0.3947506844997406,0.0967940092086792,-0.0046263933181762695,0.09992396831512451,0.46985221917512954,-0.8006005192763425,0.2375166336574839,0.28611804980749145
1728404376721437700,2.504437744140625,0.06908523291349411,-0.581281304359436,-0.10739385336637497,0.6831990480422974,0.6174495220184326,0.3898654282093048,0.05322062969207764,-0.018526852130889893,0.09376192092895508,0.47108831650658345,-0.7996114543619376,0.23569945835979614,0.288345375135028
1728404376731468800,2.51446875,0.00840671081095934,-0.44396576285362244,-0.1163167729973793,0.68449866771698,0.6183838248252869,0.3860867917537689,0.01606285572052002,-0.059484899044036865,0.06572592258453369,0.47202370539004523,-0.7989007232544703,0.23409620834659967,0.29008656197900984
1728404376741498600,2.52449853515625,-0.05727909505367279,-0.32993239164352417,-0.11307837069034576,0.685234010219574,0.6190899610519409,0.38364312052726746,0.014183104038238525,-0.08979308605194092,0.041436195373535156,0.47253216466489906,-0.7985487691774918,0.23268309532951603,0.29136198734845725
1728404376751529700,2.53452978515625,-0.0886165127158165,-0.339580237865448,-0.08943989127874374,0.6858588457107544,0.619505763053894,0.3818509578704834,0.03795701265335083,-0.10458272695541382,0.046203821897506714,0.4727587214861462,-0.7983688570250569,0.2313712204488294,0.2925297620951177
1728404376761560600,2.544560546875,-0.10530660301446915,-0.39592936635017395,-0.02069837413728237,0.6869090795516968,0.619507372379303,0.379955917596817,0.06664621829986572,-0.12168943881988525,0.05014359951019287,0.4728696286590853,-0.7981280011033242,0.23015136892348023,0.29396654827498814
1728404376771590700,2.554590576171875,-0.14671529829502106,-0.46894896030426025,0.019643455743789673,0.6885761618614197,0.619028627872467,0.37771159410476685,0.0833505392074585,-0.14536535739898682,0.008625537157058716,0.4728778611930117,-0.7977721004792688,0.22894425470563246,0.295855686506609
1728404376781621800,2.564621826171875,-0.20421920716762543,-0.49465784430503845,0.03822033479809761,0.6905919909477234,0.6181322932243347,0.37549296021461487,0.06891417503356934,-0.159163236618042,-0.021412789821624756,0.4726649615339191,-0.7974436990747672,0.2276620942968045,0.29806255820958666
1728404376791651800,2.57465185546875,-0.25171107053756714,-0.46914610266685486,0.03738516941666603,0.6926559805870056,0.6170246601104736,0.3735085427761078,0.03036653995513916,-0.15675848722457886,-0.009830564260482788,0.47226583917963566,-0.7972008171315759,0.22632970458030086,0.30035118141058426
1728404376801682700,2.5846826171875,-0.33201509714126587,-0.3643117845058441,0.017987236380577087,0.6943825483322144,0.6157488822937012,0.3724059462547302,-0.0029915571212768555,-0.1366533637046814,-0.014358490705490112,0.47153210704944876,-0.7972298086081865,0.22500580154211758,0.3024144643407905
1728404376811712800,2.594712646484375,-0.35078561305999756,-0.2661282420158386,0.01817498914897442,0.6956570744514465,0.6143338680267334,0.3723641037940979,-0.008324980735778809,-0.10252362489700317,-0.024021178483963013,0.4704669124637801,-0.7975570118708386,0.22379647315069598,0.3041032947816952
1728404376821743600,2.60474365234375,-0.29683470726013184,-0.21096298098564148,0.05992882698774338,0.6967465281486511,0.6128711104393005,0.3727376461029053,0.021438896656036377,-0.07403749227523804,-0.06611227989196777,0.4693768578423476,-0.7979243872037233,0.22290241998044066,0.30547758907848227
1728404376831773700,2.614773681640625,-0.3024401068687439,-0.24028810858726501,0.12941975891590118,0.6981489062309265,0.6111043691635132,0.37301403284072876,0.061845600605010986,-0.04242461919784546,-0.08396688103675842,0.46829405871140317,-0.7981762870263464,0.22230975506434023,0.30690977070436226
1728404376841804800,2.6248046875,-0.28649064898490906,-0.2829694151878357,0.189376562833786,0.7001316547393799,0.6088487505912781,0.3729863166809082,0.07953137159347534,-0.0008318424224853516,-0.04394581913948059,0.46714132705139044,-0.7982885927886161,0.2218749284522938,0.3086839431911983
1728404376851835600,2.634835693359375,-0.22988301515579224,-0.25517961382865906,0.23104704916477203,0.7024239897727966,0.6063988208770752,0.3726671040058136,0.06512349843978882,0.016586899757385254,-0.0528276264667511,0.46608093620043806,-0.7982390669433689,0.22169335964469597,0.31053974980596055
1728404376861865700,2.64486572265625,-0.1959705948829651,-0.23506979644298553,0.24135906994342804,0.704791247844696,0.603933572769165,0.3722009062767029,0.016796886920928955,0.02333998680114746,-0.06592655181884766,0.46513933402173296,-0.7980817161419062,0.22173414532740468,0.31232182879089765
1728404376871896800,2.654896728515625,-0.12203218787908554,-0.1174001693725586,0.23908579349517822,0.7069321870803833,0.6016005873680115,0.37191885709762573,-0.0353318452835083,0.055091917514801025,-0.06930661201477051,0.464299567733751,-0.7979124363655483,0.22202516737386094,0.31379372838201985
1728404376881926700,2.6649267578125,-0.043431054800748825,-0.022347688674926758,0.19952426850795746,0.7085210680961609,0.5997440218925476,0.37189438939094543,-0.07459449768066406,0.10537993907928467,-0.10985508561134338,0.4637236504404376,-0.7977340096778816,0.2226379152232574,0.31466385568569843
1728404376891957800,2.674957763671875,-0.0601051039993763,0.06468095630407333,0.14356885850429535,0.709502637386322,0.5983201861381531,0.37231579422950745,-0.10014283657073975,0.16310864686965942,-0.10562264919281006,0.4632281655793146,-0.7976837369295483,0.2232902913265027,0.3150583901019052
1728404376901987800,2.68498779296875,0.001046532765030861,0.14742623269557953,0.08385466784238815,0.7097598314285278,0.5973919034004211,0.3733147382736206,-0.10369598865509033,0.21497076749801636,-0.1069267988204956,0.462786515350269,-0.7978147168791809,0.22393981367997165,0.31491470837582125
1728404376912018700,2.695018798828125,0.09718451648950577,0.19090525805950165,0.05951390415430069,0.7095461487770081,0.5970714092254639,0.3742322623729706,-0.09885895252227783,0.22810858488082886,-0.11509230732917786,0.46267787474979205,-0.7978908549750138,0.22469159543403364,0.3143452961517746
1728404376922049800,2.7050498046875,0.1830625981092453,0.22987928986549377,0.04261721298098564,0.7090427279472351,0.5972479581832886,0.3749042749404907,-0.07717633247375488,0.23539358377456665,-0.1307484209537506,0.46292905482866753,-0.7978389387994617,0.22562174363945325,0.3134398477891473
1728404376932079900,2.715079833984375,0.22010131180286407,0.19963829219341278,0.03834151104092598,0.7084637880325317,0.5977433919906616,0.3752087950706482,-0.05892777442932129,0.25665712356567383,-0.1311292052268982,0.4634443884380274,-0.7976567430564826,0.22660122632226926,0.31243366223712166
1728404376942110700,2.72511083984375,0.27724689245224,0.25204649567604065,0.029172513633966446,0.7078434228897095,0.5984123945236206,0.37531307339668274,-0.0529668927192688,0.26354122161865234,-0.09288820624351501,0.4641161352540369,-0.7973929262626293,0.227642387603829,0.31135115641190897
1728404376952140800,2.735140869140625,0.3379206359386444,0.29632368683815,-0.025641733780503273,0.7068396210670471,0.5995475649833679,0.37539350986480713,-0.053061604499816895,0.2375800609588623,-0.0917784571647644,0.4650359683582662,-0.7970915294007243,0.22878342551026024,0.3099108312548521
1728404376962172000,2.745171875,0.35355812311172485,0.35557425022125244,-0.12393927574157715,0.7051746249198914,0.6013811230659485,0.3755921721458435,-0.06528204679489136,0.193525493144989,-0.02023029327392578,0.46616535133713627,-0.7968684861650236,0.22977534203745434,0.30804831736105537
1728404376972201700,2.75520166015625,0.33773601055145264,0.41047531366348267,-0.1973290741443634,0.7027270197868347,0.6038499474525452,0.3762179911136627,-0.06182736158370972,0.15660232305526733,0.06691241264343262,0.4673617099763565,-0.796838082164359,0.23056034602851794,0.3057188747555374
1728404376982232800,2.76523291015625,0.2896372377872467,0.471183717250824,-0.21984370052814484,0.6997962594032288,0.6065025329589844,0.3774125576019287,-0.031201839447021484,0.1246834397315979,0.12595969438552856,0.4684224791627285,-0.7970170316571197,0.23123610618790588,0.30310762754133963
1728404376992263700,2.775263671875,0.3120831549167633,0.4655058681964874,-0.23130115866661072,0.6966230869293213,0.6092050075531006,0.37892717123031616,0.013032734394073486,0.09466767311096191,0.15651899576187134,0.4693958204985793,-0.7973008003053575,0.23189442273479868,0.3003399429871324
1728404377002293800,2.785293701171875,0.39934098720550537,0.4499794840812683,-0.2617940604686737,0.6933677196502686,0.6122675538063049,0.3799596130847931,0.050788044929504395,0.04468423128128052,0.14860481023788452,0.47064228292815097,-0.7974437781626393,0.23251501510022668,0.2975162258451775
1728404377012324900,2.795324951171875,0.45443353056907654,0.4079827666282654,-0.27162060141563416,0.6900739669799805,0.6157903671264648,0.380263090133667,0.08507245779037476,-0.01212221384048462,0.09066888689994812,0.47227336550535626,-0.7973717808722394,0.23308750138538048,0.29466301178842585
1728404377022355000,2.80535498046875,0.4035969078540802,0.3970698118209839,-0.23181487619876862,0.6869556307792664,0.6192082762718201,0.38035884499549866,0.11110943555831909,-0.05445009469985962,0.07517704367637634,0.4739037757766124,-0.7972405195944602,0.23363856345663503,0.291951583178922
1728404377032385800,2.8153857421875,0.36086729168891907,0.38950085639953613,-0.17446982860565186,0.6841932535171509,0.6220358610153198,0.3807240128517151,0.13555461168289185,-0.0929831862449646,0.07694810628890991,0.47524284922702364,-0.7971550167641945,0.23432003844521063,0.28945147476515426
1728404377042415900,2.825415771484375,0.33111056685447693,0.33990544080734253,-0.13970306515693665,0.6818013191223145,0.6244502067565918,0.38106316328048706,0.14061695337295532,-0.15017646551132202,0.06362384557723999,0.4764373106709634,-0.7970365336141432,0.23508369130470877,0.2871863668883965
1728404377052446700,2.83544677734375,0.2042628973722458,0.2659321427345276,-0.10816191136837006,0.6798633933067322,0.6263331174850464,0.3814355432987213,0.12331366539001465,-0.20972222089767456,0.06639477610588074,0.4773390851612945,-0.7969714178236165,0.23569966864374672,0.2853590807784619
1728404377062476800,2.845476806640625,0.10140170156955719,0.2512010931968689,-0.04961897060275078,0.6783876419067383,0.6274344325065613,0.38225188851356506,0.1011229157447815,-0.247780442237854,0.0539206862449646,0.4777361723663037,-0.7970784469085526,0.23620306416279999,0.28397589193153405
1728404377072508000,2.8555078125,0.06388761848211288,0.2341800332069397,0.016660183668136597,0.6773319840431213,0.627882182598114,0.3833869397640228,0.07256126403808594,-0.28191959857940674,0.0062310099601745605,0.4778125090102646,-0.7972429691945279,0.2368483023852715,0.2828458984521921
1728404377082538800,2.865538818359375,-0.08579269051551819,0.2362738996744156,0.07765962183475494,0.6767473220825195,0.6275469064712524,0.38496503233909607,0.032588064670562744,-0.30308395624160767,-0.01991373300552368,0.4774601882901579,-0.7975183657023323,0.23758572431086558,0.282044828660732
1728404377092568600,2.875568603515625,-0.21090692281723022,0.2671215832233429,0.10242728143930435,0.6763492822647095,0.6262989044189453,0.38768765330314636,0.0016292929649353027,-0.29713624715805054,-0.038917481899261475,0.4763935118053194,-0.798142850503132,0.23835230950774056,0.28143476929953665
1728404377102600000,2.885599853515625,-0.26685044169425964,0.2175327092409134,0.10685452073812485,0.6760317087173462,0.6246793866157532,0.39084094762802124,-0.030478179454803467,-0.28285205364227295,-0.02015918493270874,0.47500506192462694,-0.7989329336350213,0.23901178767826775,0.2809798400768156
1728404377112629800,2.895629638671875,-0.34234359860420227,0.22036685049533844,0.15090879797935486,0.6759805679321289,0.6226071119308472,0.39422181248664856,-0.045899391174316406,-0.24438750743865967,-0.008769512176513672,0.4733320663948247,-0.7998172851748413,0.2395896816651484,0.28079515055440407
1728404377122660600,2.90566064453125,-0.3185115456581116,0.2477792501449585,0.18732459843158722,0.6761098504066467,0.620107889175415,0.39792218804359436,-0.027565360069274902,-0.16681498289108276,-0.04367402195930481,0.4714550306775722,-0.8007416014049857,0.2403621954382182,0.2806585445741496
1728404377132690700,2.915690673828125,-0.26796555519104004,0.22684253752231598,0.21605370938777924,0.67641282081604,0.6175839304924011,0.4013180434703827,-0.024770915508270264,-0.09507715702056885,-0.0416225790977478,0.46972271055475,-0.8015150915896039,0.24131426235205447,0.2805382065368994
1728404377142721500,2.925721435546875,-0.227417454123497,0.24795480072498322,0.226230189204216,0.6768328547477722,0.61505526304245,0.40447998046875,-0.026228666305541992,-0.03421425819396973,-0.037460386753082275,0.4681144355692351,-0.802166013419962,0.24242456540794802,0.28040827964379994
1728404377152752600,2.935752685546875,-0.1986372172832489,0.23365043103694916,0.20465512573719025,0.6771663427352905,0.6127362847328186,0.4074309468269348,-0.022945761680603027,0.0067095160484313965,-0.06444394588470459,0.46666643639398014,-0.8027407675279723,0.243562594681459,0.2801909439748576
1728404377162782700,2.94578271484375,-0.224966362118721,0.23003870248794556,0.19312229752540588,0.6774379014968872,0.6105287671089172,0.4102839529514313,-0.01917368173599243,0.03133225440979004,-0.07048588991165161,0.4652610353780818,-0.8033119361455576,0.24460561079242452,0.27998276449498455
1728404377172813600,2.9558134765625,-0.2571496069431305,0.22887277603149414,0.17363542318344116,0.677613377571106,0.6082466244697571,0.4133718013763428,0.003340601921081543,0.059981465339660645,-0.09756064414978027,0.4637244350658039,-0.8039806711407843,0.24556256978488436,0.2797745522334052
1728404377182843600,2.96584375,-0.2542041540145874,0.13122424483299255,0.15140974521636963,0.6778236627578735,0.6060870289802551,0.4161894619464874,0.019945502281188965,0.07959717512130737,-0.08301377296447754,0.46223753163316816,-0.8046362677220412,0.24628276961329945,0.279717314325363
1728404377192874800,2.975874755859375,-0.2264034003019333,0.06261641532182693,0.14104312658309937,0.6783164739608765,0.6040759086608887,0.418304979801178,0.02674633264541626,0.09181636571884155,-0.03462269902229309,0.46093473352011155,-0.8051505044012661,0.24674916809194591,0.2799761930034995
1728404377202904600,2.985904541015625,-0.22566410899162292,0.002190146129578352,0.11783580482006073,0.6789930462837219,0.6022417545318604,0.41984936594963074,0.024620234966278076,0.10343146324157715,-0.017581939697265625,0.45981466487460565,-0.8055414864964943,0.24703763228210548,0.2804386718705584
1728404377212935700,2.995935791015625,-0.2294047772884369,-0.0074880472384393215,0.06112751364707947,0.6795608401298523,0.6006538271903992,0.42120304703712463,0.0009353160858154297,0.11750102043151855,0.015411943197250366,0.45876124974696864,-0.8059541047820555,0.2470617508428315,0.2809565286354747
1728404377222965800,3.0059658203125,-0.1857951283454895,0.0705050677061081,-0.015218387357890606,0.6796181201934814,0.5996004343032837,0.4226090610027313,-0.01886683702468872,0.11983615159988403,0.014555186033248901,0.4578453789457878,-0.8064423083242492,0.24689134215209216,0.2811993000071969
1728404377232996600,3.01599658203125,-0.07465128600597382,0.12078821659088135,-0.04324815794825554,0.6789288520812988,0.5992817878723145,0.42416658997535706,-0.030994772911071777,0.1038433313369751,0.025601595640182495,0.4572270707791721,-0.806943274366573,0.2468316183263406,0.2808206570386932
1728404377243027700,3.02602783203125,-0.12119641900062561,0.04234880581498146,-0.06370895355939865,0.6783331632614136,0.5992602705955505,0.425148606300354,-0.060169100761413574,0.08805662393569946,0.2204355001449585,0.4568775932004918,-0.8072887899220418,0.24669639446116953,0.28051488726823404
1728404377253057800,3.036057861328125,-0.20540717244148254,0.1068740040063858,-0.22826221585273743,0.677208662033081,0.5994442105293274,0.4266796410083771,-0.08249717950820923,0.10172778367996216,0.2971058785915375,0.4562718902180888,-0.8079600815660166,0.24604945281981383,0.2801362102791576
1728404377263088600,3.046088623046875,-0.04829738289117813,0.26409170031547546,-0.39443281292915344,0.6745086312294006,0.6010189056396484,0.42873623967170715,-0.08573281764984131,0.12688642740249634,0.1135307252407074,0.4559386016594392,-0.8089219688157009,0.2449762520750594,0.2788404606099142
1728404377273118700,3.05611865234375,0.17284007370471954,0.31178706884384155,-0.3745059669017792,0.6708250045776367,0.6039626598358154,0.4303753972053528,-0.04243755340576172,0.12958836555480957,-0.05557376146316528,0.45638185593537567,-0.8096779185195745,0.24415029782628261,0.2766368452853367
1728404377283149800,3.06614990234375,0.3359273076057434,0.22890180349349976,-0.28438112139701843,0.6676575541496277,0.6072737574577332,0.43064162135124207,0.04175412654876709,0.12629258632659912,-0.12244457006454468,0.45754515467054174,-0.8098668406751776,0.24379604793467274,0.27446620952924156
1728404377293179600,3.0761796875,0.5851976275444031,0.12082965672016144,-0.22610771656036377,0.6653304100036621,0.6109269261360168,0.4290735125541687,0.10034042596817017,0.09209132194519043,-0.17403799295425415,0.4595158943440332,-0.809380485733721,0.24380316605533453,0.2725958608130212
1728404377303210800,3.086210693359375,0.6593019366264343,0.03946763649582863,-0.17904379963874817,0.6637657880783081,0.6150795221328735,0.42554911971092224,0.0929023027420044,0.01053076982498169,-0.17559492588043213,0.4623432116365841,-0.8082271381957191,0.24401526574357663,0.2710427433881106
1728404377313241600,3.09624169921875,0.42791369557380676,0.014170004054903984,-0.1613878458738327,0.6626036167144775,0.6185362935066223,0.4223378896713257,0.05498671531677246,-0.07388913631439209,-0.07898461818695068,0.4647639436358339,-0.8071932369560488,0.24414755606205713,0.2698620585952006
1728404377323271700,3.106271728515625,0.1323871910572052,-0.0028404053300619125,-0.1803860366344452,0.6615561842918396,0.6208633184432983,0.4205613136291504,0.00444406270980835,-0.1525254249572754,0.08749523758888245,0.46614988212557695,-0.8067307897497125,0.2438567116477293,0.2691162017591613
1728404377333302800,3.116302734375,-0.13331294059753418,0.06668301671743393,-0.2152090072631836,0.6602149605751038,0.6221365928649902,0.4207873046398163,-0.022946953773498535,-0.21527636051177979,0.13177913427352905,0.466346286255254,-0.8070302587809863,0.2430962973225453,0.2685654249435462
1728404377343332900,3.126332763671875,-0.17492790520191193,0.0759672224521637,-0.18683621287345886,0.6585929989814758,0.6227922439575195,0.4223562479019165,-0.01139158010482788,-0.20663940906524658,0.08895042538642883,0.46585191650839036,-0.8077767425551744,0.24222894007350368,0.2679622453010188
1728404377353363700,3.13636376953125,-0.07384681701660156,0.020889585837721825,-0.08676713705062866,0.6574896574020386,0.6231613159179688,0.42352980375289917,0.011867702007293701,-0.14981836080551147,0.06928330659866333,0.46544701675896694,-0.8083221497847395,0.2416199565948982,0.26757097735738583
1728404377363393800,3.146393798828125,-0.02793198823928833,-0.1025029793381691,-0.02292477712035179,0.6573868989944458,0.6233046650886536,0.423478364944458,0.026664674282073975,-0.07456803321838379,0.03442269563674927,0.4653964974381007,-0.8084184237816849,0.2412443560653822,0.2677068949560719
1728404377373425000,3.1564248046875,0.08422064781188965,-0.04027022793889046,-0.03827496990561485,0.6575281023979187,0.6235434412956238,0.4229069650173187,0.0163915753364563,-0.007759809494018555,-0.03542530536651611,0.4655764693892397,-0.8083218953612958,0.24097550003278823,0.2679273160093126
1728404377383454700,3.166454833984375,0.29118239879608154,-0.023800654336810112,-0.024468079209327698,0.6574217081069946,0.6246032118797302,0.42150622606277466,-0.01752912998199463,-0.0034331679344177246,-0.08117425441741943,0.466447157266888,-0.8078725950344501,0.24102900318425632,0.26771988691776355
1728404377393485800,3.17648583984375,0.269660621881485,0.004112735856324434,0.013136021792888641,0.6574443578720093,0.6258536577224731,0.4196120500564575,-0.04085195064544678,-0.03430086374282837,-0.03266441822052002,0.46764274724595983,-0.8071813517635041,0.2413799620366906,0.26740284616403237
1728404377403516700,3.1865166015625,0.19520309567451477,0.06275053322315216,0.018335310742259026,0.6574162244796753,0.6267090439796448,0.41837719082832336,-0.03693288564682007,-0.04753124713897705,0.018405616283416748,0.4685133655307816,-0.806662699624046,0.24183441858334848,0.2670328544983746
1728404377413546800,3.196546630859375,0.13816963136196136,0.0907566025853157,-0.0030871559865772724,0.6571495532989502,0.6273514628410339,0.41783297061920166,-0.048400282859802246,-0.06324940919876099,0.06417688727378845,0.4690871480230457,-0.806359175517762,0.24228365392298118,0.26653462678361173
1728404377423578600,3.20657861328125,0.05277137830853462,0.12216406315565109,-0.03981321305036545,0.6565849781036377,0.6278993487358093,0.4178979992866516,-0.04917830228805542,-0.06640642881393433,0.07728034257888794,0.46938739300136745,-0.8062902743098996,0.24257985855092828,0.2659446249835257
1728404377433608700,3.216608642578125,-0.018464451655745506,0.14339503645896912,-0.07894783467054367,0.6556333303451538,0.6283366680145264,0.4187336564064026,-0.019555509090423584,-0.04661065340042114,-0.0054493248462677,0.46934676341205606,-0.8065170577823721,0.24268716516768207,0.26522963807879363
1728404377443639800,3.226639892578125,-0.03184257447719574,0.07373527437448502,-0.0940793827176094,0.6546056866645813,0.628807783126831,0.4196335971355438,0.014507532119750977,-0.02936619520187378,-0.038545310497283936,0.46922212443963285,-0.8068350432827782,0.24255722396222454,0.26460133296691124
1728404377453670000,3.236669921875,-0.09487080574035645,-0.037646107375621796,-0.05119156837463379,0.6541603803634644,0.6290190815925598,0.4200112819671631,0.04412764310836792,-0.013647317886352539,-0.01925438642501831,0.469094205701006,-0.8070427835667491,0.24225521616278353,0.2644713340757331
1728404377463700700,3.24670068359375,-0.13226984441280365,-0.07945667207241058,-0.004858158063143492,0.6543732285499573,0.6287817358970642,0.4200344383716583,0.05938708782196045,0.0010094046592712402,0.0013827681541442871,0.468840827636318,-0.80718739015472,0.2417968988097365,0.2648980501615529
1728404377473730800,3.256730712890625,-0.08653990924358368,-0.07678472250699997,-0.014086278155446053,0.6546617746353149,0.6283933520317078,0.4201665222644806,0.04322946071624756,-0.010305583477020264,-0.029282093048095703,0.46853012422449275,-0.8073317615969251,0.24145120620177307,0.26532303542817465
1728404377483761700,3.26676171875,-0.13524731993675232,-0.03416423872113228,-0.022299733012914658,0.6547566652297974,0.6279633641242981,0.42066124081611633,0.0008983016014099121,-0.019198715686798096,-0.02768629789352417,0.4681023008416483,-0.8075795964381578,0.24113443659583392,0.26561188055442136
1728404377493792800,3.276792724609375,-0.17271053791046143,0.01116143073886633,-0.02292344532907009,0.6545310020446777,0.6271641254425049,0.42220157384872437,-0.021108150482177734,0.011477172374725342,0.01856374740600586,0.4672246377934393,-0.8081368529713655,0.24086431662507593,0.2657071779328599
1728404377503822800,3.28682275390625,-0.10768134146928787,0.021138004958629608,-0.05143418163061142,0.6539243459701538,0.6262489557266235,0.4244941473007202,-0.02451455593109131,0.041429877281188965,0.037572503089904785,0.46611941208602353,-0.8088849026534168,0.24073281442540992,0.26549134137911695
1728404377513853700,3.296853759765625,-0.06622231751680374,0.016538191586732864,-0.0725109726190567,0.6536625623703003,0.6260369420051575,0.4252096116542816,-0.026480495929718018,0.059281110763549805,0.04178565740585327,0.46573471253286014,-0.8091814869886195,0.24047896438299646,0.26549281545964043
1728404377523883800,3.3068837890625,-0.004314277321100235,0.07446567714214325,-0.08481664210557938,0.6534500122070312,0.626227855682373,0.42525458335876465,-0.014411985874176025,0.0762103796005249,0.005775630474090576,0.4657438506257288,-0.8092450306415568,0.2403118353110677,0.2654341278314712
1728404377533915000,3.316914794921875,0.03499025106430054,0.04744391143321991,-0.0661420226097107,0.653204083442688,0.6265522241592407,0.42515498399734497,-0.005972027778625488,0.07214772701263428,0.001572251319885254,0.4658932802748127,-0.8092253883138363,0.24027435702064745,0.2652658024524567
1728404377543945000,3.326945068359375,0.0691603422164917,0.01298159547150135,-0.04668337106704712,0.653113603591919,0.6268986463546753,0.42478320002555847,0.0018241405487060547,0.03995621204376221,-0.0012602806091308594,0.4661510198096888,-0.8091058122739683,0.24029020276082888,0.2651634390638483
1728404377553975800,3.336975830078125,0.06211627647280693,0.0032227071933448315,-0.04050563648343086,0.6532871723175049,0.6272700428962708,0.42396724224090576,0.005343198776245117,-0.007290244102478027,-0.02617061138153076,0.46654871808849113,-0.8088524541329088,0.24029424539944766,0.26523332199128163
1728404377564007000,3.3470068359375,0.0360606424510479,0.02290639653801918,-0.05030686780810356,0.653190016746521,0.6277282238006592,0.42343851923942566,-0.004203200340270996,-0.04024958610534668,-0.009376049041748047,0.466875660907705,-0.8087055388382807,0.24023866577152067,0.2651563540835382
1728404377574036700,3.35703662109375,-0.06563881784677505,0.05881566181778908,-0.07797923684120178,0.6523299813270569,0.6282529830932617,0.4239855706691742,-0.004884302616119385,-0.03956890106201172,-0.021199345588684082,0.4668447501288346,-0.8089463774156581,0.23999695570070742,0.26469452541230654
1728404377584067800,3.36706787109375,-0.12323899567127228,0.052417099475860596,-0.0869639441370964,0.6509416103363037,0.6287232637405396,0.425420343875885,0.00234830379486084,-0.026779234409332275,-0.00520855188369751,0.46644863289495453,-0.809530360293381,0.23952196350944605,0.26403716480358813
1728404377594098000,3.377097900390625,-0.13355128467082977,-0.006772455759346485,-0.08428560942411423,0.6495423913002014,0.629246711730957,0.4267826974391937,0.01198720932006836,-0.023075997829437256,0.026845872402191162,0.4660311104154098,-0.8101506044720669,0.23884584984483953,0.26348386090623693
1728404377604128800,3.387128662109375,-0.04885251820087433,-0.008878589607775211,-0.06793246418237686,0.6484871506690979,0.6300927400588989,0.4271385669708252,0.02334195375442505,-0.015514552593231201,-0.003203660249710083,0.46602882532898954,-0.8104764841370197,0.2381116367688492,0.26314977365567793
1728404377614158800,3.397158935546875,0.06974763423204422,-0.03627053275704384,-0.04567429795861244,0.6477713584899902,0.631218433380127,0.4265623390674591,0.01540607213973999,-0.003746509552001953,-0.008090078830718994,0.466494475503316,-0.8104471697656827,0.23760587529335497,0.2628719744791379
1728404377624190000,3.40718994140625,0.05306938663125038,-0.004502910654991865,-0.041302718222141266,0.6474575400352478,0.6320770382881165,0.42576688528060913,-0.005306601524353027,0.012744128704071045,-0.002533853054046631,0.4670066684235705,-0.8102696117434288,0.23737439563882817,0.2627191357275471
1728404377634220800,3.417220703125,0.09042634069919586,0.07552747428417206,-0.049307916313409805,0.6473709940910339,0.6325648427009583,0.42517390847206116,-0.02580416202545166,0.03789108991622925,-0.018664419651031494,0.46738656118011157,-0.8100831456403053,0.23738628452933713,0.2626080148906685
1728404377644251000,3.4272509765625,0.10860960930585861,0.16065269708633423,-0.07710012793540955,0.6468169093132019,0.6330013871192932,0.42536699771881104,-0.040188491344451904,0.02536952495574951,-0.059537529945373535,0.4676132393478795,-0.8100451070080367,0.23771921821806152,0.26201971699203297
1728404377654281700,3.43728173828125,0.0295997466892004,0.1515026092529297,-0.0855812355875969,0.646066427230835,0.6334737539291382,0.4258040487766266,-0.033166706562042236,0.026438236236572266,-0.05014792084693909,0.4677528304258547,-0.8101074231464939,0.2379663596393078,0.2613527336849672
1728404377664311600,3.4473115234375,0.10057306289672852,0.1854616403579712,-0.08733785152435303,0.6450623869895935,0.6339420080184937,0.42662888765335083,-0.00043952465057373047,0.05245941877365112,-0.03084641695022583,0.4677730825252737,-0.8102895859721049,0.23821258618034458,0.2605263035197489
1728404377674343000,3.457343017578125,0.1933237612247467,0.0984330028295517,-0.08656980097293854,0.6440905928611755,0.634714663028717,0.42694777250289917,0.025861680507659912,0.04680389165878296,-0.03934401273727417,0.4680956018478059,-0.8102899546338126,0.23854575522632335,0.2596392644077113
1728404377684372700,3.467372802734375,0.24292221665382385,0.05588266998529434,-0.06372600048780441,0.6437278389930725,0.6357325911521912,0.42597970366477966,0.02639240026473999,0.027200818061828613,0.01480090618133545,0.46888776465351323,-0.8099085030351706,0.23882644210533843,0.2591417654523172
1728404377694403600,3.477403564453125,0.3248690068721771,0.026309862732887268,-0.036288782954216,0.6435726284980774,0.6370608806610107,0.42422643303871155,0.015393495559692383,0.0011990666389465332,0.033934056758880615,0.47006869757408526,-0.8092594987915421,0.23919089424006557,0.2586935051595902
1728404377704433700,3.48743359375,0.25985538959503174,0.03952622413635254,-0.016263412311673164,0.643227219581604,0.6385754942893982,0.42246922850608826,-0.012489855289459229,-0.024958491325378418,0.03059476613998413,0.4713122592020239,-0.8086209468121817,0.23951362087094452,0.2581282538367767
1728404377714464800,3.49746484375,0.22834300994873047,0.11096791923046112,-0.035938844084739685,0.6423448324203491,0.6403586864471436,0.4211103320121765,-0.039805829524993896,-0.030831098556518555,0.018571704626083374,0.47248871696730094,-0.8081548883025458,0.23966819353005275,0.25729212079671737
1728404377724495600,3.50749560546875,0.20753753185272217,0.14729300141334534,-0.07729161530733109,0.6411552429199219,0.6424723267555237,0.4197012782096863,-0.06934738159179688,-0.05758774280548096,0.007743120193481445,0.47380203578819025,-0.807682126948202,0.23979203891938466,0.2562439445131171
1728404377734525700,3.517525634765625,0.10318847745656967,0.20752306282520294,-0.08381982147693634,0.6396905779838562,0.6442089080810547,0.41927415132522583,-0.0735742449760437,-0.06541252136230469,0.021613240242004395,0.4746454212556295,-0.8075310784645647,0.23985544808385603,0.25509731603992497
1728404377744556500,3.527556640625,0.1961505115032196,0.22466951608657837,-0.06318511068820953,0.6381520628929138,0.6457227468490601,0.41928985714912415,-0.031813621520996094,-0.042939603328704834,-0.0062649548053741455,0.47532669161162167,-0.8074575114741357,0.24011932498429922,0.25381014581642636
1728404377754586600,3.537586669921875,0.3480907678604126,0.1418108493089676,-0.011405006982386112,0.6373348832130432,0.6473826766014099,0.4179714322090149,0.003488481044769287,-0.04902452230453491,-0.0012996196746826172,0.47656660145891927,-0.8068804992350136,0.24068563651720165,0.25278181511784725
1728404377764617700,3.54761767578125,0.49457550048828125,0.04949358478188515,0.02925001084804535,0.6371387243270874,0.6488786339759827,0.4159456193447113,0.025199532508850098,-0.044615328311920166,0.008096098899841309,0.478050243035653,-0.8059940744019971,0.24154992576427792,0.2519824391595428
1728404377774647800,3.557647705078125,0.5413498878479004,0.014042118564248085,0.00098907807841897,0.6372486352920532,0.6505423784255981,0.41316938400268555,0.03447377681732178,-0.017775654792785645,-0.05515241622924805,0.47986041089112824,-0.8048439347087469,0.24250966205798122,0.25129534691390515
1728404377784678700,3.5676787109375,0.3808547854423523,0.10054478794336319,-0.04911137372255325,0.6368785500526428,0.6526398062705994,0.4104227125644684,0.013222098350524902,0.01123952865600586,-0.07858985662460327,0.4817229629407139,-0.8038064301744859,0.2431184558996394,0.250462699687946
1728404377794709800,3.577709716796875,0.20183469355106354,0.17851893603801727,-0.11227250099182129,0.6357429027557373,0.6543334722518921,0.40948593616485596,0.005339860916137695,0.01888430118560791,-0.05999863147735596,0.48280495694412506,-0.8033909815609434,0.2435280278021738,0.24931186536050315
1728404377804739800,3.58773974609375,0.1092986986041069,0.14630737900733948,-0.1783822774887085,0.6341103911399841,0.6558709740638733,0.4095572531223297,0.031477928161621094,0.009656310081481934,-0.0590323805809021,0.48337402772498367,-0.8034240912632656,0.2434920002205645,0.24813479701055977
1728404377814770700,3.597770751953125,0.15663772821426392,0.0853273794054985,-0.1315082460641861,0.6324900388717651,0.6574478149414062,0.4095348119735718,0.09390461444854736,0.008293092250823975,-0.13155019283294678,0.4839413523311133,-0.803472282531073,0.24330988126035114,0.24704936464866473
1728404377824800800,3.60780078125,0.16205352544784546,-0.10758312046527863,-0.026902474462985992,0.6320215463638306,0.6585965752601624,0.40841031074523926,0.15624737739562988,0.004031538963317871,-0.14273959398269653,0.4846925395885437,-0.8031676255931622,0.24316028013399577,0.24671414334171926
1728404377834831600,3.61783154296875,0.2369149923324585,-0.31065258383750916,0.022310078144073486,0.63292396068573,0.6593566536903381,0.40577808022499084,0.17586809396743774,0.0011810064315795898,-0.11665457487106323,0.48572939597033826,-0.80242314915215,0.24291176352370913,0.2473415478445206
1728404377844861700,3.62786181640625,0.3210996389389038,-0.35105666518211365,0.012882756069302559,0.6344298720359802,0.6603483557701111,0.4017942249774933,0.1277618408203125,-0.009362757205963135,-0.1439206898212433,0.4872301467077147,-0.8013013939596169,0.2425142950991034,0.24841423739731142
1728404377854892800,3.637892822265625,0.39151495695114136,-0.34940576553344727,-0.010582090355455875,0.6358761787414551,0.6617938280105591,0.39710238575935364,0.051135480403900146,-0.007054507732391357,-0.15598300099372864,0.4891239209648756,-0.7999611619071445,0.2421018983059816,0.24941242094095833
1728404377864923000,3.6479228515625,0.34339168667793274,-0.2815709412097931,-0.03469301760196686,0.6369422674179077,0.6634043455123901,0.3926819860935211,0.002996087074279785,0.012392103672027588,-0.17237555980682373,0.4910069442629288,-0.7986958638107667,0.24171453040715404,0.25014230977913027
1728404377874953700,3.65795361328125,0.33151957392692566,-0.20975294709205627,-0.07141774147748947,0.6375852227210999,0.665044903755188,0.3888448178768158,-0.009228348731994629,0.022805988788604736,-0.16051235795021057,0.49271340502793176,-0.7976191017289054,0.24130100654976627,0.2506213561090304
1728404377884984800,3.66798486328125,0.27617499232292175,-0.0642331913113594,-0.07690306007862091,0.6375847458839417,0.6667219996452332,0.38596299290657043,0.02954477071762085,-0.022236526012420654,-0.22011518478393555,0.4941900464451323,-0.7967906088908457,0.2410523302490702,0.2505886662217134
1728404377895014700,3.6780146484375,0.2581797242164612,-0.2025495171546936,-0.05540735274553299,0.6375817060470581,0.6681811213493347,0.3834365904331207,0.09903639554977417,-0.09850955009460449,-0.17095792293548584,0.4954869437887328,-0.7960575525789438,0.24085404262019428,0.2505482281429121
1728404377905045800,3.688045654296875,0.14416101574897766,-0.4501374363899231,-0.015674320980906487,0.6385712623596191,0.6692276000976562,0.3799484372138977,0.1701749563217163,-0.1710892915725708,-0.0798385739326477,0.49675283547900145,-0.7951827376752665,0.24012210953666507,0.25151991277533514
1728404377915075800,3.698075927734375,0.00260574696585536,-0.695740282535553,0.018513476476073265,0.6407791972160339,0.6694676876068115,0.37578585743904114,0.2036421298980713,-0.1903112530708313,-0.05353546142578125,0.4977316325270094,-0.7942615197409942,0.23883377371747874,0.25371301679087754
1728404377925106700,3.708106689453125,-0.1557149738073349,-0.832574725151062,0.005652273539453745,0.6437916159629822,0.6690686941146851,0.37132108211517334,0.16573286056518555,-0.17009109258651733,-0.0016006529331207275,0.4983132657501973,-0.7934545170911083,0.23683427999136078,0.2569500232259088
1728404377935136800,3.71813671875,-0.11980438977479935,-0.7842122912406921,0.016646068543195724,0.6468657851219177,0.6684283018112183,0.36710798740386963,0.10455328226089478,-0.10745418071746826,-0.07503950595855713,0.4986389050583343,-0.7927807137244637,0.23463320181276773,0.26039437619940364
1728404377945168000,3.72816796875,0.08935948461294174,-0.6859750747680664,0.0255170576274395,0.6497139930725098,0.6682361364364624,0.36239805817604065,0.051915645599365234,-0.024422049522399902,-0.12704646587371826,0.4994159964509891,-0.7918243090338029,0.23283748158570802,0.2634097442683532
1728404377955197700,3.73819775390625,0.1472853720188141,-0.5689552426338196,0.017659135162830353,0.6521186828613281,0.6685575842857361,0.3574523329734802,0.03123098611831665,0.03842794895172119,-0.1768798530101776,0.5006308776245092,-0.7906417243745847,0.2315422947407193,0.2657867838445243
1728404377965228800,3.748228759765625,0.0315471813082695,-0.6341574192047119,-0.003205134067684412,0.6542737483978271,0.6688448786735535,0.3529481589794159,0.05144524574279785,0.06199008226394653,-0.18093585968017578,0.5016816245052159,-0.7896026731215241,0.2302209871062505,0.2680325763251955
1728404377975260000,3.758260009765625,-0.07570577412843704,-0.6914076209068298,0.015495050698518753,0.656637966632843,0.6687464714050293,0.3487188518047333,0.09587973356246948,0.015701770782470703,-0.15264344215393066,0.5023418229997633,-0.7887670781796924,0.22848614534222034,0.2707273638233447
1728404377985289700,3.768289794921875,-0.022920386865735054,-0.8502570390701294,0.06525354832410812,0.6595502495765686,0.6682621240615845,0.34412091970443726,0.1474413275718689,-0.08581888675689697,-0.16954505443572998,0.5029217529017487,-0.7878281031977842,0.22668774995503488,0.2738781844662447
1728404377995320800,3.77832080078125,0.059807516634464264,-0.9647828340530396,0.08265917003154755,0.6632051467895508,0.6678151488304138,0.3379078507423401,0.16443157196044922,-0.1509695053100586,-0.12399494647979736,0.5039135684857561,-0.7864359842999112,0.22466054908957156,0.2776997521097406
1728404378005351000,3.788350830078125,0.28040093183517456,-1.0648525953292847,0.07332558929920197,0.6671485304832458,0.6677994728088379,0.3300859034061432,0.13961416482925415,-0.10915994644165039,-0.1308976411819458,0.5055704478839305,-0.7845128719496932,0.22267130644582264,0.2817012361549987
1728404378015381800,3.7983818359375,0.3876831829547882,-1.1751705408096313,0.012271825224161148,0.6710940003395081,0.6686662435531616,0.3201844096183777,0.06985741853713989,-0.008952617645263672,-0.08954781293869019,0.5081374825700347,-0.7819759620013268,0.22046721354785814,0.28583915408014215
1728404378025411800,3.808411865234375,0.4018101990222931,-1.199140191078186,-0.009304039180278778,0.6748281121253967,0.6699228286743164,0.30953270196914673,0.0052255988121032715,0.0898275375366211,-0.10962724685668945,0.5109872008439125,-0.7792578483781646,0.2179989756932973,0.29004438279623107
1728404378035443000,3.81844287109375,0.46025460958480835,-1.0684401988983154,0.03136029839515686,0.678401529788971,0.6711319088935852,0.2989196479320526,-0.0441548228263855,0.11538225412368774,-0.13047796487808228,0.5138512864394563,-0.7764908846518133,0.21568895438241764,0.2941035330219949
1728404378045473800,3.828473876953125,0.5871157646179199,-0.967271625995636,0.057204678654670715,0.6816914677619934,0.6724003553390503,0.288399875164032,-0.05728656053543091,0.05136978626251221,-0.2164241075515747,0.5169657559209783,-0.7735485452321132,0.21406210972550282,0.2975675507305598
1728404378055504000,3.83850390625,0.4771687388420105,-0.8421781659126282,0.09966904670000076,0.6847905516624451,0.6733713150024414,0.27862676978111267,-0.039374351501464844,-0.014145910739898682,-0.24977245926856995,0.519861015696017,-0.7707357653434508,0.2127904316469148,0.3007176299344322
1728404378065534700,3.84853466796875,0.41906115412712097,-0.8213070034980774,0.11465838551521301,0.6878054141998291,0.6738688349723816,0.26985934376716614,0.03913843631744385,-0.029291987419128418,-0.19365698099136353,0.5223282141321949,-0.7681786625648196,0.21173383442731541,0.30371601641155865
1728404378075564800,3.858564697265625,0.3810650408267975,-0.861090898513794,0.11795911192893982,0.690823495388031,0.6740959286689758,0.26145264506340027,0.1243162751197815,-0.020119547843933105,-0.10096073150634766,0.5245344436572947,-0.7657513679477794,0.2105971576834652,0.306817976994414
1728404378085596000,3.868595947265625,0.5336595177650452,-0.9845364093780518,0.09521384537220001,0.6938754916191101,0.6745116710662842,0.25213271379470825,0.22096526622772217,0.01495671272277832,-0.03825032711029053,0.5270295243126233,-0.7630648138787665,0.2092807915411399,0.3101185805182646
1728404378095625700,3.878625732421875,0.8872247934341431,-1.2047069072723389,0.0728592723608017,0.6971396803855896,0.6756585240364075,0.23975339531898499,0.29216378927230835,0.035996079444885254,-0.03574337065219879,0.5307331001720285,-0.7593974080371975,0.20782751933831883,0.31376050032319025
1728404378105656800,3.88865673828125,1.0544134378433228,-1.3276934623718262,0.08989258855581284,0.7006673812866211,0.677389919757843,0.22407051920890808,0.3086708188056946,0.04457944631576538,-0.044627249240875244,0.5356745165095105,-0.7546504561538747,0.20624729370101805,0.3178322790722174
1728404378115686700,3.898686767578125,1.1226776838302612,-1.3338133096694946,0.11742594093084335,0.7042639851570129,0.6790099740028381,0.2072625309228897,0.28009575605392456,0.050833165645599365,-0.049837589263916016,0.5410147197296176,-0.7494461524494361,0.20484562080617055,0.3219811042235865
1728404378125717800,3.9087177734375,0.9064415693283081,-1.3764753341674805,0.08006338775157928,0.7076512575149536,0.6803598403930664,0.19063076376914978,0.2321832776069641,-0.0030221939086914062,-0.05922210216522217,0.5461053653787885,-0.7443266638794289,0.20320728473078223,0.3262721386379879
1728404378135748900,3.918748779296875,0.5927278399467468,-1.4647029638290405,0.08726724237203598,0.7107968330383301,0.6811677813529968,0.17543751001358032,0.19469016790390015,-0.1211550235748291,-0.06117963790893555,0.5501958020278415,-0.7398524687404082,0.20084092642181461,0.3310073367328
1728404378145778700,3.92877880859375,0.19393329322338104,-1.4960289001464844,0.1749560832977295,0.7141453623771667,0.6809647083282471,0.16212178766727448,0.17272597551345825,-0.29752665758132935,-0.045712485909461975,0.5529533637082842,-0.7361427434446525,0.19787560025654907,0.3364248170761746
1728404378155809500,3.9388095703125,-0.13770456612110138,-1.5534234046936035,0.33656975626945496,0.7182978391647339,0.6791167259216309,0.15115860104560852,0.1529332995414734,-0.3539823889732361,0.02253223955631256,0.5540343911344973,-0.7332807620474622,0.19462431253517884,0.34273416336247997
1728404378165839600,3.948839599609375,-0.1956547498703003,-1.6245969533920288,0.38239291310310364,0.7231444716453552,0.6761898994445801,0.14081726968288422,0.15980541706085205,-0.2945064902305603,0.029623404145240784,0.5542980929147241,-0.73063748241487,0.19125245467680413,0.3497786225776632
1728404378175870700,3.95887060546875,0.042209215462207794,-1.5975996255874634,0.41039177775382996,0.7279940843582153,0.6731778979301453,0.1298314481973648,0.15538299083709717,-0.18417948484420776,-0.06545460224151611,0.5547236804787796,-0.727717476811323,0.1879973444481508,0.3568836326108463
1728404378185900800,3.96890087890625,0.7190143465995789,-1.6641550064086914,0.365967333316803,0.7326951026916504,0.6707185506820679,0.1153014749288559,0.13493484258651733,-0.025073468685150146,-0.07282102853059769,0.5569251526724897,-0.7233271892943349,0.18560311212701516,0.3635706117996472
1728404378195931600,3.978931640625,1.1824848651885986,-1.6645550727844238,0.32963061332702637,0.7367877960205078,0.6692025065422058,0.0964973121881485,0.10743522644042969,0.12773346900939941,-0.1357581615447998,0.5613443468156273,-0.7172191104453741,0.18397120409328918,0.36965371299300254
1728404378205962800,3.988962646484375,1.0428457260131836,-1.629374623298645,0.2979145050048828,0.7403870224952698,0.6678140759468079,0.07649242877960205,0.08868390321731567,0.3050404191017151,-0.11732496321201324,0.5663680206404041,-0.7105788995198372,0.18254819450138665,0.3754742162688865
1728404378215992600,3.99899267578125,0.7036800980567932,-1.4749890565872192,0.27077797055244446,0.7432708144187927,0.6663699746131897,0.05915536358952522,0.1121826171875,0.22811543941497803,-0.09428108483552933,0.5703590561754994,-0.7049085325968154,0.18078064678725791,0.3809367067806309
1728404378226023700,4.009023681640625,0.41616156697273254,-1.6374167203903198,0.39065617322921753,0.7462835311889648,0.6641788482666016,0.04390166327357292,0.15482425689697266,-0.06644636392593384,-0.08178925514221191,0.5730975319001899,-0.7000285011745214,0.1786363041402401,0.386792432947404
1728404378236053800,4.0190537109375,0.06333800405263901,-1.7802410125732422,0.4203599989414215,0.7496832609176636,0.6611459255218506,0.029345504939556122,0.23739254474639893,-0.18714690208435059,-0.06959819793701172,0.574638194930938,-0.6955953874583384,0.1755557166164124,0.393850547248138
1728404378246084600,4.029084716796875,0.11490319669246674,-1.7252192497253418,0.3823971748352051,0.752756655216217,0.6581093072891235,0.015793802216649055,0.22424829006195068,-0.048993825912475586,-0.1099710464477539,0.5755522389442633,-0.6915937848672047,0.17203179261532525,0.40105195576344105
1728404378256114700,4.03911474609375,0.5624381303787231,-1.7215834856033325,0.3133922815322876,0.7551872134208679,0.6555088758468628,0.0006271752063184977,0.14914017915725708,0.11731827259063721,-0.19799959659576416,0.577444738618,-0.6868636262754998,0.16891402103087538,0.4077302590143253
1728404378266145800,4.049145751953125,1.235269546508789,-1.7268306016921997,0.2622057795524597,0.7569330930709839,0.6532387733459473,-0.018205655738711357,0.08484852313995361,0.34015411138534546,-0.2275524139404297,0.5813276737723451,-0.6805119693517169,0.16673521549351006,0.4137160923098727
1728404378276175600,4.059175537109375,1.875177025794983,-1.7792084217071533,0.1633918285369873,0.7578108310699463,0.6511294841766357,-0.04187534376978874,0.03074824810028076,0.5458006262779236,-0.18609096109867096,0.5876985865642604,-0.6720370179165437,0.16561574178372215,0.4189847898742279
1728404378286206700,4.069206787109375,1.7482696771621704,-1.8934913873672485,0.06709379702806473,0.757574737071991,0.6492016911506653,-0.06795420497655869,0.002374112606048584,0.6410357356071472,-0.2024010419845581,0.5952109965051604,-0.6625346071187502,0.16453203799625168,0.4239115710801442
1728404378296237800,4.07923779296875,1.1345300674438477,-1.8044893741607666,0.020197127014398575,0.7562552094459534,0.6478190422058105,-0.09169863909482956,0.01965433359146118,0.45575761795043945,-0.11667538434267044,0.6014830690836224,-0.6541264483379328,0.16207797725909498,0.4290308717489468
1728404378306267600,4.089267578125,0.6904422640800476,-1.6900683641433716,0.19884783029556274,0.7551916837692261,0.6461061239242554,-0.1106015220284462,0.09719491004943848,-0.017764389514923096,-0.1021212488412857,0.6055743617016363,-0.6475892833292282,0.15914571907521713,0.43425867147658403
1728404378316298800,4.099298828125,0.40104907751083374,-1.8304678201675415,0.3249985873699188,0.7548330426216125,0.643445611000061,-0.12729798257350922,0.19194424152374268,-0.24036943912506104,0.00545656681060791,0.6080719977784509,-0.6419268497818503,0.15582338609674626,0.4403378588016789
1728404378326328800,4.109328857421875,0.5436953902244568,-1.9317114353179932,0.33505043387413025,0.7544344663619995,0.6402513980865479,-0.14459176361560822,0.2197628617286682,-0.06822997331619263,0.0021357089281082153,0.6102321059205293,-0.6360535293098679,0.15211844942184694,0.4471159343559773
1728404378336359700,4.119359619140625,1.0061343908309937,-1.8137704133987427,0.25481629371643066,0.7534588575363159,0.6368138790130615,-0.1636088639497757,0.19041931629180908,0.11898446083068848,-0.151805579662323,0.6133713039603914,-0.6292738919863474,0.14902999507051276,0.453409435225057
1728404378346389800,4.1293896484375,1.4854485988616943,-1.820125699043274,0.11904674768447876,0.7514963150024414,0.6331860423088074,-0.18528002500534058,0.1543569564819336,0.20351439714431763,-0.20688611268997192,0.6182419961790441,-0.6211044667738002,0.14693273216320213,0.4587121653357145
1728404378356420900,4.1394208984375,1.7096467018127441,-2.013535499572754,0.09541118890047073,0.74832683801651,0.6292423605918884,-0.20990724861621857,0.13367700576782227,0.2714228630065918,-0.08043700456619263,0.6243936854311954,-0.611575255552766,0.14498993049527287,0.4637738475847067
1728404378366451700,4.14945166015625,1.5168708562850952,-2.0758614540100098,0.18287871778011322,0.7446115016937256,0.624517023563385,-0.23565322160720825,0.1618979573249817,0.21926355361938477,0.005581170320510864,0.630599778346346,-0.6014707819327341,0.1428505706335152,0.4692234884328888
1728404378376481800,4.159481689453125,0.9077935814857483,-2.1858291625976562,0.23708389699459076,0.7406582236289978,0.6198046803474426,-0.2593599855899811,0.1962772011756897,-0.023414969444274902,0.02641928195953369,0.6353492833802094,-0.592289851207367,0.13968801809425557,0.47540647481229414
1728404378386512600,4.1695126953125,0.32923418283462524,-2.077967405319214,0.398621141910553,0.7368983626365662,0.6158785820007324,-0.27870145440101624,0.20816999673843384,-0.2727236747741699,0.05908173322677612,0.6378199629173896,-0.5850990252621058,0.1353085448356479,0.4822204250778469
1728404378396542700,4.179542724609375,-0.018842021003365517,-1.9488248825073242,0.5096515417098999,0.733931839466095,0.612036943435669,-0.29454195499420166,0.21272343397140503,-0.30992817878723145,0.02615511417388916,0.6384535024928797,-0.5793903397432006,0.1305214990765839,0.4895387416875236
