time,seconds_elapsed,rotationRateX,rotationRateY,rotationRateZ,gravityX,gravityY,gravityZ,accelerationX,accelerationY,accelerationZ,quaternionW,quaternionX,quaternionY,quaternionZ
1728667120438431200,0.05943115234375,-0.06769473105669022,-0.005491575691848993,0.06211775541305542,0.2779639661312103,0.50072181224823,-0.8197643756866455,0.012456536293029785,-0.007100045680999756,0.019257783889770508,0.9538773737867522,-0.26246656543079017,0.1457021540843115,3.827048380416619e-17
1728667120448461300,0.06946142578125,-0.08421351760625839,0.006961099337786436,0.07090325653553009,0.2784542143344879,0.5011328458786011,-0.8193467855453491,0.007907480001449585,-0.004382967948913574,0.02813279628753662,0.9537679203142435,-0.2627727046487413,0.14586677122308137,0.0003959866078199429
1728667120458492200,0.0794921875,-0.10751910507678986,0.024292685091495514,0.0791795626282692,0.2790916860103607,0.5016492009162903,-0.8188137412071228,-0.00019156932830810547,-0.017518341541290283,0.029766499996185303,0.9536279204733975,-0.2631460454454651,0.14610712358491082,0.0008132985329483223
1728667120468522200,0.089522216796875,-0.14132215082645416,0.037423454225063324,0.09166792035102844,0.2798359990119934,0.5022842288017273,-0.8181701302528381,0.008616119623184204,-0.01739048957824707,0.018258631229400635,0.9534586977921147,-0.2636005484307017,0.14638880289200756,0.0012986650904799064
1728667120478553300,0.09955322265625,-0.17693527042865753,0.05712711811065674,0.08232662081718445,0.2805344760417938,0.5032050609588623,-0.8173646926879883,0.009092599153518677,-0.00433427095413208,0.011990547180175781,0.9532466150459821,-0.2642147857393426,0.14665676107080572,0.001768145631192982
1728667120488583400,0.10958349609375,-0.19802391529083252,0.07694417983293533,0.06929311156272888,0.2814587354660034,0.5044358372688293,-0.816287636756897,-0.005915522575378418,-0.006739974021911621,0.015414834022521973,0.9529632922946712,-0.26500394554577783,0.1470683323630667,0.0021835089747540243
1728667120498614300,0.1196142578125,-0.17325225472450256,0.0811767429113388,0.059496939182281494,0.2825278639793396,0.5058318376541138,-0.8150534629821777,-0.0212668776512146,-0.013812243938446045,0.014348506927490234,0.9526385765126468,-0.2658823433504333,0.14757999441080405,0.002533191930135639
1728667120508644400,0.129644287109375,-0.14464011788368225,0.05386245623230934,0.06634978204965591,0.28348857164382935,0.5068862438201904,-0.8140641450881958,-0.02109849452972412,-0.0075882673263549805,-0.0009534955024719238,0.9523778371548227,-0.26656458459412957,0.1480244448216422,0.0028851832867237935
1728667120518675200,0.13967529296875,-0.11497463285923004,0.04272378608584404,0.08729607611894608,0.2844271957874298,0.5076477527618408,-0.813261866569519,-0.00012543797492980957,0.004131972789764404,-0.011674046516418457,0.9521659294145165,-0.26709071281481617,0.14843049523237964,0.003306506277594239
1728667120528705300,0.149705322265625,-0.1358962208032608,0.042913295328617096,0.08828357607126236,0.2853756546974182,0.5084068775177002,-0.8124549984931946,0.0087527334690094,0.00981205701828003,0.0063179731369018555,0.9519522769694886,-0.26762476752620945,0.14882698020354665,0.00378008719305604
1728667120538736400,0.159736328125,-0.14847353100776672,0.03222416341304779,0.08544358611106873,0.28616851568222046,0.5091846585273743,-0.8116886615753174,0.001200258731842041,-0.001936793327331543,0.018796205520629883,0.9517488996063903,-0.2681685405831288,0.1491351475977385,0.004269853005675121
1728667120548766500,0.169766357421875,-0.12912315130233765,0.011921502649784088,0.09430977702140808,0.2869141101837158,0.5098469257354736,-0.8110095262527466,0.0015227794647216797,-0.014104187488555908,0.023884832859039307,0.951567989766869,-0.2686520888000505,0.14940316828285982,0.004800918667722385
1728667120558797300,0.17979736328125,-0.14140723645687103,0.017374059185385704,0.09830984473228455,0.28761741518974304,0.510553240776062,-0.810315728187561,0.00927281379699707,-0.009042680263519287,0.012677788734436035,0.9513827563767296,-0.2691649475322324,0.14964076386290842,0.005361285232697997
1728667120568827400,0.189827392578125,-0.15302129089832306,0.028076237067580223,0.10285692662000656,0.2881850004196167,0.5114141702651978,-0.809570848941803,0.0095139741897583,0.004241287708282471,0.010757923126220703,0.9511837142561693,-0.26976033300377295,0.14981304181058505,0.00590438361666426
1728667120578858500,0.1998583984375,-0.1945551484823227,0.011975831352174282,0.10115490108728409,0.2885262072086334,0.5123971104621887,-0.8088274598121643,0.010286659002304077,0.002464890480041504,0.011738836765289307,0.950984852148188,-0.27041971353788136,0.14986477817293326,0.006449134757753989
1728667120588888300,0.209888427734375,-0.23006892204284668,-0.005135670304298401,0.0887746661901474,0.28861793875694275,0.5136836171150208,-0.8079782128334045,0.010362774133682251,0.00047647953033447266,0.009424746036529541,0.9507574312965953,-0.2712513248170497,0.1497785436851793,0.007026345522842586
1728667120598919400,0.21991943359375,-0.25114279985427856,-0.007177249528467655,0.07630228251218796,0.2888513505458832,0.5152644515037537,-0.8068875074386597,-0.005617707967758179,-0.0015010833740234375,0.019259333610534668,0.9504662847593556,-0.2722546539948239,0.14977868537829442,0.007588787478913634
1728667120608949200,0.22994921875,-0.2487623244524002,0.01490030251443386,0.06616096198558807,0.2893323004245758,0.5170741081237793,-0.8055564165115356,-0.025263696908950806,-0.011718332767486572,0.008849263191223145,0.9501115995313919,-0.2733951631638982,0.14992288422124964,0.008129888377584115
1728667120618980400,0.23998046875,-0.22318719327449799,0.035264961421489716,0.055171966552734375,0.28990650177001953,0.5187775492668152,-0.8042537569999695,-0.02507495880126953,-0.012628316879272461,0.004067599773406982,0.9497650022766397,-0.27446265640742556,0.1501444774271046,0.008566834546401971
1728667120629010200,0.25001025390625,-0.1785665899515152,0.0394265241920948,0.04802217334508896,0.2905784249305725,0.5200501680374146,-0.8031886219978333,-0.02312237024307251,-0.011047542095184326,0.00046950578689575195,0.9494811344116622,-0.27527620094768895,0.1504283477145517,0.008937691353372242
1728667120639041300,0.260041259765625,-0.1483445018529892,0.03807497024536133,0.04580828920006752,0.2913401126861572,0.5209378004074097,-0.8023370504379272,-0.019123345613479614,-0.008486628532409668,-0.010056138038635254,0.9492537688434408,-0.2758651282624589,0.1507643708961086,0.00926690372151473
1728667120649071000,0.270071044921875,-0.1547975391149521,0.058687783777713776,0.07181619107723236,0.2922474443912506,0.5218747854232788,-0.8013975620269775,-0.007503241300582886,-0.000558316707611084,-0.010141074657440186,0.9490025867582269,-0.2764936500036374,0.15117034654251052,0.009630157187286157
1728667120659102200,0.280102294921875,-0.18445689976215363,0.035280726850032806,0.015003236941993237,0.2930237948894501,0.5229845643043518,-0.8003900051116943,0.010915994644165039,-0.00015741586685180664,0.007161855697631836,0.9487338951063676,-0.27721104632771937,0.15152234502998826,0.009947364099036522
1728667120669132300,0.29013232421875,-0.20330895483493805,0.08560679852962494,0.004835821688175201,0.29365187883377075,0.5243659019470215,-0.7992552518844604,0.01065412163734436,-0.01359325647354126,0.02746570110321045,0.9484336100611545,-0.27804918066881296,0.15185857165767097,0.01006358816972658
1728667120679163100,0.3001630859375,-0.2429695427417755,0.12167292833328247,0.050645653158426285,0.2945524752140045,0.5260358452796936,-0.7978252172470093,-0.03953233361244202,-0.02316725254058838,0.019245505332946777,0.9480550421991844,-0.27906924027399793,0.15234087334481913,0.01020787806131489
1728667120689193200,0.310193115234375,-0.2726019620895386,0.1407938301563263,0.04858250543475151,0.2955431640148163,0.5278034806251526,-0.7962899208068848,-0.03481626510620117,-0.03805750608444214,0.02511078119277954,0.9476476563094934,-0.280163115710045,0.15285175938180234,0.01042953448710319
1728667120699224300,0.320224365234375,-0.3117629289627075,0.1834329068660736,0.03015635907649994,0.2967604100704193,0.5298522114753723,-0.7944746017456055,-0.01837906241416931,-0.040914833545684814,0.04827404022216797,0.9471668852345613,-0.28142021706487663,0.15351012904008587,0.010590907022937295
1728667120709254100,0.330254150390625,-0.323490172624588,0.21325471997261047,0.03262484446167946,0.29827502369880676,0.53218674659729,-0.7923440933227539,-0.04467397928237915,-0.034307777881622314,0.048417091369628906,0.9466033106942878,-0.28284517837483847,0.15435851121896568,0.01068160511746703
1728667120719285200,0.34028515625,-0.3280596137046814,0.23301377892494202,0.039943210780620575,0.3000515103340149,0.5345256328582764,-0.790095865726471,-0.05217251181602478,-0.04561883211135864,0.04230839014053345,0.9460082883893826,-0.28428639438930803,0.1553490474794042,0.010778800109172048
1728667120729315300,0.3503154296875,-0.35304778814315796,0.267229288816452,0.02692408114671707,0.30210039019584656,0.5369977355003357,-0.7876349091529846,-0.036887407302856445,-0.04197216033935547,0.03617006540298462,0.9453569541718626,-0.28581458591409653,0.15650099491100203,0.010849334568505804
1728667120739346200,0.36034619140625,-0.43580207228660583,0.2948063313961029,0.0032658884301781654,0.30439627170562744,0.540044367313385,-0.7846623659133911,-0.03318658471107483,-0.019612908363342285,0.04783070087432861,0.9445710152906189,-0.28767410261152976,0.15783671444991423,0.010811391658112516
1728667120749376300,0.370376220703125,-0.578096866607666,0.3062991797924042,-0.00523705268278718,0.306748628616333,0.5440062880516052,-0.7810009717941284,-0.03259396553039551,-0.018524110317230225,0.04636651277542114,0.9436019082128716,-0.29007777786618194,0.1592306825297219,0.010769291298072678
1728667120759407400,0.380407470703125,-0.7750802040100098,0.34351474046707153,-0.02555564045906067,0.3091837763786316,0.5492778420448303,-0.7763370275497437,-0.016291320323944092,-0.030997872352600098,0.04876744747161865,0.9423653037471335,-0.2932731648524336,0.16069327182586465,0.010775348284363225
1728667120769437400,0.3904375,-1.090569019317627,0.4563976228237152,-0.07379081100225449,0.3119807541370392,0.5565649271011353,-0.7700023055076599,-0.008163005113601685,-0.040619492530822754,0.06294053792953491,0.9406839402623698,-0.29768132883690723,0.16243358607178604,0.010721885697685198
1728667120779468300,0.40046826171875,-1.4293291568756104,0.5480785369873047,-0.15878000855445862,0.31526824831962585,0.5667430758476257,-0.7611886858940125,-0.028342008590698242,-0.06219607591629028,0.09444063901901245,0.9383416563305447,-0.30382481134504485,0.1646090723252589,0.01044868797809006
1728667120789498400,0.410498291015625,-1.3255940675735474,0.495460569858551,-0.18994511663913727,0.3182011842727661,0.5779001712799072,-0.7515180110931396,-0.0596257746219635,-0.09712624549865723,0.12599921226501465,0.935766799723404,-0.31056034948082833,0.16671310694600625,0.009969098846140579
1728667120799529200,0.420529296875,-1.1664280891418457,0.4294176399707794,-0.21425871551036835,0.32045599818229675,0.5878860950469971,-0.7427636384963989,-0.04973456263542175,-0.10412150621414185,0.019893765449523926,0.93343143171581,-0.31659393639330313,0.16848283836556285,0.00935211666646926
1728667120809559300,0.430559326171875,-1.0319560766220093,0.46563422679901123,-0.2473815232515335,0.3224509060382843,0.5967093706130981,-0.7348219752311707,-0.01378089189529419,-0.03811568021774292,-0.05330979824066162,0.9313100868692932,-0.32191495817796867,0.17017575135612784,0.008508657566402946
1728667120819590400,0.44059033203125,-1.09109365940094,0.44171416759490967,-0.34608757495880127,0.3240266442298889,0.6053493618965149,-0.7270205020904541,-0.012014925479888916,0.029095768928527832,-0.013961553573608398,0.9292239229639606,-0.3270753968178482,0.1717889010365662,0.007285655620358493
1728667120829620500,0.450620361328125,-1.318827509880066,0.3431621789932251,-0.4458314776420593,0.3244163691997528,0.6153339147567749,-0.7184135913848877,0.0024116039276123047,-0.017097890377044678,0.036757707595825195,0.9269157509693101,-0.333010008008357,0.17290905336030693,0.005813824866256446
1728667120839651300,0.4606513671875,-1.6636052131652832,0.2065609246492386,-0.4716532230377197,0.3237261176109314,0.6274710297584534,-0.7081535458564758,0.019779711961746216,-0.05532759428024292,0.07344895601272583,0.9241519558914157,-0.3403197830007044,0.17350989534130723,0.004447436578132197
1728667120849681400,0.470681396484375,-2.3146426677703857,0.24276083707809448,-0.15239322185516357,0.32267433404922485,0.6423774361610413,-0.6951491832733154,0.04742756485939026,-0.08378380537033081,0.1325729489326477,0.9206285025996687,-0.34967079028705905,0.17365411080898027,0.004193202199760067
1728667120859712300,0.480712158203125,-3.12398362159729,-0.013428594917058945,0.5250726342201233,0.3261639177799225,0.6602939367294312,-0.6764827370643616,0.23812133073806763,-0.1499485969543457,0.23699909448623657,0.9155252527406182,-0.362025011062776,0.1752042201516216,0.007397458317345614
1728667120869742300,0.490742431640625,-3.198707342147827,-0.6281639933586121,0.5781073570251465,0.32737022638320923,0.6799103617668152,-0.6561635732650757,0.3276590406894684,-0.25208455324172974,0.1850026249885559,0.9098923376255087,-0.3761763883016718,0.17438333895699287,0.013331658690340262
1728667120879773400,0.5007734375,-3.0651016235351562,-0.7355921864509583,0.5529084801673889,0.32690325379371643,0.698340654373169,-0.6367530822753906,0.02389627695083618,-0.170493483543396,-0.09475326538085938,0.9044198350441622,-0.3898825660728831,0.17209019675249004,0.020031270789166132
1728667120889803500,0.510803466796875,-2.667335033416748,-0.5147953033447266,0.4354873299598694,0.3261985182762146,0.714994490146637,-0.6183666586875916,-0.16823959350585938,0.017991840839385986,-0.08459049463272095,0.899171737831991,-0.4024847774771029,0.1697724162979372,0.025950562264439737
1728667120899834400,0.52083447265625,-2.185548782348633,-0.23930034041404724,0.5058491230010986,0.3274041414260864,0.7283028960227966,-0.6019811034202576,-0.2092858850955963,0.11659139394760132,-0.10328012704849243,0.8944490905047858,-0.4129434667139452,0.16878133513032317,0.03084139980749792
1728667120909864200,0.5308642578125,-1.921773910522461,-0.1903664618730545,0.5708501935005188,0.3301694393157959,0.7385905981063843,-0.5877686142921448,-0.1402890980243683,0.09540891647338867,-0.017074525356292725,0.8902970453557715,-0.42151179529084487,0.1686519842306363,0.03543044940773751
1728667120919895300,0.540895263671875,-2.1469368934631348,-0.2490641325712204,0.5186951160430908,0.3330012857913971,0.7483978271484375,-0.5735946297645569,-0.1011439859867096,0.046981751918792725,0.10052633285522461,0.886110655166659,-0.4299105004777263,0.16846260913647376,0.04006444479015028
1728667120929925000,0.550925048828125,-2.8952243328094482,-0.28110334277153015,0.4430032968521118,0.3351140022277832,0.7609227895736694,-0.5556032657623291,-0.09941151738166809,-0.013959407806396484,0.2157900333404541,0.880789449721194,-0.4404993256135041,0.16780560718880488,0.04484816233504558
1728667120939956200,0.560956298828125,-3.9870011806488037,-0.31043434143066406,0.5277379155158997,0.33717647194862366,0.7780291438102722,-0.5300778746604919,-0.10977479815483093,-0.10728341341018677,0.29521459341049194,0.8732079825528336,-0.4551380506915749,0.1667645985447132,0.05046394896861053
1728667120949986300,0.570986328125,-5.139115810394287,-0.259346604347229,0.7630694508552551,0.3407498598098755,0.7992690801620483,-0.4950336515903473,-0.10088175535202026,-0.1846909523010254,0.2590717375278473,0.8626628048014254,-0.47434516329549387,0.16577042674470516,0.057702609950446654
1728667120960017200,0.58101708984375,-5.7780256271362305,-0.4808875024318695,1.0123754739761353,0.34642255306243896,0.8223962187767029,-0.4512823522090912,-0.11192551255226135,-0.22202402353286743,0.3203466832637787,0.8492037669570854,-0.4972191969728923,0.16471761629588696,0.06703773934945458
1728667120970047200,0.591047119140625,-6.1368088722229,-0.5144913196563721,0.8303337097167969,0.352117657661438,0.8446178436279297,-0.4032786190509796,-0.15326517820358276,-0.18118107318878174,0.24295452237129211,0.8340738108182709,-0.5213916218660326,0.162823409127718,0.07720126459280192
1728667120980078300,0.601078369140625,-6.2975664138793945,-0.6635695099830627,0.6488707065582275,0.35598888993263245,0.8657604455947876,-0.35175371170043945,-0.23867931962013245,-0.05379456281661987,0.18819469213485718,0.8175347613545063,-0.5464360608720444,0.15978353810426962,0.08668139840095081
1728667120990108200,0.611108154296875,-5.493657112121582,-0.6288872361183167,0.7520154714584351,0.3600623905658722,0.8829358220100403,-0.3012962341308594,-0.1416023075580597,0.02009451389312744,0.1173514723777771,0.8008679619578511,-0.5700169266625352,0.15630927027367128,0.09622188439188126
1728667121000138200,0.62113818359375,-3.7813894748687744,-0.43502724170684814,0.739759087562561,0.3654639422893524,0.892325222492218,-0.26493728160858154,-0.017258405685424805,0.21050363779067993,-0.15721243619918823,0.7883852436542802,-0.5863389200741667,0.15407150392820368,0.10448610796876386
1728667121010169300,0.63116943359375,-3.683746099472046,0.11525817215442657,0.46458131074905396,0.37035974860191345,0.8995338082313538,-0.2316734939813614,-0.09744107723236084,0.45324933528900146,-0.16717606782913208,0.7769909614447974,-0.6005698122671284,0.15322908818013298,0.11009920709755373
1728667121020200200,0.6412001953125,-3.518354654312134,0.14508770406246185,0.5204544067382812,0.3750322461128235,0.9054625630378723,-0.19871659576892853,-0.12422356009483337,0.2207428216934204,-0.21415579319000244,0.765718912202565,-0.6141101235293919,0.15333121462937363,0.11416114415905235
1728667121030230300,0.651230224609375,-3.943220615386963,-0.21381410956382751,0.6130006313323975,0.3801807165145874,0.9100534319877625,-0.16512171924114227,0.04431873559951782,-0.1495402455329895,-0.22466407716274261,0.7538803754948727,-0.6277587662774017,0.15283348712487038,0.11926905911702326
1728667121040261400,0.661261474609375,-4.570043563842773,-0.6194111108779907,0.5406877994537354,0.38493672013282776,0.9140461087226868,-0.12784093618392944,0.11364418268203735,-0.26399123668670654,-0.09351837635040283,0.7402927732278344,-0.6429813251891574,0.1505142869201056,0.12604366926621116
1728667121050291200,0.671291259765625,-5.165210723876953,-0.8211520314216614,0.3296125829219818,0.38819095492362976,0.9175752401351929,-0.08581050485372543,0.11383846402168274,-0.26523154973983765,-0.029179811477661133,0.7245895598364838,-0.6601206064440597,0.1460668805736053,0.13369819619936218
1728667121060321300,0.6813212890625,-5.529172897338867,-0.8673896193504333,0.1957477182149887,0.39000532031059265,0.919956624507904,-0.0396934412419796,0.08657240867614746,-0.18611574172973633,0.06419897079467773,0.7070229146144015,-0.678601615389921,0.14018961331514074,0.1412985107133212
1728667121070352400,0.691352294921875,-5.520744800567627,-0.9709530472755432,0.2355465292930603,0.39176613092422485,0.9200302362442017,0.007971077226102352,0.09591999650001526,-0.04676985740661621,0.05437624454498291,0.6883417057829398,-0.6972248769653508,0.13365256967183942,0.14899702197350218
1728667121080382500,0.701382568359375,-5.169349193572998,-1.0230801105499268,0.34917083382606506,0.39485079050064087,0.9171988368034363,0.053281910717487335,0.11198508739471436,0.09700697660446167,-0.028425458818674088,0.6698393160220629,-0.7144674699019937,0.12718958385681153,0.15708036374323958
1728667121090413300,0.711413330078125,-4.272109031677246,-0.9476777911186218,0.4910874664783478,0.3994472622871399,0.9120000600814819,0.09326128661632538,0.07552832365036011,0.2049279808998108,-0.12014734745025635,0.652800231810035,-0.7292708108162139,0.12163358582764139,0.1649883546863916
1728667121100443400,0.721443359375,-3.1389670372009277,-0.8204364776611328,0.5669974088668823,0.40530407428741455,0.9058254957199097,0.12332305312156677,0.028381168842315674,0.2576112747192383,-0.27229464054107666,0.6392771146158043,-0.7401576373853651,0.11759335518836722,0.17222993065271372
1728667121110474200,0.73147412109375,-2.2808525562286377,-0.6216914057731628,0.6061104536056519,0.4115893542766571,0.8998164534568787,0.14465263485908508,-0.006132841110229492,0.2781314253807068,-0.27004945278167725,0.629176177600449,-0.7477110863563038,0.11512797728814707,0.17835617504009518
1728667121120504300,0.74150439453125,-1.8734272718429565,-0.4969348609447479,0.596231997013092,0.41785937547683716,0.8941565155982971,0.16086430847644806,-0.02354183793067932,0.27742838859558105,-0.15173961222171783,0.6212079367829195,-0.75331100389671,0.11381866778051339,0.18348945757329668
1728667121130535400,0.751535400390625,-1.6569961309432983,-0.5145419836044312,0.6036608815193176,0.42402198910713196,0.8886548280715942,0.17463649809360504,-0.025615006685256958,0.22192561626434326,-0.0055844783782958984,0.6141949234677864,-0.7580160114760067,0.11282718094546249,0.18827188828472505
1728667121140565500,0.7615654296875,-1.2799478769302368,-0.5277634859085083,0.6046673059463501,0.4303307831287384,0.8834213614463806,0.18542355298995972,-0.005678743124008179,0.11206191778182983,0.003892168402671814,0.6083355767682711,-0.761664265825326,0.11215757913570738,0.19291431358131905
1728667121150596400,0.771596435546875,-1.302696943283081,-0.548829197883606,0.4978830814361572,0.436261385679245,0.8786201477050781,0.19417232275009155,-0.0031864047050476074,0.03663259744644165,0.02659180760383606,0.6032886681299127,-0.7646403126434314,0.11140625196582611,0.19737458934436228
1728667121160626400,0.78162646484375,-1.666733980178833,-0.5777588486671448,0.4588643014431,0.44150325655937195,0.8735705614089966,0.2048153132200241,-0.000005453824996948242,0.05982476472854614,0.09485197067260742,0.5973979503436025,-0.7683095517292823,0.11003676070364553,0.20176227914474884
1728667121170657300,0.7916572265625,-1.6110872030258179,-0.6298259496688843,0.4980572462081909,0.44692283868789673,0.8679093718528748,0.21677984297275543,0.024375438690185547,0.07705223560333252,0.1595475971698761,0.5907597416689656,-0.7724313334776137,0.10835016479385462,0.20642934922767003
1728667121180687000,0.80168701171875,-1.3699311017990112,-0.6817293763160706,0.5288937091827393,0.4528861343860626,0.8622757792472839,0.2266591340303421,0.0352119505405426,0.07346928119659424,0.06588229537010193,0.5848277027038542,-0.7758246421436327,0.10689101386161277,0.21129805460821682
1728667121190718500,0.811718505859375,-1.3330830335617065,-0.6517965793609619,0.4442733824253082,0.4586604833602905,0.8569223880767822,0.23519037663936615,-0.000942617654800415,0.103007972240448,0.0638664960861206,0.5794209609537797,-0.7787701113534945,0.10541489159011962,0.2160466159793867
1728667121200748300,0.821748291015625,-1.4115214347839355,-0.6708472371101379,0.3664667308330536,0.46371322870254517,0.8517501950263977,0.24390950798988342,-0.06262066960334778,0.13216710090637207,0.1661093533039093,0.5739480294315841,-0.7818087574858289,0.10358483209741992,0.22051978821167836
1728667121210779100,0.831779052734375,-1.325067162513733,-0.6714569926261902,0.3371213376522064,0.4683558940887451,0.8466783165931702,0.2525438666343689,-0.07484704256057739,0.11735665798187256,0.14821287989616394,0.5684761530388911,-0.7848379227992603,0.10149565002310325,0.22486183153396722
1728667121220809200,0.841809326171875,-1.103951096534729,-0.6610267162322998,0.32960882782936096,0.4728699028491974,0.8420159220695496,0.25962063670158386,-0.07025155425071716,0.08352106809616089,0.04868301749229431,0.5636735752708745,-0.7873407896696446,0.09952289517347578,0.22904507543714087
1728667121230840300,0.85184033203125,-0.9891287088394165,-0.6427174806594849,0.33917465806007385,0.4773973524570465,0.8376807570457458,0.26529693603515625,-0.058574140071868896,0.0904197096824646,-0.02555099129676819,0.5594906133898514,-0.7893552736835091,0.09780959039020654,0.2330701139860845
1728667121240870100,0.8618701171875,-0.907045841217041,-0.6377466917037964,0.3312664031982422,0.4819418489933014,0.8334884643554688,0.2702382206916809,-0.044594526290893555,0.12618237733840942,-0.02319851517677307,0.5556118064532575,-0.7911127709210557,0.09622731365441846,0.23701538710461328
1728667121250901200,0.8719013671875,-0.6048803329467773,-0.6805972456932068,0.32679200172424316,0.48647046089172363,0.8298023343086243,0.27344948053359985,-0.028279542922973633,0.12394827604293823,-0.06008589267730713,0.5524876942706893,-0.7923001623681482,0.09479028088921428,0.2408995663434716
1728667121260931600,0.881931640625,-0.37070220708847046,-0.7119194865226746,0.34477874636650085,0.4911630153656006,0.8268409371376038,0.27403077483177185,-0.005201131105422974,0.09369117021560669,-0.12570011615753174,0.5504995895552058,-0.7926233007851485,0.09361454867099861,0.24481583404175097
1728667121270962400,0.89196240234375,-0.005874908994883299,-0.690949559211731,0.3894551396369934,0.4961262047290802,0.8244605660438538,0.2722564935684204,0.0096873939037323,0.055773138999938965,-0.10978102684020996,0.5495504102809776,-0.7921521645431043,0.09286113566062804,0.24872901044212264
1728667121280992500,0.901992431640625,0.5858538746833801,-0.5878493189811707,0.42204102873802185,0.50123131275177,0.8232121467590332,0.26662519574165344,0.010533273220062256,0.005782663822174072,-0.09140858054161072,0.5504955295830074,-0.7903491053088021,0.09306386761582702,0.2522738416246213
1728667121291023600,0.912023681640625,1.0274816751480103,-0.4820134937763214,0.48184844851493835,0.5063377022743225,0.8231001496315002,0.2571544051170349,0.0038399100303649902,0.07240772247314453,-0.0967387855052948,0.553421562369311,-0.7871876722768111,0.09440746228752878,0.25523993400131234
1728667121301053400,0.922053466796875,1.474914312362671,-0.4220276474952698,0.5463981628417969,0.5117382407188416,0.8235861659049988,0.244601771235466,0.018764138221740723,0.2182077169418335,-0.15053138136863708,0.5578697378315293,-0.7828974522911613,0.09681150895073788,0.2578382318621856
1728667121311084500,0.93208447265625,1.7828104496002197,-0.4415024220943451,0.539215087890625,0.5172886252403259,0.8246822357177734,0.22871722280979156,0.016112864017486572,0.2264804244041443,-0.17045927047729492,0.5638315763333289,-0.7774211178768071,0.09987500748017013,0.2602600104974335
1728667121321114600,0.942114501953125,1.7064317464828491,-0.4290979504585266,0.4812590777873993,0.5225153565406799,0.8258919715881348,0.21184919774532318,0.004980921745300293,0.13275665044784546,-0.12736141681671143,0.5702309813301416,-0.771572181390169,0.10296100328197136,0.26251093942780973
1728667121331145500,0.9521455078125,1.2391737699508667,-0.4339495599269867,0.384295254945755,0.5269648432731628,0.8266968727111816,0.1971801221370697,0.007626771926879883,0.029107391834259033,-0.025823980569839478,0.575655726154937,-0.7664794660361997,0.1053531543017135,0.26463235016321973
1728667121341175600,0.962175537109375,0.5483317375183105,-0.47030651569366455,0.40036264061927795,0.5310225486755371,0.8263793587684631,0.18738287687301636,0.03986978530883789,-0.07840871810913086,0.09954334795475006,0.578811446212969,-0.7630871799649813,0.10672111530134465,0.2669942400097629
1728667121351206700,0.97220654296875,-0.015730535611510277,-0.561739444732666,0.4514316916465759,0.5355178117752075,0.8245713710784912,0.1824892908334732,0.11278223991394043,-0.19044679403305054,0.13867756724357605,0.5794976377155424,-0.76141458359669,0.10720297643255318,0.2700697336837918
1728667121361236500,0.982236572265625,-0.4491400122642517,-0.63682621717453,0.4189613461494446,0.540249764919281,0.8217548131942749,0.18124374747276306,0.1479063630104065,-0.23528331518173218,0.11677563190460205,0.578299833960303,-0.7610595781281605,0.10681850488027499,0.27376535881666164
1728667121371267600,0.992267578125,-0.6510899662971497,-0.6573769450187683,0.34003591537475586,0.5445500612258911,0.818659245967865,0.18237917125225067,0.12314403057098389,-0.16630029678344727,0.11416006088256836,0.5759513190742286,-0.761603857186596,0.10558953363459694,0.27765168959567943
1728667121381297700,1.002297607421875,-0.3363485634326935,-0.5988393425941467,0.33667927980422974,0.5484194159507751,0.8158544301986694,0.1833518147468567,0.10052168369293213,-0.05520373582839966,0.04762043058872223,0.5737631663039872,-0.7621005606543647,0.10430074025470962,0.281282795014605
1728667121391328500,1.01232861328125,0.42202192544937134,-0.5880195498466492,0.38131704926490784,0.5524519085884094,0.8139213919639587,0.17980234324932098,0.08573168516159058,0.020963311195373535,0.006263270974159241,0.5736888942828333,-0.7609735255225346,0.10402146786890994,0.2845696981582547
1728667121401358600,1.022358642578125,0.8917688727378845,-0.5323131084442139,0.3751771152019501,0.5565468668937683,0.8130216002464294,0.17103101313114166,0.050936102867126465,0.12150299549102783,-0.019785985350608826,0.5760701008509673,-0.7579741055777334,0.10483684127707986,0.28745054016721977
1728667121411389700,1.0323896484375,1.059132695198059,-0.4473249018192291,0.320413738489151,0.5602115392684937,0.8127034306526184,0.16023817658424377,0.0006710290908813477,0.25771594047546387,-0.010992035269737244,0.5795670536825323,-0.7542190388915999,0.10617311355485812,0.2897982270589703
1728667121421419500,1.04241943359375,0.9609010219573975,-0.31942686438560486,0.29494619369506836,0.5633016228675842,0.8125781416893005,0.14969207346439362,-0.020210862159729004,0.22219645977020264,-0.015063896775245667,0.5832001220534611,-0.7504992828200079,0.1076887251024222,0.2916015116741468
1728667121431450600,1.05245068359375,0.4372420608997345,-0.2291335016489029,0.2988980710506439,0.566113293170929,0.8119743466377258,0.14217258989810944,0.010088980197906494,-0.0037317276000976562,0.03759108483791351,0.5856801071059369,-0.7477850785228138,0.10910440131305546,0.2930740258871372
1728667121441480700,1.062480712890625,-0.49230632185935974,-0.27741584181785583,0.2704105079174042,0.5688083171844482,0.8103054761886597,0.14093245565891266,0.05768692493438721,-0.20625585317611694,0.2474493831396103,0.5853210612310304,-0.7473203510281268,0.10944643256610716,0.2948439183206646
1728667121451511600,1.072511474609375,-1.2716127634048462,-0.4592874050140381,0.1768139749765396,0.5711854100227356,0.807697057723999,0.14619407057762146,0.1123778223991394,-0.30363816022872925,0.3330843448638916,0.5817894891670625,-0.7493017731365347,0.10790686345212186,0.2973616873792784
1728667121461541600,1.082541748046875,-1.7112973928451538,-0.6296774744987488,0.018459223210811615,0.5728428959846497,0.8048316836357117,0.15523262321949005,0.13966631889343262,-0.3152381181716919,0.23726919293403625,0.5762450815259926,-0.7528030034416425,0.10442198433647983,0.30054183696285336
1728667121471572700,1.09257275390625,-1.9256596565246582,-0.7105321884155273,-0.07730644941329956,0.5735887885093689,0.802118182182312,0.16613925993442535,0.1140332818031311,-0.1822299361228943,0.1323530673980713,0.5697120519931616,-0.7570726941576856,0.09955181744775582,0.3039054591820294
1728667121481602600,1.1026025390625,-1.9521902799606323,-0.7302252054214478,-0.0032380837947130203,0.57448410987854,0.7989939451217651,0.1776973456144333,0.07570809125900269,0.005144059658050537,0.04447053372859955,0.5626698087229014,-0.7615463989364718,0.09431729703342161,0.3074961095760106
1728667121491633700,1.112633544921875,-1.7207605838775635,-0.6499025225639343,0.01656172052025795,0.5758570432662964,0.7955386638641357,0.18843218684196472,0.03666120767593384,0.08481705188751221,-0.07635653018951416,0.5559092900352145,-0.7656348974146951,0.08955054520556537,0.31104452603019767
1728667121501663700,1.122663818359375,-1.3496192693710327,-0.477034330368042,-0.00813883263617754,0.57700514793396,0.7925071120262146,0.19747795164585114,-0.02556777000427246,0.0544319748878479,-0.179671049118042,0.5501963730851207,-0.769034651449637,0.08558435927184462,0.31391870437844654
1728667121511694600,1.132694580078125,-0.87229323387146,-0.3063846230506897,0.0035106325522065163,0.5777269005775452,0.7903134226799011,0.2040492445230484,-0.05804318189620972,-0.021072208881378174,-0.14411284029483795,0.5460784859544224,-0.7714794381857717,0.08272908800360709,0.31586958493755707
1728667121521724700,1.142724609375,-0.49504658579826355,-0.21350954473018646,0.040717922151088715,0.5784422755241394,0.788779616355896,0.20792029798030853,-0.039837658405303955,-0.05516773462295532,-0.061191946268081665,0.5435293526830566,-0.7729105240814175,0.08105227143785566,0.31719952666754464
1728667121531755800,1.152755859375,-0.36151430010795593,-0.23864339292049408,0.06179524213075638,0.5793105959892273,0.7876112461090088,0.2099228799343109,0.00432276725769043,-0.015898048877716064,-0.0028307437896728516,0.5419344107201355,-0.7736665385092091,0.08000955136478227,0.31834823680440494
1728667121541785600,1.16278564453125,-0.3823423683643341,-0.34041157364845276,0.028374437242746353,0.5803041458129883,0.7865363955497742,0.21120546758174896,0.05937480926513672,0.026757121086120605,0.0022191107273101807,0.5404983062916581,-0.7742077603151303,0.07877233083016837,0.3197794933835363
1728667121551816700,1.172816650390625,-0.2885415554046631,-0.38873282074928284,-0.023420318961143494,0.5810589790344238,0.7858257293701172,0.211774542927742,0.10409116744995117,-0.007810533046722412,-0.1220833957195282,0.5393224658624474,-0.7745461932088719,0.07723641860878747,0.3213161082946986
1728667121561846500,1.182846435546875,-0.46783727407455444,-0.47111424803733826,-0.01052049733698368,0.5817506313323975,0.7852290272712708,0.21208827197551727,0.13487839698791504,-0.07752645015716553,-0.17079806327819824,0.5381532635783455,-0.7748268983063729,0.07541496160865487,0.3230276263162431
1728667121571877400,1.19287744140625,-0.8475496768951416,-0.4209381341934204,0.07802774757146835,0.5829919576644897,0.7836129665374756,0.21464140713214874,0.14752250909805298,-0.09464818239212036,-0.056270480155944824,0.5356925502335463,-0.7758580431813732,0.07324617077944694,0.3251349265965182
1728667121581907500,1.202907470703125,-1.0744951963424683,-0.36676838994026184,0.13790252804756165,0.5847529172897339,0.7808184027671814,0.21996992826461792,0.1325474977493286,-0.14922654628753662,-0.005599230527877808,0.5318709921165625,-0.777773775321522,0.07108390328149952,0.3273046930243852
1728667121591938600,1.2129384765625,-1.5515074729919434,-0.32977601885795593,0.11318280547857285,0.5865150094032288,0.7771672606468201,0.22805970907211304,0.07493823766708374,-0.21172231435775757,0.044645339250564575,0.526714968824714,-0.7806001642123673,0.06850723867714657,0.32945640361207734
1728667121601968600,1.22296875,-1.7707977294921875,-0.3535923957824707,0.10334881395101547,0.5881625413894653,0.7725165486335754,0.23933835327625275,0.018893063068389893,-0.1711220145225525,0.15409420430660248,0.5199474714697738,-0.7844836373056383,0.06522727144657753,0.3316404489647059
1728667121611999500,1.23299951171875,-1.5908700227737427,-0.22552232444286346,0.08269679546356201,0.5896409153938293,0.7678162455558777,0.2505626082420349,-0.016551434993743896,-0.09452229738235474,0.050767868757247925,0.5132291214157367,-0.7883147431069123,0.06197718022219698,0.3336382714080893
1728667121622029600,1.243029541015625,-1.259045124053955,0.03148471191525459,0.06493644416332245,0.5904453992843628,0.7636957764625549,0.26104170083999634,-0.06798452138900757,0.021368801593780518,-0.0402471125125885,0.5074544667825085,-0.7918098652472577,0.05964887752407203,0.33461770420727005
1728667121632060400,1.253060302734375,-1.0744150876998901,0.10171706229448318,0.07773613184690475,0.590749979019165,0.7602571845054626,0.27022793889045715,-0.10367423295974731,0.08218038082122803,0.010716766119003296,0.5027822456172211,-0.7948117571922408,0.058208553358638594,0.33480728063646764
1728667121642090500,1.263090576171875,-1.2506073713302612,0.07167687267065048,0.10010934621095657,0.5912168622016907,0.7565088868141174,0.27956485748291016,-0.08790582418441772,0.09657937288284302,-0.057244449853897095,0.49796709109463694,-0.7978416016531052,0.05684367432556073,0.33503160216135663
1728667121652121600,1.27312158203125,-1.3337591886520386,0.06337052583694458,0.06348342448472977,0.5916831493377686,0.7522832155227661,0.2897948622703552,-0.08776158094406128,0.04410356283187866,-0.029708832502365112,0.4925820618073343,-0.801159114158728,0.05514986480455936,0.3353587608609024
1728667121662151700,1.283151611328125,-1.2855032682418823,0.2071458101272583,0.05976245552301407,0.5917418599128723,0.7480233311653137,0.3005036413669586,-0.09149777889251709,-0.03771156072616577,-0.09914878010749817,0.48712349649646514,-0.8046071610927075,0.053470869076718726,0.3353487458902559
1728667121672182500,1.2931826171875,-1.126598596572876,0.3352148234844208,0.1377805471420288,0.5916076898574829,0.7437636852264404,0.3111528754234314,-0.07097774744033813,-0.00392603874206543,-0.19741389155387878,0.48201796875526454,-0.8079730151937844,0.052498036124230894,0.3347869724417669
1728667121682212600,1.303212646484375,-0.9041504263877869,0.3587590157985687,0.18618030846118927,0.5917502641677856,0.7395142912864685,0.3208591341972351,-0.05622774362564087,0.10730278491973877,-0.233929842710495,0.47747798244805834,-0.8109836737695251,0.05229766996261842,0.3340438833997541
1728667121692243500,1.313243408203125,-0.5292515158653259,0.30453941226005554,0.18358692526817322,0.5920311212539673,0.7360674738883972,0.3281821012496948,-0.06888365745544434,0.17430227994918823,-0.25629809498786926,0.47415992577855554,-0.8132129805177413,0.05268487108380036,0.33328847367272774
1728667121702273500,1.3232734375,-0.3007805049419403,0.3181699812412262,0.17449834942817688,0.5924009680747986,0.7336522340774536,0.33288922905921936,-0.08675521612167358,0.15956664085388184,-0.3217809200286865,0.47212558682653216,-0.8146104257661153,0.05342721532337286,0.3326450490334091
1728667121712304600,1.3333046875,-0.09301134198904037,0.5463246703147888,0.12824642658233643,0.5920794606208801,0.7320688962936401,0.33692246675491333,-0.1091083288192749,0.08441352844238281,-0.3248986303806305,0.47092362531460846,-0.8157620622866297,0.054712865261298226,0.3313149137595081
1728667121722334700,1.343334716796875,-0.031575679779052734,0.75694340467453,0.1302720308303833,0.5907525420188904,0.7311941385269165,0.3411250412464142,-0.12967777252197266,0.005439102649688721,-0.20651212334632874,0.4703807757749708,-0.8169107244466499,0.05673969530226587,0.3289061934308976
1728667121732365600,1.353365478515625,-0.07751280814409256,0.8332882523536682,0.1510137915611267,0.5889838337898254,0.730146586894989,0.346386194229126,-0.08674097061157227,0.02272188663482666,-0.0603908896446228,0.46963038128430107,-0.8183551559831398,0.059058695691657476,0.3259662495317711
1728667121742395600,1.363395751953125,0.10141699016094208,0.7853295207023621,0.271140456199646,0.5876205563545227,0.7289767265319824,0.3511333167552948,-0.01285254955291748,0.03763997554779053,-0.053739696741104126,0.46911752061245315,-0.8195942549083218,0.06190249158151733,0.3230509771813605
1728667121752426800,1.3734267578125,0.16110862791538239,0.7595241069793701,0.31545865535736084,0.5871503949165344,0.7276559472084045,0.3546421527862549,0.0136796236038208,0.032231688499450684,0.03824099898338318,0.4689105810318865,-0.8204161415418204,0.06510321370536226,0.320627042962541
1728667121762456600,1.38345654296875,0.24479898810386658,0.8333930373191833,0.27198949456214905,0.5864446759223938,0.7266345620155334,0.3578890860080719,-0.0225561261177063,0.060962975025177,0.06688499450683594,0.46901256025498395,-0.8211230980182466,0.0685667384642233,0.3179348780960936
1728667121772487700,1.39348779296875,0.2923656404018402,0.8574366569519043,0.16383931040763855,0.5849676728248596,0.7264408469200134,0.36068856716156006,-0.060645222663879395,0.1115260124206543,0.057157963514328,0.46958765536979985,-0.8216911232070571,0.07188872553432775,0.3148698541699929
1728667121782517800,1.403517822265625,0.34805500507354736,0.8298792839050293,0.05126457288861275,0.5827389359474182,0.7267172336578369,0.363726407289505,-0.06529825925827026,0.16117626428604126,0.06985196471214294,0.4701732197273073,-0.8223589517338307,0.07475937472449466,0.31156665394407645
1728667121792548600,1.413548583984375,0.7819288969039917,0.8895492553710938,-0.015970923006534576,0.5796516537666321,0.7288010716438293,0.36448973417282104,-0.055466532707214355,0.1870008111000061,-0.024203568696975708,0.4722344509498708,-0.8223159092574766,0.0777265567486225,0.30781437625863983
1728667121802578700,1.42357861328125,1.0863354206085205,1.1184040307998657,0.004777498543262482,0.576003909111023,0.7322213053703308,0.3634164035320282,-0.04670703411102295,0.21126019954681396,-0.10339149832725525,0.47568584807034364,-0.8216233800505159,0.08150592768342525,0.3033394031686593
1728667121812609800,1.43360986328125,1.2757011651992798,1.211235761642456,-0.020611481741070747,0.5716472268104553,0.736600935459137,0.3614393174648285,-0.012504220008850098,0.21876704692840576,-0.02965235710144043,0.48011508556023735,-0.8205506257125317,0.08611810867445671,0.29794263966763085
1728667121822639600,1.4436396484375,1.417067050933838,1.1482549905776978,0.07750123739242554,0.5675252676010132,0.7413047552108765,0.35830429196357727,0.06975793838500977,0.20469427108764648,0.009707063436508179,0.4850378841210618,-0.8190659199040401,0.09101192527958232,0.2925508295317779
1728667121832670700,1.453670654296875,1.658606767654419,1.037609577178955,0.19158706068992615,0.5647124648094177,0.7460723519325256,0.3528112471103668,0.1864013671875,0.038427770137786865,-0.06382513046264648,0.4907409117230734,-0.8167517322296634,0.09655170443987493,0.28769374200471853
1728667121842700500,1.463700439453125,1.2934015989303589,1.044875979423523,0.14022240042686462,0.5624434351921082,0.7503613233566284,0.3472973108291626,0.19285142421722412,-0.13964343070983887,-0.05042240023612976,0.4961473583713372,-0.8143994727079806,0.10199093154948805,0.2831769845332682
1728667121852731600,1.473731689453125,0.9138138890266418,1.075751543045044,0.07718032598495483,0.5594865679740906,0.7535644769668579,0.3451307415962219,0.10364514589309692,-0.15953987836837769,0.1699906587600708,0.49987744772510717,-0.81314218727213,0.10660750255587967,0.27849077452213356
1728667121862761500,1.483761474609375,0.7139835953712463,0.9764729738235474,0.1443665474653244,0.5567029714584351,0.7557876706123352,0.3447701334953308,0.059309542179107666,-0.13960742950439453,0.19656583666801453,0.5024638711962661,-0.8124824500184097,0.1107128307361491,0.27412565652695975
1728667121872792600,1.49379248046875,0.7199187278747559,0.8862809538841248,0.3721664249897003,0.555382490158081,0.7568057179450989,0.3446670174598694,0.044684648513793945,-0.08116185665130615,0.15498197078704834,0.5044359291499465,-0.8118509186380742,0.115028699710649,0.27057508523260304
1728667121882822400,1.503822509765625,0.8559545874595642,0.9977973699569702,0.3220153748989105,0.555048942565918,0.7574290037155151,0.3438340425491333,-0.015391349792480469,-0.030759751796722412,0.13526129722595215,0.5065721489838456,-0.810886469513891,0.11991725582744014,0.2673342356917789
1728667121892853500,1.513853515625,0.9734367728233337,1.142856240272522,0.04580136388540268,0.5527853965759277,0.7595149278640747,0.34287798404693604,-0.10432958602905273,0.04108321666717529,0.06668305397033691,0.5093564146618209,-0.8098827188852747,0.12461530414840964,0.26290113993326325
1728667121902883600,1.523883544921875,1.195643424987793,1.1487045288085938,-0.1088193729519844,0.5484136939048767,0.7633972764015198,0.3412725627422333,-0.12370055913925171,0.0856170654296875,0.08716359734535217,0.5129553149154078,-0.8087339742925669,0.12878523401448463,0.25737238049323025
1728667121912914400,1.53391455078125,1.30105721950531,1.1115728616714478,-0.0386836901307106,0.5440735220909119,0.7681586742401123,0.3375146687030792,-0.07269906997680664,0.09721297025680542,0.06170094013214111,0.5175133184653933,-0.8068873435144919,0.1330043023477612,0.25183845647923564
1728667121922944500,1.543944580078125,1.2034265995025635,1.237602949142456,-0.01809772476553917,0.5399462580680847,0.7725042104721069,0.3342078626155853,-0.03442269563674927,0.08420032262802124,0.07057711482048035,0.521811471455647,-0.8051015563322552,0.13753332889964376,0.24618840491015134
1728667121932975600,1.5539755859375,1.0852967500686646,1.314379096031189,-0.07491599768400192,0.5352796316146851,0.7765988707542419,0.33221960067749023,-0.04240548610687256,-0.02800273895263672,0.10573804378509521,0.5256024895064179,-0.8036853833654507,0.14212529996102255,0.24006706371816444
1728667121943005400,1.56400537109375,0.7833535075187683,1.2235422134399414,-0.06213175877928734,0.5304771065711975,0.7801283597946167,0.33165308833122253,0.00010150671005249023,-0.09917432069778442,0.09391441941261292,0.5285746696559154,-0.8027530425303508,0.14633558186713747,0.2340561362012231
1728667121953036500,1.57403662109375,0.5819050073623657,1.091078758239746,-0.04347312077879906,0.5262173414230347,0.7826182246208191,0.33257153630256653,0.08341699838638306,-0.07787585258483887,0.10430276393890381,0.5304539475516684,-0.8023667412217788,0.14997794570422857,0.22876357165552944
1728667121963066600,1.584066650390625,0.5449232459068298,0.8996281623840332,-0.043942369520664215,0.5225053429603577,0.7847495675086975,0.3334006071090698,0.14981210231781006,-0.04710930585861206,0.032169342041015625,0.5320133774916546,-0.8020381676399472,0.15308521178016368,0.22419044544187156
1728667121973097500,1.594097412109375,0.4857083559036255,0.7819778919219971,-0.011117312125861645,0.5194835066795349,0.7866228222846985,0.3337078094482422,0.17726314067840576,0.011259078979492188,0.011110126972198486,0.5334687700113522,-0.8016161461684007,0.15577376114793479,0.22035649733910287
1728667121983127600,1.60412744140625,0.518470823764801,0.7321856021881104,0.033257342875003815,0.5170686841011047,0.7881854176521301,0.33377233147621155,0.15279221534729004,0.09052258729934692,0.06349018216133118,0.5348200501049494,-0.8011256978589051,0.15837862171323344,0.21698251422556047
1728667121993158700,1.61415869140625,0.6865924000740051,0.7376471161842346,0.05193755403161049,0.5149704813957214,0.7900066375732422,0.3327082395553589,0.08300614356994629,0.06456178426742554,0.08832740783691406,0.5366469217073753,-0.8002342399660326,0.16118088905144948,0.21367246322627287
1728667122003188700,1.624188720703125,0.6492663621902466,0.6734635829925537,0.11417350172996521,0.5132611989974976,0.791833221912384,0.33100268244743347,0.028013765811920166,0.01174020767211914,0.08891913294792175,0.5386876595324788,-0.7991021644632998,0.16412515078952622,0.21050925166590884
1728667122013219600,1.634219482421875,0.5568618774414062,0.6837307810783386,0.13239456713199615,0.5120075345039368,0.7932044267654419,0.32965847849845886,-0.022948145866394043,-0.039572954177856445,0.2123182713985443,0.5404339182162486,-0.7980596874013783,0.16712262419767865,0.2076098197732056
1728667122023249700,1.644249755859375,0.3033028244972229,0.6548498272895813,0.07125798612833023,0.5106766819953918,0.794073760509491,0.32963016629219055,-0.061198651790618896,-0.05518221855163574,0.1772514283657074,0.541485237580502,-0.7974854864446963,0.16979982330256096,0.20488680554725333
1728667122033280500,1.654280517578125,0.13279208540916443,0.6405162811279297,-0.03268252685666084,0.5086883902549744,0.7946628928184509,0.33128106594085693,-0.06806033849716187,-0.08140605688095093,0.1227288544178009,0.5417448154560731,-0.7975625308722669,0.17185618366617744,0.20216848939093046
1728667122043310600,1.664310546875,0.07926309108734131,0.5746451616287231,-0.09653287380933762,0.5061132907867432,0.7953367233276367,0.3335994482040405,-0.05356818437576294,-0.09833061695098877,0.041232556104660034,0.5416804970821081,-0.7979668088362603,0.17334560695276388,0.19945529013539168
1728667122053341700,1.674341796875,0.14610230922698975,0.4997839331626892,-0.11903951317071915,0.5034485459327698,0.7962296605110168,0.33549657464027405,-0.03721630573272705,-0.08118754625320435,0.01864457130432129,0.5417287278122643,-0.7983178360675305,0.17446179540856374,0.1969307267580912
1728667122063371800,1.684371826171875,0.32765957713127136,0.45291364192962646,-0.12727774679660797,0.5008695721626282,0.7976250648498535,0.3360418379306793,-0.0404355525970459,-0.060442328453063965,-0.0357031524181366,0.5423577361815203,-0.7982630425947566,0.1754908206331102,0.19449226150154955
1728667122073402600,1.694402587890625,0.4409567713737488,0.43775227665901184,-0.119265615940094,0.49837297201156616,0.7995717525482178,0.33512550592422485,-0.05080223083496094,-0.054042696952819824,-0.08524766564369202,0.5436567950278015,-0.7977354340220344,0.17658124455538846,0.19202719394614284
1728667122083432700,1.7044326171875,0.4644562304019928,0.39106571674346924,-0.024044029414653778,0.4963373839855194,0.8015010356903076,0.3335340619087219,-0.044768840074539185,-0.08041656017303467,-0.05756369233131409,0.5451923310800554,-0.7969550942614133,0.1778471495805079,0.18973188629957335
1728667122093463600,1.714463623046875,0.4612146317958832,0.36808669567108154,-0.009123137220740318,0.4950512647628784,0.8030626773834229,0.33168455958366394,-0.007304072380065918,-0.15111571550369263,-0.05188417434692383,0.5467138482294032,-0.7960412896870309,0.17933359511963665,0.1877810464572254
1728667122103493600,1.72449365234375,0.2380891591310501,0.2417878806591034,-0.014840943738818169,0.49387726187705994,0.8043630719184875,0.33028021454811096,0.0224953293800354,-0.2001914381980896,-0.029346495866775513,0.5479023257549301,-0.7953511600323157,0.1804345809431113,0.18617953759104022
1728667122113524700,1.734524658203125,0.021314766258001328,0.0501934215426445,0.04286283254623413,0.49346134066581726,0.8046959042549133,0.33009111881256104,0.07675954699516296,-0.20902341604232788,0.052400797605514526,0.5482236924702943,-0.7951585716409261,0.18102045476084916,0.18548623057506142
1728667122123554800,1.744554931640625,-0.09039472043514252,-0.1753760576248169,0.10941709578037262,0.4942948520183563,0.8041874170303345,0.3300839066505432,0.09025415778160095,-0.2079959511756897,0.0405978262424469,0.5480547924509687,-0.7951367605729925,0.18110628614801963,0.1859947396976212
1728667122133585700,1.754585693359375,-0.14359316229820251,-0.30036529898643494,0.16145631670951843,0.4962085485458374,0.8031059503555298,0.32984495162963867,0.05124625563621521,-0.17453545331954956,-0.0018726587295532227,0.5476668389422097,-0.7951148016078772,0.18087269611501947,0.18745255408724057
1728667122143615500,1.764615478515625,-0.15434248745441437,-0.3500553369522095,0.17167752981185913,0.4986812174320221,0.8017551898956299,0.329401433467865,-0.014596223831176758,-0.11756652593612671,-0.03490689396858215,0.5472054193645878,-0.7950599031847437,0.18050061374031404,0.1893815728794222
1728667122153646600,1.774646484375,-0.10593566298484802,-0.2876527011394501,0.13293199241161346,0.5010246634483337,0.8005115985870361,0.32886937260627747,-0.07751709222793579,-0.061818480491638184,-0.07569566369056702,0.5468019668909381,-0.794983171150729,0.18010120115738665,0.19124009204150835
1728667122163676400,1.784676513671875,0.013104707933962345,-0.2936525344848633,0.09968270361423492,0.5028265118598938,0.7998220324516296,0.3277951180934906,-0.12395095825195312,-0.008562445640563965,-0.011129677295684814,0.5467819266184899,-0.7947297695010401,0.1797279920492441,0.19269599928867298
1728667122173707500,1.79470751953125,0.014820915646851063,-0.39659354090690613,0.11879169195890427,0.5048875212669373,0.7993079423904419,0.3258764445781708,-0.16113752126693726,0.042595863342285156,0.20280995965003967,0.5470576340876403,-0.7942394304968456,0.17922596536961566,0.1943958390608438
1728667122183737600,1.804737548828125,0.0542447529733181,-0.3345368504524231,0.04470733925700188,0.5068253874778748,0.7989456653594971,0.32374927401542664,-0.19862842559814453,0.07935011386871338,0.21885308623313904,0.5474211013451394,-0.7937123747058537,0.17859255627604928,0.19610044940439494
1728667122193768400,1.8147685546875,0.08700516074895859,-0.22645866870880127,-0.11791033297777176,0.5074414014816284,0.7993708252906799,0.32172855734825134,-0.21120738983154297,0.09932601451873779,0.04663380980491638,0.5480069404784067,-0.793260885248246,0.17776794069812357,0.19703812993516567
1728667122203798500,1.824798583984375,0.12977899610996246,-0.18344542384147644,-0.202722430229187,0.5067271590232849,0.8005545139312744,0.31990623474121094,-0.1594828963279724,0.10500878095626831,0.004983782768249512,0.5487527902833701,-0.7929361197088173,0.17665057165560588,0.1972745118215831
1728667122213829600,1.83482958984375,0.26448047161102295,-0.2724074125289917,-0.15793952345848083,0.5059128403663635,0.8021326065063477,0.3172304630279541,-0.050407588481903076,0.05782210826873779,-0.02645912766456604,0.5499075847912271,-0.792348227378032,0.1754979033476312,0.1974495563665718
1728667122223859500,1.844859375,0.34501951932907104,-0.45141419768333435,-0.03159355744719505,0.506256103515625,0.8036099672317505,0.3129141330718994,0.05812060832977295,-0.009100258350372314,-0.05189746618270874,0.5515486989935424,-0.791223742485648,0.1744191839248525,0.19833502278723056
1728667122233890600,1.854890625,0.33476948738098145,-0.59716796875,0.0931297317147255,0.5081732869148254,0.8045105338096619,0.30744463205337524,0.11682659387588501,-0.05655539035797119,0.014271557331085205,0.5533430500636282,-0.7897104767980612,0.17343493652867992,0.20022225573485014
1728667122243920600,1.864920654296875,0.18739496171474457,-0.6785605549812317,0.16411788761615753,0.5111954212188721,0.8046610355377197,0.3019924461841583,0.12611830234527588,-0.05992549657821655,0.07366356253623962,0.5548344448759265,-0.7881975537493646,0.17245533646289332,0.20288511911350487
1728667122253951500,1.874951416015625,-0.026863547042012215,-0.711207389831543,0.1755036860704422,0.5147015452384949,0.8039867877960205,0.2978038489818573,0.10047167539596558,-0.02090585231781006,0.1327226758003235,0.5555464802278189,-0.7871280706820648,0.17126391413102093,0.2060728181072621
1728667122263982300,1.884982421875,-0.10514184087514877,-0.6723401546478271,0.14518865942955017,0.5180683135986328,0.8029237389564514,0.2948189973831177,0.06776225566864014,0.020043611526489258,0.111888587474823,0.5556750008589713,-0.7864759758794513,0.1698971296738577,0.20932180124623295
1728667122274013200,1.89501318359375,-0.06766530871391296,-0.6747843027114868,0.13079828023910522,0.5211330056190491,0.8019400238990784,0.29208317399024963,0.04621928930282593,0.04170316457748413,0.05978444218635559,0.5557320635950312,-0.7859121752865501,0.16847445111272694,0.2124154043735406
1728667122284043300,1.905043212890625,0.05289945751428604,-0.6789920926094055,0.141074076294899,0.524196982383728,0.8011966347694397,0.2886192202568054,0.034533917903900146,0.04526931047439575,0.03660649061203003,0.5561108848144891,-0.7851034610161522,0.16709928717101777,0.21547831250386884
1728667122294074400,1.915074462890625,0.1789378821849823,-0.6591903567314148,0.15598244965076447,0.5273217558860779,0.8007594347000122,0.2841047942638397,0.01877492666244507,0.03455221652984619,0.026991188526153564,0.5569872300116275,-0.7839096401841987,0.16594600774478674,0.21843214095827262
1728667122304104400,1.9251044921875,0.19156979024410248,-0.6060293912887573,0.15559017658233643,0.5303692817687988,0.8004556894302368,0.27924710512161255,-0.0007672905921936035,0.009846985340118408,0.06297695636749268,0.558074424642043,-0.7825587553349416,0.1650010292131448,0.22119973521332373
1728667122314135300,1.93513525390625,0.2263619303703308,-0.5430998206138611,0.17875860631465912,0.5333059430122375,0.8001277446746826,0.2745549976825714,-0.005046665668487549,-0.025774657726287842,0.061702877283096313,0.5591578098678709,-0.781211592499678,0.1642740148688224,0.22375228247777368
1728667122324165400,1.945165283203125,0.24219068884849548,-0.5051832795143127,0.21146728098392487,0.5362962484359741,0.7997390031814575,0.2698221206665039,0.014240920543670654,-0.07100969552993774,0.01585283875465393,0.5603067253365058,-0.7797884587037285,0.1638323080879834,0.22615335221920338
1728667122334196200,1.9551962890625,0.18028850853443146,-0.4909919202327728,0.26271581649780273,0.5395050644874573,0.7990463972091675,0.26544079184532166,0.035156071186065674,-0.0996142029762268,0.00938519835472107,0.5612814812901744,-0.7784299030135472,0.16360709063119644,0.22856638742798152
1728667122344226300,1.965226318359375,0.14166201651096344,-0.5119054317474365,0.43822452425956726,0.5435681939125061,0.797600269317627,0.26147109270095825,0.06405198574066162,-0.13561314344406128,-0.039211660623550415,0.5619074136862846,-0.777131438137585,0.16371400629108013,0.23135337745401044
1728667122354257400,1.97525732421875,0.07956255972385406,-0.5206984877586365,0.5280268788337708,0.5488861203193665,0.7951836585998535,0.25769558548927307,0.16609495878219604,-0.1849694848060608,-0.31998205184936523,0.5622138500584497,-0.7757838607515184,0.16433866414471726,0.23466533158235978
1728667122364287500,1.98528759765625,0.07587061822414398,-0.6055265665054321,0.47303685545921326,0.554450273513794,0.7924827933311462,0.25407880544662476,0.24570542573928833,-0.21997302770614624,-0.44099900126457214,0.5623084116880381,-0.7745126532253951,0.16483190457433178,0.23826436138950738
1728667122374318300,1.995318359375,-0.13806402683258057,-0.7270993590354919,0.2247982770204544,0.5588012337684631,0.7904586791992188,0.2508305609226227,0.2516844868659973,-0.2283097505569458,-0.25525572896003723,0.5622701607163735,-0.7735693914505303,0.16433406217744345,0.24173718461611912
1728667122384348400,2.005348388671875,-0.27039358019828796,-0.9893706440925598,0.27044057846069336,0.5628563165664673,0.7885414361953735,0.24777960777282715,0.13028937578201294,-0.16656285524368286,0.2735062539577484,0.5618037537460764,-0.7729580211100896,0.16255982925960077,0.24594017324187334
1728667122394379300,2.015379150390625,-0.5581024885177612,-0.9893108606338501,0.28539690375328064,0.5675591230392456,0.7859967947006226,0.24512335658073425,0.04405885934829712,-0.11335897445678711,0.3985837697982788,0.5607767835976273,-0.7725613250589664,0.16034549612011192,0.2509334999235098
1728667122404409300,2.025409423828125,-0.9094123244285583,-0.7349584698677063,0.4298153221607208,0.5725137591362,0.7821062803268433,0.24604424834251404,-0.10886019468307495,0.06674009561538696,0.5396155118942261,0.5580974206554716,-0.7732821314618498,0.1582936068691263,0.25593973530855935
1728667122414440400,2.0354404296875,-0.7530598640441895,-0.2497813105583191,0.44385287165641785,0.5772422552108765,0.7773841619491577,0.2499307543039322,-0.18481671810150146,0.15201348066329956,0.49431660771369934,0.5545806869431827,-0.7746834905520664,0.15757814034015077,0.2597594289459054
1728667122424470500,2.045470458984375,-0.4746071696281433,0.031179513782262802,0.22529548406600952,0.5801375508308411,0.7738356590270996,0.25420212745666504,-0.20162808895111084,0.22152560949325562,0.10279235243797302,0.5518019876647502,-0.7760074359887564,0.15784020047654118,0.2615596430248698
1728667122434501400,2.05550146484375,0.08189448714256287,0.13655366003513336,0.09798813611268997,0.5809888243675232,0.7724294662475586,0.25652414560317993,-0.1996259093284607,0.26176542043685913,-0.017663121223449707,0.5506404725808539,-0.7766585597960527,0.15831471407173112,0.26178803257746674
1728667122444531500,2.065531494140625,0.8316593170166016,0.20326878130435944,0.28504884243011475,0.5819478631019592,0.7725576162338257,0.2539511024951935,-0.073677659034729,0.22193390130996704,-0.23469460010528564,0.5520792619660171,-0.7754534889069443,0.16014816726419906,0.26121419860515793
1728667122454562300,2.075562255859375,1.0032742023468018,0.14217570424079895,0.42643046379089355,0.5843744277954102,0.7728165984153748,0.24750973284244537,0.07460695505142212,0.10964500904083252,-0.31945499777793884,0.5551995806636574,-0.7727037308295095,0.16335179494331448,0.2607653435670395
1728667122464592400,2.08559228515625,0.6613571047782898,0.038266345858573914,0.3887653648853302,0.5873798131942749,0.7724318504333496,0.24152424931526184,0.0728679895401001,-0.011826932430267334,-0.16480311751365662,0.557836931884889,-0.7701285270829253,0.16632551983596539,0.260875151187533
1728667122474623500,2.09562353515625,0.18713629245758057,-0.032851189374923706,0.21072958409786224,0.5897713303565979,0.7716451287269592,0.23818817734718323,0.048290133476257324,-0.14391380548477173,-0.1788926124572754,0.5590910589329359,-0.768665370152242,0.16807032962381302,0.2613869017105515
1728667122484653300,2.1056533203125,-0.27623215317726135,-0.03997780755162239,0.061107881367206573,0.5908042192459106,0.7707797288894653,0.23843075335025787,-0.003111898899078369,-0.18754297494888306,-0.07777103781700134,0.5587334002554668,-0.7686802666368682,0.16836276814472587,0.26191931332356616
1728667122494684400,2.115684326171875,-0.4023134708404541,-0.003554604947566986,0.09531432390213013,0.5914556384086609,0.7694571018218994,0.24107231199741364,-0.041605234146118164,-0.10397559404373169,0.04219174385070801,0.5572573473359673,-0.7695955211319043,0.16810379623663324,0.2625414934342432
1728667122504714200,2.12571435546875,-0.30541250109672546,0.15175561606884003,0.07796835899353027,0.5920144319534302,0.7680210471153259,0.24425961077213287,-0.050418972969055176,0.013030648231506348,-0.04089054465293884,0.5556904335246311,-0.7706080644353069,0.16820528853933106,0.26282770971742053
1728667122514745300,2.135745361328125,-0.20985133945941925,0.29104679822921753,0.04209237918257713,0.5918878316879272,0.7670395374298096,0.24762730300426483,-0.10011225938796997,0.1180618405342102,-0.023078978061676025,0.5544073902026793,-0.7715913936268867,0.1687020180709404,0.26233351182225156
1728667122524775200,2.145775146484375,0.01879808120429516,0.3497692346572876,0.07660188525915146,0.5915287733078003,0.7664317488670349,0.2503513991832733,-0.08734792470932007,0.14436525106430054,-0.05555787682533264,0.5536567712505943,-0.7722536241085369,0.1697057517195807,0.2613204259599772
1728667122534806300,2.15580615234375,0.23659992218017578,0.3233167231082916,0.032182756811380386,0.591131329536438,0.7664094567298889,0.2513570487499237,-0.04800999164581299,0.10265481472015381,-0.1377706527709961,0.5537987351692278,-0.7722814322440646,0.1710552733085365,0.2600547657031805
1728667122544836400,2.16583642578125,0.3596973419189453,0.27657613158226013,-0.007555068004876375,0.5904257297515869,0.7671367526054382,0.2507963180541992,-0.07480072975158691,0.05609023571014404,-0.04976186156272888,0.5547079140022928,-0.7718217925171431,0.1723057951826144,0.2586522943812596
1728667122554867200,2.1758671875,0.35596904158592224,0.32523104548454285,0.08094124495983124,0.5899498462677002,0.7678465843200684,0.2497413158416748,-0.08306819200515747,0.039953649044036865,-0.008210062980651855,0.5558080960089747,-0.7711651840402964,0.1737092796467262,0.2573066245180303
1728667122564897300,2.185897216796875,0.36286690831184387,0.5068501234054565,0.1537853479385376,0.5898698568344116,0.7679979801177979,0.24946463108062744,-0.03377854824066162,0.04322028160095215,-0.054747313261032104,0.5566533473367558,-0.7706019822394236,0.1757979031243081,0.2557434980283907
1728667122574928400,2.195928466796875,0.3892326056957245,0.6424276828765869,0.12086308747529984,0.5895183086395264,0.7681031227111816,0.24997113645076752,0.009587466716766357,0.02375161647796631,0.010038480162620544,0.5574270141868333,-0.77015182199131,0.17847054889000005,0.25355368792611466
1728667122584958200,2.205958251953125,0.32720091938972473,0.574052631855011,0.036087751388549805,0.5885574221611023,0.7685536742210388,0.25084832310676575,0.08108961582183838,0.009568095207214355,0.07892447710037231,0.558170347830335,-0.7698522801163074,0.18097411322887003,0.2510408030915325
1728667122594988300,2.21598828125,0.23378820717334747,0.3606936037540436,-0.03025611862540245,0.5873753428459167,0.7692461609840393,0.2514953315258026,0.1547052264213562,-0.014638245105743408,0.15156537294387817,0.5588128559103488,-0.7696639411788007,0.1826611305424903,0.24895836959382425
1728667122605019400,2.226019287109375,0.08750291168689728,0.15124796330928802,-0.045394059270620346,0.5864248275756836,0.7698948979377747,0.25172874331474304,0.17715531587600708,-0.06431335210800171,0.18804460763931274,0.5592532957233964,-0.7695642185132578,0.18339926176266177,0.2477321207634907
1728667122615049500,2.236049560546875,-0.0991918072104454,0.1253562867641449,-0.07836399227380753,0.5856600403785706,0.7702273726463318,0.2524908781051636,0.1404598355293274,-0.10953724384307861,0.1096305251121521,0.5591919501309968,-0.7697862155189095,0.1835064441885021,0.24710066555690252
1728667122625080300,2.246080322265625,-0.204231396317482,0.18579646944999695,-0.10569867491722107,0.5845211744308472,0.7703766822814941,0.25466567277908325,0.05898761749267578,-0.11395889520645142,0.038699716329574585,0.5585384610421019,-0.7705239912734216,0.18337288206786856,0.24637750700446379
1728667122635110400,2.2561103515625,-0.1406259387731552,0.2515069246292114,-0.07304991781711578,0.5832428932189941,0.7704555988311768,0.25734376907348633,-0.006384432315826416,-0.09870266914367676,-0.004093766212463379,0.5577490888018264,-0.7713877889269741,0.18339238742954428,0.24544660358063414
1728667122645141200,2.266141357421875,-0.016857385635375977,0.28662818670272827,-0.02237076684832573,0.5821491479873657,0.7705413103103638,0.25955426692962646,-0.024928689002990723,-0.046542346477508545,-0.07385492324829102,0.5572500798897784,-0.7719923084135089,0.18386137823616136,0.24432601509958182
1728667122655171300,2.27617138671875,0.1311475932598114,0.3019115924835205,0.05560819059610367,0.5814927220344543,0.7705888152122498,0.2608810365200043,-0.03409898281097412,0.014369010925292969,-0.04593062400817871,0.5571614941247466,-0.7721932995778641,0.1848189065257202,0.24316759069101962
1728667122665202400,2.286202392578125,0.26494213938713074,0.2981538474559784,0.10938087105751038,0.581402599811554,0.7706212401390076,0.26098647713661194,-0.04185175895690918,-0.0013799071311950684,-0.048736780881881714,0.5575912771424175,-0.7718841527329038,0.18624740730231992,0.24207177432175775
1728667122675232500,2.296232421875,0.23468856513500214,0.33095237612724304,0.0968075543642044,0.581381618976593,0.7706946730613708,0.2608160972595215,-0.06075173616409302,-0.02589792013168335,-0.052549004554748535,0.5581738198037229,-0.7714423762780331,0.1878422600279264,0.24090221027485326
1728667122685263400,2.306263427734375,0.034718725830316544,0.3173398971557617,0.09016723185777664,0.5812532305717468,0.7705063223838806,0.2616574168205261,-0.08079546689987183,-0.000517427921295166,0.014786005020141602,0.558287699456057,-0.7713587973481654,0.18929954244678707,0.23976262214201124
1728667122695293400,2.31629345703125,-0.15293532609939575,0.28228622674942017,0.09260402619838715,0.5811775326728821,0.7697823643684387,0.26394596695899963,-0.05998319387435913,0.06440025568008423,0.023056477308273315,0.5576150685037893,-0.7718305590984531,0.19039584652813682,0.2389399846088779
1728667122705324300,2.32632421875,-0.1361217200756073,0.2532537877559662,0.015157434158027172,0.5809454917907715,0.7690023183822632,0.26671677827835083,-0.02915710210800171,0.12127178907394409,-0.015663951635360718,0.556680407990586,-0.7725269621403689,0.19120794028466162,0.2382195551883818
1728667122715354400,2.336354248046875,-0.06093283370137215,0.19296735525131226,-0.11853324621915817,0.5799406170845032,0.7690324187278748,0.26880794763565063,-0.028686463832855225,0.1713513731956482,-0.030816704034805298,0.5561382094939412,-0.7731240954225566,0.19152836104665455,0.23728930631629744
1728667122725385500,2.346385498046875,0.09746825695037842,0.07507666200399399,-0.13509146869182587,0.5785145163536072,0.7698585391044617,0.2695155739784241,-0.03623247146606445,0.20516276359558105,-0.027572304010391235,0.5562069074145806,-0.7733917427057019,0.19137138268485362,0.23638106388307142
1728667122735415600,2.35641552734375,0.3289589285850525,0.04853464290499687,-0.11163699626922607,0.5774566531181335,0.7711376547813416,0.26812347769737244,-0.03976750373840332,0.13570725917816162,-0.09035876393318176,0.5571516741399459,-0.7729518189678863,0.1913301539217494,0.2356271048223817
1728667122745446400,2.3664462890625,0.3079513907432556,0.10673350095748901,-0.11100050061941147,0.5763847827911377,0.7726845145225525,0.26596763730049133,-0.07908570766448975,0.07480370998382568,-0.07459202408790588,0.5585088452593899,-0.7722120672036379,0.19150022296956412,0.23469955951528038
1728667122755476200,2.376476318359375,0.2333248257637024,0.14444269239902496,-0.0683228150010109,0.5753543376922607,0.7738937139511108,0.26468002796173096,-0.08037459850311279,0.08700704574584961,-0.002610504627227783,0.5595047346312659,-0.7717130340826228,0.19183068290438568,0.23369696144046112
1728667122765507600,2.386507568359375,0.21406537294387817,0.15115971863269806,-0.11566582322120667,0.5743096470832825,0.7749671339988708,0.2638070583343506,-0.036361098289489746,0.0774649977684021,-0.020109087228775024,0.5603228208402556,-0.771340970538729,0.1921890668389776,0.232668700910157
1728667122775537200,2.396537109375,0.20438459515571594,0.1318044513463974,-0.20317012071609497,0.5726938843727112,0.7764245271682739,0.263033390045166,-0.02128702402114868,0.0715673565864563,0.006818175315856934,0.5611636522011415,-0.7710838475921147,0.1922144672443208,0.23147049886404206
1728667122785568300,2.406568359375,0.29177647829055786,0.07071366161108017,-0.1957518756389618,0.5708094239234924,0.7782412767410278,0.2617573142051697,0.010947108268737793,0.07901263236999512,0.03308817744255066,0.5622344667923734,-0.7707239698198375,0.19199796695940682,0.230246925528742
1728667122795598300,2.416598388671875,0.40160757303237915,0.023160308599472046,-0.16298940777778625,0.5693413019180298,0.7801417708396912,0.25928574800491333,0.05498725175857544,0.04242897033691406,-0.009499460458755493,0.5637323867153073,-0.7699620022867791,0.1918368754770784,0.22926583111429866
1728667122805629200,2.426629150390625,0.41185566782951355,0.03623856231570244,-0.1881919652223587,0.5678879618644714,0.7822160124778748,0.25620606541633606,0.05042874813079834,-0.049748241901397705,-0.05984073877334595,0.5655091182726072,-0.7689880230105293,0.1917301632069795,0.22824650653426184
1728667122815659300,2.4366591796875,0.2768275737762451,0.036840010434389114,-0.1447097361087799,0.5664417743682861,0.7840900421142578,0.2536667287349701,0.015314936637878418,-0.13951295614242554,-0.0009658932685852051,0.5670192521827063,-0.7682017340733072,0.19157101931606982,0.2272793964146464
1728667122825690400,2.4466904296875,0.10717354714870453,0.015956565737724304,-0.08281120657920837,0.5655069351196289,0.7851914763450623,0.2523411512374878,0.03187459707260132,-0.17569446563720703,0.05686280131340027,0.5678441363943737,-0.7678017910759021,0.19144445331592472,0.22667679227508494
1728667122835720200,2.45672021484375,-0.010889042168855667,-0.02435394562780857,-0.10322459787130356,0.5648000836372375,0.7858110666275024,0.2519954741001129,0.036747097969055176,-0.15807980298995972,0.13743925094604492,0.5681138013973152,-0.7677639381399015,0.19114463978719645,0.22638225832026132
1728667122845751300,2.466751220703125,0.03527233004570007,-0.09409308433532715,-0.12615175545215607,0.5640349984169006,0.7864629626274109,0.2516750693321228,0.02734982967376709,-0.10827088356018066,0.15936613082885742,0.5682946658793755,-0.7678132844261436,0.19052634989575043,0.22628208699988944
1728667122855781400,2.476781494140625,0.1685546189546585,-0.10347619652748108,-0.12799572944641113,0.5632757544517517,0.7874529361724854,0.2502762973308563,0.017717838287353516,-0.07700377702713013,0.08663761615753174,0.568934357870815,-0.7675272428785573,0.18984225970886892,0.22622010653261956
1728667122865812200,2.486812255859375,0.2638704776763916,-0.040801893919706345,-0.07897012680768967,0.5626259446144104,0.7885925769805908,0.24814008176326752,-0.005787074565887451,-0.07992875576019287,0.03214845061302185,0.5699605703902598,-0.7669231854947681,0.18946996110770056,0.22599731040894167
1728667122875842300,2.49684228515625,0.24308817088603973,0.01690097525715828,-0.031189292669296265,0.5622248649597168,0.7895504832267761,0.24599412083625793,-0.022170603275299072,-0.1377103328704834,0.0013507604598999023,0.5710437543104594,-0.7662095613919787,0.18952564571643796,0.2256367008456218
1728667122885873400,2.506873291015625,0.09220384806394577,0.06877882033586502,0.0325220450758934,0.5620905160903931,0.7899834513664246,0.24490931630134583,-0.02136474847793579,-0.18782579898834229,0.0097292959690094,0.5716594652993351,-0.7657741131032728,0.18985432610984462,0.2252795150955541
1728667122895903200,2.5169033203125,-0.06910168379545212,0.01745331473648548,0.07565433531999588,0.5624443292617798,0.7896744012832642,0.2450929880142212,0.0049384236335754395,-0.18547213077545166,0.05463528633117676,0.5715861639325743,-0.7657420668571735,0.1902250741158613,0.225261426684198
1728667122905934300,2.526934326171875,-0.19509637355804443,-0.015242580324411392,0.03258223086595535,0.5631636381149292,0.7887418866157532,0.24644078314304352,0.0316239595413208,-0.14025849103927612,0.03502276539802551,0.5708375172279068,-0.7661363025674061,0.19040893053725075,0.2256638472734502
1728667122915964400,2.53696435546875,-0.20616339147090912,-0.048296403139829636,0.009294752962887287,0.5636342167854309,0.7877877354621887,0.24840930104255676,0.03347277641296387,-0.04878920316696167,0.06749337911605835,0.5698019682431813,-0.7668009923797284,0.19031787089070903,0.2260998827844305
1728667122925995300,2.546995361328125,-0.14281132817268372,-0.08182933181524277,-0.012730388902127743,0.56393963098526,0.787071704864502,0.24997961521148682,0.04369574785232544,0.03353053331375122,0.07159923017024994,0.5689370739024648,-0.7673788034732102,0.19005151769251027,0.22654061001480508
1728667122936025300,2.557025390625,-0.0251572597771883,-0.05652743577957153,-0.040266409516334534,0.5639939904212952,0.7868477702140808,0.25056126713752747,0.028046905994415283,0.07324421405792236,0.03395399451255798,0.5685623434075194,-0.7676521567454648,0.18971242310983408,0.22683928842470852
1728667122946056400,2.567056396484375,0.11904971301555634,-0.022593703120946884,-0.02279687114059925,0.5639040470123291,0.7870571613311768,0.25010594725608826,0.004455268383026123,0.06656515598297119,0.003662794828414917,0.5687509367161034,-0.7675373569848648,0.189576841257758,0.22686844774529688
1728667122956086300,2.577086181640625,0.20516681671142578,0.05422049015760422,0.0077850064262747765,0.563989520072937,0.7873445153236389,0.2490067034959793,0.007436871528625488,0.02793252468109131,-0.07665872573852539,0.5692955979793874,-0.7671120670274156,0.18984842770909952,0.22671378242928508
1728667122966117400,2.587117431640625,0.22564466297626495,0.08777205646038055,0.006047293543815613,0.5641009211540222,0.7876284718513489,0.24785397946834564,0.009385406970977783,-0.0182192325592041,-0.084432452917099,0.569956651289067,-0.7665845229622203,0.19046039367476855,0.22632376968729
1728667122976147500,2.5971474609375,0.13664793968200684,-0.005209547001868486,-0.003471909323707223,0.564282238483429,0.7877713441848755,0.24698506295681,0.02211296558380127,-0.022665202617645264,-0.012076139450073242,0.5704379205159218,-0.7661766470218312,0.19096040627330288,0.22607067889763546
1728667122986178300,2.60717822265625,0.02182789146900177,-0.11518371850252151,-0.05552445724606514,0.564498782157898,0.7878597378730774,0.24620813131332397,0.038086116313934326,0.010922729969024658,0.03957369923591614,0.5707010086743269,-0.7659397717402526,0.19089350300604932,0.22626617806000757
1728667122996208400,2.61720849609375,-0.04986080899834633,-0.1327071636915207,-0.09579278528690338,0.5643050670623779,0.788101851940155,0.2458757907152176,0.0026656389236450195,0.050948262214660645,0.10237547755241394,0.5707191118880625,-0.7659868009938906,0.19026854294777135,0.22658700257791817
1728667123006239500,2.627239501953125,-0.008506445214152336,-0.05131722614169121,-0.09360633045434952,0.5638133883476257,0.7884908318519592,0.24575687944889069,-0.03198361396789551,0.07492762804031372,0.06785689294338226,0.5707170458226231,-0.7661124144708478,0.1896054103719887,0.22672345429318955
1728667123016269600,2.63726953125,0.08939601480960846,0.09628501534461975,-0.09769934415817261,0.5629364848136902,0.7891502380371094,0.24565057456493378,-0.04267287254333496,0.09672921895980835,-0.041640639305114746,0.5709352188164752,-0.7661452693261918,0.18933229055652293,0.22629099342325087
1728667123026300400,2.647300537109375,0.25761327147483826,0.1367402970790863,-0.07050633430480957,0.5619063973426819,0.7900887131690979,0.24499139189720154,-0.031617820262908936,0.10042941570281982,-0.09084726870059967,0.5715832018485081,-0.7658785855054303,0.18954072891369544,0.22538155007029193
1728667123036330200,2.657330322265625,0.32606589794158936,0.12461817264556885,-0.08674842119216919,0.5609899163246155,0.7913221716880798,0.24310354888439178,0.01112300157546997,0.03460550308227539,-0.15956176817417145,0.5727978502281105,-0.7651616652211244,0.18994578619237074,0.22438973475065777
1728667123046361300,2.667361328125,0.24960225820541382,0.055579714477062225,-0.10462888330221176,0.5600994229316711,0.7925868034362793,0.24102821946144104,0.027287602424621582,-0.05253559350967407,-0.0930180549621582,0.574038756016749,-0.7644213726172912,0.19019483834780193,0.22352921730934325
1728667123056391200,2.67739111328125,0.06791748851537704,-0.11092405021190643,-0.08159200847148895,0.5595884323120117,0.7934221029281616,0.2394620180130005,0.02964496612548828,-0.12505656480789185,0.04201677441596985,0.5748149898516562,-0.7639582765694174,0.1899967400839756,0.22328608223523214
1728667123066422300,2.68742236328125,-0.1323269158601761,-0.18363073468208313,-0.085752934217453,0.5593487024307251,0.793712317943573,0.23906069993972778,0.015144705772399902,-0.11162912845611572,0.09057489037513733,0.5748315219092052,-0.7640202061261455,0.18921805339608147,0.22369284884354984
1728667123076452400,2.697452392578125,-0.1803283989429474,-0.16864944994449615,-0.07356631010770798,0.559071958065033,0.7937350273132324,0.2396317571401596,-0.049397826194763184,-0.053622663021087646,0.16281870007514954,0.5743637961864544,-0.7644551186130604,0.18821331114003706,0.22425523394672978
1728667123086483200,2.707483154296875,-0.10564138740301132,-0.06483995914459229,-0.048269208520650864,0.5586760640144348,0.7937922477722168,0.2403629869222641,-0.07951968908309937,0.0275728702545166,0.07672971487045288,0.5739142946665574,-0.7648944201199944,0.187398023457687,0.2245899854466059
1728667123096513300,2.71751318359375,0.11384762823581696,0.06411732733249664,-0.02435535192489624,0.5582234859466553,0.7941557765007019,0.2402142882347107,-0.07914340496063232,0.10065007209777832,-0.03127576410770416,0.574043564129118,-0.764899449025672,0.18717900066117657,0.22442538569494633
1728667123106544400,2.72754443359375,0.29252123832702637,0.1618604063987732,-0.044493645429611206,0.5575280785560608,0.795034646987915,0.2389189451932907,-0.05530029535293579,0.10305184125900269,-0.09922480583190918,0.5749145675992737,-0.7643880197903156,0.18753780485325192,0.22363748280526125
1728667123116574200,2.73757421875,0.36106473207473755,0.14113344252109528,-0.036554496735334396,0.5568770170211792,0.796150267124176,0.2367122322320938,-0.0129164457321167,0.0395125150680542,-0.11157500743865967,0.5762545425347255,-0.7635073684330362,0.18818238697256748,0.2226534464572721
1728667123126605300,2.747605224609375,0.25301337242126465,0.04277518391609192,-0.04675280302762985,0.5564941167831421,0.7970905900001526,0.23443755507469177,0.03585207462310791,-0.07811164855957031,-0.08934184908866882,0.5775042173163747,-0.7626385501210245,0.18868285228669562,0.22196874576409845
1728667123136635400,2.757635498046875,0.014932168647646904,-0.05700920149683952,-0.019349941983819008,0.5564519762992859,0.7973915934562683,0.23351159691810608,0.04352360963821411,-0.14442235231399536,0.0007107257843017578,0.5779536626348264,-0.7623072988409779,0.18879455541613033,0.22184161420898313
1728667123146666200,2.767666259765625,-0.1965896636247635,-0.1312544047832489,-0.011769786477088928,0.5567545294761658,0.7970229983329773,0.23404785990715027,0.03368425369262695,-0.14835679531097412,0.0676182210445404,0.5775368161801233,-0.7625662158800702,0.1884587395322252,0.22232219431776615
1728667123156696300,2.7776962890625,-0.2932530343532562,-0.117057204246521,-0.03855745866894722,0.5567700862884521,0.796468198299408,0.23589272797107697,0.00023674964904785156,-0.08722448348999023,0.06171464920043945,0.5765120817381542,-0.7633501589414818,0.18773092381397574,0.22290672418441734
1728667123166727400,2.7877275390625,-0.18006761372089386,-0.06537190079689026,-0.05390285700559616,0.5563863515853882,0.7962270379066467,0.23760609328746796,-0.030690550804138184,0.012534499168395996,0.043384432792663574,0.5756423885255892,-0.7641005554733656,0.18695824176133635,0.22323249932251182
1728667123176757200,2.79775732421875,0.04468793421983719,-0.014864997006952763,-0.02754129469394684,0.5558544397354126,0.7965289354324341,0.23783908784389496,-0.0484234094619751,0.0750378966331482,0.034530192613601685,0.5755524019874491,-0.7642912563736836,0.1864897297387501,0.22320368224052525
1728667123186788400,2.807788330078125,0.2315896451473236,0.03001299500465393,0.021093353629112244,0.5556269884109497,0.797121524810791,0.2363802045583725,-0.04497641324996948,0.07032525539398193,-0.008124113082885742,0.5762747397466599,-0.7637980561691547,0.18655463112831008,0.22297357322218464
1728667123196818400,2.817818359375,0.2646871507167816,0.10928571224212646,0.05803539603948593,0.555717408657074,0.7976576685905457,0.2343512922525406,-0.0437697172164917,0.008021712303161621,-0.04561540484428406,0.577301925026389,-0.7629962439844752,0.18711595417733348,0.22259125170397573
1728667123206849300,2.827849365234375,0.17055372893810272,0.12422844022512436,0.11182805150747299,0.5563957095146179,0.7975940108299255,0.23295390605926514,-0.03256148099899292,-0.06155586242675781,-0.021024703979492188,0.5780151889227343,-0.7622924967809607,0.1881145942814693,0.2223093504970031
1728667123216879400,2.83787939453125,0.00017446139827370644,0.06328599900007248,0.11711575835943222,0.5574661493301392,0.7968594431877136,0.23290899395942688,0.00030362606048583984,-0.08868378400802612,0.0012828409671783447,0.5780229073838653,-0.7620347062021324,0.18909681804815862,0.2223399848774268
1728667123226910500,2.847910400390625,-0.12137966603040695,-0.058423127979040146,0.08874829858541489,0.5586298108100891,0.7957762479782104,0.23382242023944855,0.013239085674285889,-0.055648624897003174,0.04977741837501526,0.5774445462971322,-0.762209506021198,0.1895992604106327,0.2228151830135594
1728667123236940300,2.857940185546875,-0.1240200623869896,-0.09890392422676086,0.04732495918869972,0.5595020651817322,0.7949108481407166,0.23467878997325897,0.007621288299560547,0.003108501434326172,0.04445016384124756,0.57681050256859,-0.7625022571837835,0.18955132203797997,0.223495524846565
1728667123246971400,2.867971435546875,-0.04792821779847145,-0.03482906147837639,0.027164030820131302,0.5598132610321045,0.7945533394813538,0.23514695465564728,-0.021086454391479492,0.050203680992126465,0.006124973297119141,0.5764587187664698,-0.7627056029685276,0.18935057293018062,0.2238790785389588
1728667123257001500,2.87800146484375,0.06625161319971085,0.023611396551132202,0.04360425844788551,0.5597819089889526,0.7945571541786194,0.23520812392234802,-0.03980821371078491,0.07113486528396606,-0.018152013421058655,0.5764514342259098,-0.7627165127585526,0.18938738864982047,0.22382931733932332
1728667123267031800,2.88803173828125,0.15967291593551636,0.023143745958805084,0.04449668154120445,0.5598238110542297,0.7947865724563599,0.23433150351047516,-0.03304469585418701,0.03280419111251831,-0.0627465546131134,0.5769047994892355,-0.7623606688752365,0.18966275457558324,0.22364027583610863
1728667123277062000,2.898061767578125,0.11870843172073364,-0.006133717019110918,0.042157094925642014,0.5599675178527832,0.7950647473335266,0.23304057121276855,-0.032333970069885254,-0.03676414489746094,-0.08092586696147919,0.5775090516099898,-0.7618699868108602,0.18993264724462397,0.223523617243816
1728667123287093000,2.908093017578125,0.013869368471205235,-0.06233493611216545,0.09040052443742752,0.5605767965316772,0.7948510646820068,0.23230430483818054,-0.026870131492614746,-0.08373051881790161,-0.01674342155456543,0.5777284287025392,-0.7615702930470268,0.190165292789965,0.22378039044517561
1728667123297123000,2.918123046875,-0.10683894157409668,-0.08753056824207306,0.1003359779715538,0.5617585182189941,0.7940076589584351,0.2323346734046936,-0.020910680294036865,-0.08836489915847778,0.02141895890235901,0.5774348302500595,-0.7615352745916287,0.19034537018329448,0.2245033325084543
1728667123307154000,2.92815380859375,-0.13020044565200806,-0.051108915358781815,0.08955416828393936,0.5628430247306824,0.7929335236549377,0.23337490856647491,-0.027625858783721924,-0.024470508098602295,0.034157365560531616,0.57670910649963,-0.7618448842541095,0.19047264832172037,0.22520884860694795
1728667123317184000,2.93818408203125,0.0003269272856414318,0.004087761975824833,0.0786764919757843,0.5635404586791992,0.7922200560569763,0.23411332070827484,-0.01123344898223877,0.048325419425964355,0.01568816602230072,0.5762446793780004,-0.7620382660483128,0.1906681435218555,0.22557755524115433
1728667123327214800,2.94821484375,0.16779714822769165,0.04159678518772125,0.058954715728759766,0.5637378096580505,0.7922409176826477,0.23356729745864868,0.014310777187347412,0.07906627655029297,-0.027299076318740845,0.5765249052424387,-0.7617771925980046,0.1909951829608332,0.2254667639382345
1728667123337245000,2.958244873046875,0.27031153440475464,0.019361790269613266,0.06258087605237961,0.5637324452400208,0.7927695512771606,0.23177936673164368,0.0450931191444397,0.05606144666671753,-0.03108064830303192,0.5774342212928437,-0.7610848144938224,0.19141470149942708,0.22512183369911867
1728667123347276000,2.968276123046875,0.2171391397714615,0.0015564272180199623,0.052341822534799576,0.5639071464538574,0.7933319807052612,0.22941911220550537,0.06904268264770508,-0.02293097972869873,-0.017169445753097534,0.5785327192072501,-0.7602111436881228,0.1918034817439167,0.2249230243556197
1728667123357306000,2.97830615234375,0.05135742202401161,-0.07011743634939194,0.0567469596862793,0.5644121766090393,0.7934736609458923,0.22768090665340424,0.05793285369873047,-0.10192996263504028,0.05359950661659241,0.579212239658727,-0.7595852875211904,0.19201730835272154,0.22510613744512573
1728667123367337000,2.9883369140625,-0.14271990954875946,-0.12786756455898285,0.09716282039880753,0.5653502941131592,0.7928487062454224,0.22752933204174042,0.046878039836883545,-0.11274939775466919,0.09494981169700623,0.5790101823098766,-0.7595365787407724,0.19201262951387058,0.2257927716415709
1728667123377367000,2.998366943359375,-0.24090154469013214,-0.1320410966873169,0.09671913832426071,0.5665656924247742,0.7916572093963623,0.22865253686904907,0.033531904220581055,-0.056580424308776855,0.08508335053920746,0.5781273998235069,-0.75994428268414,0.1918618187910073,0.22680908505408312
1728667123387398000,3.00839794921875,-0.17854201793670654,-0.11489780247211456,0.05268270522356033,0.5673389434814453,0.7907251715660095,0.22995692491531372,0.0012645721435546875,0.022415637969970703,0.056694626808166504,0.5772385091724553,-0.7604544261857931,0.19153988662071977,0.2276339773183347
1728667123397428000,3.018427978515625,-0.03695306554436684,-0.08137136697769165,0.02276475355029106,0.5676493644714355,0.790397047996521,0.2303178310394287,-0.017921090126037598,0.09189653396606445,0.011228635907173157,0.5768872610122348,-0.760660041683986,0.19119418600501584,0.22812711888311388
1728667123407459000,3.028458984375,0.15932084619998932,-0.05118204653263092,0.04906986281275749,0.5679678916931152,0.7904585003852844,0.2293197214603424,-0.01718670129776001,0.11014556884765625,-0.012660294771194458,0.5772191563981299,-0.7603429079373585,0.1911505274087742,0.22838141757337174
1728667123417489000,3.038489013671875,0.23821957409381866,-0.04411034286022186,0.05298976972699165,0.5684898495674133,0.7906988859176636,0.22718730568885803,-0.018456459045410156,0.0375937819480896,-0.03404168784618378,0.5780836772504071,-0.7595718075026963,0.19142705910084107,0.22852885805788076
1728667123427520000,3.04852001953125,0.1628614366054535,-0.07875274121761322,0.08818797022104263,0.5694394111633301,0.7906113862991333,0.22510460019111633,-0.024105608463287354,-0.05345946550369263,-0.027671247720718384,0.5788435152394732,-0.7587809772646106,0.19184297882773044,0.22888375363289573
1728667123437549800,3.0585498046875,-0.009648142382502556,-0.13318802416324615,0.1304326206445694,0.5708742141723633,0.7898414134979248,0.22417142987251282,-0.013318240642547607,-0.12295615673065186,-0.004780694842338562,0.5789468047498456,-0.758379124136856,0.19221555601818346,0.22964046790400805
1728667123447581000,3.068580810546875,-0.19712722301483154,-0.22002652287483215,0.15016132593154907,0.5726342797279358,0.7884998917579651,0.2244056910276413,-0.008822023868560791,-0.13458454608917236,0.023442745208740234,0.5783466892494599,-0.7584434017493229,0.19226662380975473,0.2308944516924551
1728667123457610800,3.07861083984375,-0.2774312496185303,-0.2644447088241577,0.1388237029314041,0.5744665861129761,0.7869250178337097,0.2252480834722519,-0.007129669189453125,-0.09693795442581177,0.0006886422634124756,0.5773287874352468,-0.7588129817509316,0.191903355058983,0.23252366017464973
1728667123467641900,3.088641845703125,-0.2446967363357544,-0.2593058943748474,0.0993061363697052,0.5758841633796692,0.7856666445732117,0.22602055966854095,-0.02061682939529419,-0.045050740242004395,-0.013099521398544312,0.5763755764771717,-0.759227683804415,0.19126840334553638,0.23405317857809652
1728667123477672000,3.098671875,-0.16428139805793762,-0.2422672063112259,0.1174425259232521,0.5770460963249207,0.7847619652748108,0.22619912028312683,-0.03336024284362793,0.015012025833129883,0.010540813207626343,0.5757450621944901,-0.7594531807459609,0.19060542816347004,0.2354100498423106
1728667123487702800,3.108702880859375,-0.05358657240867615,-0.21852566301822662,0.13751450181007385,0.5783240795135498,0.7839964628219604,0.22559019923210144,-0.02842777967453003,0.033355891704559326,0.02282288670539856,0.5754976199108663,-0.7593570822828816,0.19018916507343675,0.2366589132998313
1728667123497732900,3.11873291015625,0.014166975393891335,-0.22542265057563782,0.14695167541503906,0.5797725319862366,0.7832885980606079,0.22432677447795868,-0.03851282596588135,0.008398294448852539,0.042122095823287964,0.5755519612337471,-0.7589884320937705,0.18999985629116967,0.2378580067204059
1728667123507763000,3.128762939453125,0.008889122866094112,-0.2551605701446533,0.16458846628665924,0.5815672874450684,0.7824283242225647,0.2226770520210266,-0.034463465213775635,-0.03976798057556152,0.028925031423568726,0.5756960278158266,-0.7584682981067575,0.18990620809464648,0.23923924530851515
1728667123517793800,3.138793701171875,-0.07434284687042236,-0.2693297266960144,0.18474246561527252,0.5836869478225708,0.7811789512634277,0.22151470184326172,-0.0255357027053833,-0.07098925113677979,0.01949775218963623,0.5755361951944838,-0.7580979700222901,0.18985473706372993,0.24083323993299638
1728667123527824000,3.148823974609375,-0.14400075376033783,-0.3161203861236572,0.1955767422914505,0.5858505368232727,0.7798029780387878,0.2206495702266693,-0.01660621166229248,-0.08598595857620239,0.034980759024620056,0.5751678379322976,-0.7578719944120841,0.18961758083753377,0.2426047161599434
1728667123537855000,3.15885498046875,-0.18098720908164978,-0.3401681184768677,0.17329007387161255,0.5880197286605835,0.7783451676368713,0.22002552449703217,-0.015540599822998047,-0.09009766578674316,0.010122641921043396,0.5746197386372347,-0.7577765866014758,0.1891756056800363,0.24453888092355797
1728667123547885800,3.1688857421875,-0.1686714142560959,-0.35898250341415405,0.19347523152828217,0.5902004837989807,0.7768865823745728,0.2193402349948883,-0.027960002422332764,-0.06663590669631958,0.03316207230091095,0.5740556862195159,-0.7576845036456594,0.18863804643874563,0.24655576819194652
1728667123557916000,3.178916015625,-0.147274449467659,-0.33391234278678894,0.2131274938583374,0.5925682187080383,0.7753210067749023,0.21849560737609863,-0.01587754487991333,-0.02876943349838257,0.010584503412246704,0.5735293532048545,-0.7575118918300706,0.1882114222365042,0.24862889202191257
1728667123567946000,3.188946044921875,-0.09237204492092133,-0.2542228400707245,0.1953732669353485,0.594817042350769,0.7738312482833862,0.21766400337219238,-0.0024098753929138184,-0.0017824769020080566,-0.03671017289161682,0.573095975469437,-0.7572910603335914,0.1879953447137135,0.2504573823216057
1728667123577976800,3.198976806640625,-0.06671515852212906,-0.19046024978160858,0.1624763011932373,0.5966824293136597,0.7725880742073059,0.2169741690158844,0.015973210334777832,0.0016887187957763672,-0.048822373151779175,0.5727721634258798,-0.7570771877861137,0.1879393954105343,0.2518828640543684
1728667123588007000,3.2090068359375,-0.03495589643716812,-0.2193363755941391,0.125456765294075,0.5982442498207092,0.7716119289398193,0.2161451131105423,0.053107619285583496,-0.012304127216339111,-0.02914869785308838,0.5725951569904598,-0.7568237421188977,0.18785734633500673,0.25310507309136293
1728667123598038000,3.2190380859375,-0.04817090183496475,-0.26513561606407166,0.1183333620429039,0.5996897220611572,0.7708117365837097,0.21499161422252655,0.08031821250915527,-0.011427640914916992,0.01385962963104248,0.5725210021777113,-0.7565171835906407,0.18755680976154981,0.25440881335627047
1728667123608068000,3.229068115234375,-0.04567551985383034,-0.28364327549934387,0.10945703834295273,0.6011810898780823,0.7700057625770569,0.21371141076087952,0.0946197509765625,0.004393100738525391,0.07197883725166321,0.5724466159414257,-0.756195051714453,0.18714899562013382,0.25583046325668585
1728667123618099000,3.239098876953125,-0.09853573888540268,-0.24401184916496277,0.05701833218336105,0.6024001836776733,0.7693561911582947,0.21261467039585114,0.08065944910049438,0.017325878143310547,0.08853267133235931,0.5723331422637923,-0.7559663397422927,0.18660715696538321,0.25715247858392026
1728667123628129000,3.24912890625,-0.15485334396362305,-0.17557872831821442,0.05581218749284744,0.6032601594924927,0.7687525749206543,0.21235987544059753,0.0605277419090271,0.04657036066055298,0.09310570359230042,0.5719642143884126,-0.7560205496280201,0.1860453422396278,0.2582188964884306
1728667123638160000,3.259159912109375,-0.11264316737651825,-0.1410762518644333,0.0595691055059433,0.6040770411491394,0.768071711063385,0.2125006765127182,0.07472538948059082,0.04963141679763794,0.07817910611629486,0.5714987628745425,-0.7561599303226506,0.18566770299829394,0.2591113858740955
1728667123648190000,3.26918994140625,-0.07261984795331955,-0.14061231911182404,0.01729622110724449,0.6046620607376099,0.7676492929458618,0.21236400306224823,0.08192241191864014,0.018727779388427734,0.0053025782108306885,0.5712315642269291,-0.7562069767869961,0.18529168299720863,0.259831751364489
1728667123658221000,3.279220947265625,-0.04427343234419823,-0.13386324048042297,0.018695179373025894,0.6050497889518738,0.7674494981765747,0.2119804173707962,0.06413954496383667,0.008291959762573242,-0.03456656634807587,0.5711229546462238,-0.7561823470338211,0.18487419730837837,0.26043849068057845
1728667123668251100,3.289251220703125,-0.023121805861592293,-0.10494662821292877,0.04278320446610451,0.6055887341499329,0.7671563029289246,0.2115021049976349,0.05003559589385986,0.0013982057571411133,-0.05677810311317444,0.571059928522923,-0.7560862332198128,0.18462032001315898,0.2610351621560614
1728667123678282000,3.299281982421875,-0.02838401310145855,0.03337688744068146,-0.009203564375638962,0.6057944893836975,0.7670004367828369,0.21147854626178741,0.010797858238220215,-0.01640540361404419,-0.0889962911605835,0.5709686796493629,-0.7561006981112603,0.18452914781302207,0.26125738222919637
1728667123688311800,3.309311767578125,0.009316760115325451,0.0840802788734436,-0.02032945305109024,0.6054869890213013,0.7671068906784058,0.21197281777858734,-0.04141533374786377,0.0027294158935546875,-0.029615163803100586,0.5708920279473112,-0.7562406529124123,0.1846252527538036,0.2609518563569718
1728667123698343000,3.319343017578125,0.03222740441560745,0.08699090033769608,0.015060496516525745,0.6055054664611816,0.7668425440788269,0.21287468075752258,-0.024588167667388916,0.05884099006652832,-0.029952406883239746,0.5706357965323984,-0.7564382118727647,0.1850366696509652,0.26064811159169093
1728667123708372700,3.329372802734375,0.09275492280721664,0.10861682891845703,-0.012526391074061394,0.605374813079834,0.7667827606201172,0.21345998346805573,-0.012967705726623535,0.08973866701126099,-0.08412663638591766,0.5705808288055607,-0.7565211621917883,0.18548780420085623,0.2602063500007901
1728667123718403800,3.33940380859375,0.06922490149736404,0.18171676993370056,-0.07974324375391006,0.6047819256782532,0.7671119570732117,0.21395736932754517,-0.04696643352508545,0.04991978406906128,-0.10587944090366364,0.570709304425485,-0.7565826312114535,0.18590697751855736,0.25944570683733176
1728667123728434000,3.349433837890625,-0.015916623175144196,0.21701723337173462,-0.046477966010570526,0.6040441393852234,0.7674150466918945,0.21495287120342255,-0.06698060035705566,0.024119317531585693,-0.07838678359985352,0.5706783930391233,-0.7568013561189625,0.18635488913761752,0.2585531499799066
1728667123738464800,3.35946484375,-0.04443421959877014,0.20005226135253906,-0.010066695511341095,0.6036549210548401,0.7673653960227966,0.21622052788734436,-0.04805183410644531,0.01359480619430542,-0.06703539192676544,0.5704330419752054,-0.7570928030028221,0.18687094711683086,0.25786813794822705
1728667123748494800,3.369494873046875,0.02695394493639469,0.24213659763336182,-0.05630343034863472,0.6031447052955627,0.7674562931060791,0.21731849014759064,-0.06489092111587524,0.028670966625213623,-0.08970928192138672,0.5703012541433993,-0.7573272804492646,0.18738898845391513,0.2570938251183294
1728667123758526000,3.37952587890625,0.17604656517505646,0.31693941354751587,-0.08551058173179626,0.6021395325660706,0.7681185603141785,0.2177644968032837,-0.09983557462692261,0.06749832630157471,-0.09522131085395813,0.5706586083732104,-0.7573160577998114,0.18802828753546505,0.25586387117847137
1728667123768555800,3.3895556640625,0.34314286708831787,0.40895748138427734,-0.07650137692689896,0.6006035208702087,0.7693099975585938,0.21780070662498474,-0.10486078262329102,0.10080701112747192,-0.11544480919837952,0.5714904493393937,-0.7570778481695997,0.18903302028012442,0.2539648844121133
1728667123778587000,3.3995869140625,0.4610826373100281,0.48190581798553467,-0.054414451122283936,0.5989482998847961,0.7707986235618591,0.21709570288658142,-0.09020501375198364,0.09554970264434814,-0.12488684058189392,0.5728231940569042,-0.7564836386927355,0.1904740253038998,0.25164617913948034
1728667123788617000,3.409616943359375,0.4759180247783661,0.570846676826477,-0.04848945140838623,0.5971969366073608,0.7724503874778748,0.21604736149311066,-0.06974631547927856,0.036479175090789795,-0.10682496428489685,0.5744373045553476,-0.755687028287968,0.19225190993084676,0.248994342571546
1728667123798647800,3.419647705078125,0.3466508090496063,0.5821114778518677,-0.03514302149415016,0.595616340637207,0.7736085653305054,0.21626567840576172,-0.03351306915283203,-0.031543195247650146,-0.03422844409942627,0.5755170567971397,-0.7552373028250843,0.19429219627166963,0.24626654736248285
1728667123808678000,3.429677978515625,0.13297978043556213,0.5164666771888733,-0.03465619310736656,0.5941388010978699,0.7743387818336487,0.21771222352981567,0.022148489952087402,-0.055146217346191406,0.04090896248817444,0.5759265397575325,-0.7552596958366146,0.19605842495175718,0.24382890343342836
1728667123818709000,3.439708984375,-0.027864163741469383,0.437049001455307,-0.0386061929166317,0.5928166508674622,0.774653971195221,0.220180943608284,0.07116955518722534,-0.023677349090576172,0.1264376938343048,0.57567730468305,-0.7557397627888337,0.1973521846857294,0.24187845026823374
1728667123828738800,3.44973876953125,-0.07180259376764297,0.3760665953159332,-0.07022004574537277,0.5915051102638245,0.774843156337738,0.22302459180355072,0.09874153137207031,0.03498661518096924,0.16018453240394592,0.5751239248495187,-0.7564461494767151,0.19824610170031343,0.24025038202980928
1728667123838770000,3.45977001953125,0.03173078969120979,0.32414892315864563,-0.09021160006523132,0.5900961756706238,0.7752448916435242,0.22534781694412231,0.09340596199035645,0.08127659559249878,0.14147338271141052,0.5747476815113981,-0.7570402356462475,0.19890699430001801,0.23872806220728623
1728667123848800000,3.469800048828125,0.19963642954826355,0.35096561908721924,-0.09980670362710953,0.5885865688323975,0.776084303855896,0.22640463709831238,0.06667166948318481,0.07103794813156128,0.03931179642677307,0.5749767846394733,-0.7571958402683415,0.1996416244153337,0.23706412957235784
1728667123858830800,3.479830810546875,0.30243387818336487,0.41607072949409485,-0.06416402012109756,0.5870475769042969,0.7771689891815186,0.22667892277240753,0.014011383056640625,0.044135212898254395,-0.013132214546203613,0.5756615709151871,-0.7570000359195345,0.20072470459405545,0.23510472509406846
1728667123868861000,3.48986083984375,0.3469395637512207,0.4487152397632599,-0.03301408886909485,0.5856923460960388,0.7781934142112732,0.22667072713375092,-0.02152913808822632,-0.005183100700378418,-0.009049981832504272,0.5765293093916468,-0.7566046706129246,0.2021997513897931,0.2329778145648303
1728667123878892000,3.49989208984375,0.2674204111099243,0.4599262773990631,-0.01560207549482584,0.5844563841819763,0.7790523171424866,0.22691018879413605,-0.03269857168197632,-0.05689966678619385,0.007388472557067871,0.577278337604762,-0.7562581385802348,0.20378597665932846,0.23085629817403255
1728667123888921900,3.509921875,0.1747719645500183,0.463927686214447,-0.0005168658681213856,0.5833485126495361,0.7795926928520203,0.22790315747261047,-0.007298707962036133,-0.06398594379425049,0.02772727608680725,0.5776456214130585,-0.7561612271319099,0.2053576869169769,0.22885369592062488
1728667123898953000,3.519952880859375,0.08373427391052246,0.40815621614456177,-0.00874230545014143,0.5823184251785278,0.7799027562141418,0.22947165369987488,0.029971063137054443,-0.055247485637664795,0.05983501672744751,0.5776817286048398,-0.7562943041675653,0.2067722213127415,0.22704215543778053
1728667123908983000,3.529983154296875,0.019893771037459373,0.30395814776420593,-0.027389757335186005,0.5813699960708618,0.7801182270050049,0.2311364859342575,0.07034802436828613,-0.04813903570175171,0.04845021665096283,0.5775275044770192,-0.7565644012323203,0.2077944862734818,0.2255960862634348
1728667123919014000,3.540013916015625,-0.057704150676727295,0.24021102488040924,-0.06292618066072464,0.5803695321083069,0.7803486585617065,0.23286664485931396,0.08360135555267334,-0.05010896921157837,0.019727200269699097,0.5772262689418318,-0.7569740666609949,0.20838326786518985,0.22444687319786968
1728667123929044000,3.5500439453125,-0.09156890958547592,0.1567147970199585,-0.09609132260084152,0.5792705416679382,0.7806302905082703,0.2346523553133011,0.04876589775085449,-0.050772011280059814,0.05383025109767914,0.576806852712266,-0.7575118090349732,0.20857142006401286,0.22353425888298473
1728667123939075000,3.560074951171875,-0.12035767734050751,0.11662634462118149,-0.08614841103553772,0.5782111287117004,0.7809377312660217,0.23623712360858917,-0.0017494559288024902,-0.039528489112854004,0.06085143983364105,0.5763752754363954,-0.7580646604237241,0.20846229633416613,0.22287419764939045
1728667123949105200,3.570105224609375,-0.06553251296281815,0.15618707239627838,-0.051951825618743896,0.5773615837097168,0.7810779809951782,0.2378459870815277,-0.04238849878311157,0.005878746509552002,0.01796756684780121,0.5759096737774673,-0.7585893962104325,0.20848289801544692,0.22227237781752032
1728667123959136000,3.580135986328125,0.0948893204331398,0.20016255974769592,-0.06034184992313385,0.5765199661254883,0.7814211845397949,0.23875872790813446,-0.07816791534423828,0.012524247169494629,-0.03175804018974304,0.5758400396605267,-0.7587992927429359,0.208813299877473,0.22142473624549372
1728667123969166000,3.590166015625,0.16497120261192322,0.23374076187610626,-0.08241652697324753,0.5753883719444275,0.7821922898292542,0.23896321654319763,-0.10897296667098999,-0.010692715644836426,-0.06989598274230957,0.5762143332695289,-0.758728865607449,0.20931344548278946,0.2202166965048035
1728667123979197000,3.600197021484375,0.1687672734260559,0.18560226261615753,-0.06164440140128136,0.574306309223175,0.7830243110656738,0.23884111642837524,-0.10921847820281982,-0.051212847232818604,-0.02013695240020752,0.5767252798827905,-0.7585425498072533,0.2098422191594607,0.21901453466308068
1728667123989226800,3.610226806640625,0.090186707675457,0.11814945936203003,-0.056790791451931,0.5734986066818237,0.7836759090423584,0.23864537477493286,-0.08347785472869873,-0.11523407697677612,-0.002866595983505249,0.5771454361667228,-0.7583744611484833,0.21021622407739732,0.21812967743430084
1728667123999258000,3.620258056640625,-0.03489777073264122,0.06749522686004639,-0.0719234049320221,0.5727838277816772,0.7840977907180786,0.23897571861743927,-0.061309218406677246,-0.15481001138687134,0.007224828004837036,0.5772137033120637,-0.758467614955814,0.2102730056922488,0.21756955063382907
1728667124009288000,3.630287841796875,-0.16255266964435577,0.007396206725388765,-0.12401802837848663,0.5719346404075623,0.7844082117080688,0.23998767137527466,-0.029866278171539307,-0.18527203798294067,0.02974185347557068,0.5768954559281246,-0.7589017505946808,0.20990943269527515,0.2172501662037933
1728667124019318800,3.64031884765625,-0.2980310022830963,-0.03653700277209282,-0.1409408301115036,0.5708958506584167,0.7846301198005676,0.2417297661304474,-0.009479284286499023,-0.19846385717391968,0.060470446944236755,0.5761776054052994,-0.7596985876985756,0.20910031082861733,0.21715060494918548
1728667124029348900,3.650348876953125,-0.34199661016464233,-0.07847060263156891,-0.10022641718387604,0.5700889825820923,0.7845205664634705,0.24397999048233032,0.01311725378036499,-0.19124352931976318,0.10474434494972229,0.5751189999294737,-0.7607084942651751,0.20811675929212187,0.21736655214383444
1728667124039379700,3.660379638671875,-0.30716171860694885,-0.07293128222227097,-0.0792689323425293,0.5695958137512207,0.7842121124267578,0.24611404538154602,0.03173786401748657,-0.20334047079086304,0.0683847963809967,0.5740398210987063,-0.7616623812385624,0.2071893787575875,0.21776439773164485
1728667124049409800,3.670409912109375,-0.22510385513305664,-0.030462117865681648,-0.05696309730410576,0.5691460371017456,0.783970296382904,0.24791717529296875,0.023718833923339844,-0.21330702304840088,0.04862198233604431,0.5731560264693554,-0.7624475124329011,0.20647609159451766,0.21802157802612265
1728667124059441000,3.68044091796875,-0.2208632528781891,-0.020995168015360832,0.02774832770228386,0.5689480304718018,0.7836214303970337,0.2494707554578781,0.03487277030944824,-0.20154434442520142,0.1023663580417633,0.5723959129196348,-0.7630714242012966,0.20605188999490806,0.21823744412530918
1728667124069471000,3.690470947265625,-0.22284677624702454,0.020336559042334557,0.035191863775253296,0.5692520141601562,0.7828205823898315,0.25128474831581116,0.05806732177734375,-0.1985311508178711,0.12220454216003418,0.5714724589719966,-0.7636909355281618,0.20595760059311397,0.2185791260468932
1728667124079501800,3.700501708984375,-0.24257966876029968,0.03754553571343422,0.020207587629556656,0.5694506168365479,0.7820031046867371,0.2533705234527588,0.04987293481826782,-0.2060755491256714,0.16894680261611938,0.5704760596353935,-0.7643788378781818,0.20593750521291695,0.21879582148615825
1728667124089532000,3.710531982421875,-0.26310062408447266,0.027571195736527443,0.04570069909095764,0.5698174238204956,0.7809770703315735,0.2557000517845154,0.07924556732177734,-0.1604480743408203,0.16059014201164246,0.5693356856793829,-0.7651321390079514,0.20596804193153168,0.21910432069826816
1728667124099563000,3.72056298828125,-0.29332685470581055,0.06415754556655884,0.06047644466161728,0.5703376531600952,0.7797158360481262,0.2583755850791931,0.10965490341186523,-0.10576575994491577,0.11653277277946472,0.5680234632011824,-0.765969572028072,0.20610289363706005,0.219457213547744
1728667124109592800,3.7305927734375,-0.3244363069534302,0.11653446406126022,0.04675131291151047,0.5708152055740356,0.7782644033432007,0.2616754472255707,0.12464970350265503,-0.08290630578994751,0.07877844572067261,0.5664854925165874,-0.7669642576228783,0.20640629437614183,0.21967312282443144
1728667124119624000,3.7406240234375,-0.45946377515792847,0.05161362886428833,0.05386195331811905,0.5709244012832642,0.7769649624824524,0.26527440547943115,0.12365555763244629,-0.06300634145736694,0.08044382929801941,0.5648326061846588,-0.7681285109647079,0.20643592280089224,0.21983361547199576
1728667124129654000,3.750654052734375,-0.5340186953544617,-0.08304671198129654,0.07102788984775543,0.571483314037323,0.7752209901809692,0.2691451907157898,0.125904381275177,0.028138935565948486,0.07126307487487793,0.562817108784645,-0.7694781273624841,0.20609709519809127,0.22059975212379154
1728667124139684900,3.760684814453125,-0.4576762616634369,-0.14730730652809143,0.046870358288288116,0.5722414255142212,0.7735334038734436,0.272369921207428,0.08092617988586426,0.13463902473449707,0.01805052161216736,0.5609291548670644,-0.7707111449180317,0.2054003190960634,0.22175064206119613
1728667124149715000,3.77071484375,-0.30695199966430664,-0.10213076323270798,-0.03723013773560524,0.5726479887962341,0.772409975528717,0.2746941149234772,0.009673118591308594,0.2517445683479309,-0.11742189526557922,0.5595219618765092,-0.7716742356560083,0.2046116643208531,0.22268369036295999
1728667124159746000,3.78074609375,-0.04720456898212433,-0.03966546803712845,-0.10738099366426468,0.572262704372406,0.7723226547241211,0.2757411003112793,-0.0709657073020935,0.3330850601196289,-0.19753992557525635,0.5589645270806983,-0.77218665200948,0.20395668738562206,0.2229082729817208
1728667124169775900,3.79077587890625,0.17578217387199402,-0.005235591903328896,-0.14171074330806732,0.5713382363319397,0.773234486579895,0.27510175108909607,-0.0980868935585022,0.33688825368881226,-0.2665416896343231,0.5593783176941269,-0.7721126868697584,0.20345239649419877,0.22258701953424362
1728667124179807000,3.800806884765625,0.3072293996810913,0.004315248690545559,-0.14591534435749054,0.5701935887336731,0.7747454643249512,0.27321961522102356,-0.07123112678527832,0.28053712844848633,-0.35523566603660583,0.5604845496606188,-0.7715792171241137,0.20316329871157068,0.2219174659276548
1728667124189837000,3.810837158203125,0.2533680498600006,-0.05629377067089081,-0.15046802163124084,0.5691102147102356,0.7763891816139221,0.2708004117012024,-0.016528606414794922,0.17076945304870605,-0.39053624868392944,0.5618105997920265,-0.7708744603174081,0.20286146735622468,0.22128815561598492
1728667124199868000,3.820867919921875,0.09654500335454941,-0.21663789451122284,-0.152847558259964,0.5682772994041443,0.7777184247970581,0.26872748136520386,0.05949974060058594,0.08388423919677734,-0.36978691816329956,0.5627768355860306,-0.7703979456741095,0.2021156890612349,0.22117480030995135
1728667124209898000,3.83089794921875,0.02388172037899494,-0.4230765700340271,-0.12365211546421051,0.5680361390113831,0.7786579132080078,0.26650869846343994,0.13147252798080444,0.03437620401382446,-0.3168627917766571,0.5634529272440199,-0.7700413649352514,0.20072530175678763,0.22196056018571475
1728667124219929000,3.84092919921875,0.09678202867507935,-0.523690938949585,-0.14728687703609467,0.5682825446128845,0.7795324325561523,0.2634076774120331,0.16606175899505615,0.02642136812210083,-0.3064834475517273,0.5642564686418554,-0.7695094052010015,0.1988947330236627,0.22340681287657888
1728667124229959000,3.850958984375,0.3061927855014801,-0.47549837827682495,-0.1439419388771057,0.5684173107147217,0.7809262275695801,0.25895175337791443,0.13530278205871582,0.050219953060150146,-0.2794290781021118,0.5657096078643974,-0.7685184819192339,0.19711726639215324,0.22471486054360362
1728667124239990000,3.860989990234375,0.4798465371131897,-0.4361739754676819,-0.06663703173398972,0.5687207579612732,0.7825624942779541,0.2532830834388733,0.14700788259506226,0.06285059452056885,-0.23823800683021545,0.5677968968784138,-0.7669947132811872,0.19585876149640172,0.22575434531919597
1728667124250020000,3.87102001953125,0.47477614879608154,-0.45166799426078796,-0.061139464378356934,0.5693825483322144,0.7840867638587952,0.24700458347797394,0.21600258350372314,0.006669342517852783,-0.2622328996658325,0.5701380001871299,-0.7651790524273037,0.19494437397704675,0.2268045253435007
1728667124260051700,3.8810517578125,0.37848126888275146,-0.5641835927963257,-0.019291086122393608,0.5702353119850159,0.7854253649711609,0.24070395529270172,0.23399436473846436,-0.15145331621170044,-0.19920016825199127,0.5723545615611546,-0.7634022808023488,0.19382707501408236,0.22816258445657936
1728667124270081800,3.891081787109375,0.22772586345672607,-0.7470596432685852,0.11110100895166397,0.5721032619476318,0.7859169244766235,0.23459020256996155,0.28537964820861816,-0.29383617639541626,-0.18330547213554382,0.5740898183888108,-0.7617503019971308,0.19243591464922433,0.230490399704926
1728667124280112600,3.901112548828125,0.02736067585647106,-0.9477928280830383,0.22925907373428345,0.5754868984222412,0.7851952910423279,0.2286556214094162,0.3283522129058838,-0.3532494306564331,-0.21998867392539978,0.5751997912830397,-0.7602097945484821,0.19081110057774425,0.23413135538437968
1728667124290142700,3.911142822265625,-0.02952631004154682,-0.9949944019317627,0.25845715403556824,0.5796215534210205,0.7837444543838501,0.22312167286872864,0.3093401789665222,-0.35222601890563965,-0.2609177827835083,0.5757782534377357,-0.7588664612884388,0.18889819491815288,0.23857599029883914
1728667124300173800,3.921173828125,0.03621635213494301,-1.0265398025512695,0.31274065375328064,0.5840264558792114,0.782072901725769,0.21742784976959229,0.2493475079536438,-0.3000783324241638,-0.22447752952575684,0.5763124232118257,-0.7574486130538016,0.1870441810459602,0.24320771763738114
1728667124310204000,3.931203857421875,0.17148175835609436,-1.1415002346038818,0.3787026107311249,0.589154064655304,0.7802330255508423,0.21007998287677765,0.224032461643219,-0.23267149925231934,-0.2197999209165573,0.5773414597952851,-0.7554294370217669,0.18538164837738008,0.2482674189036699
1728667124320234800,3.94123486328125,0.2823392450809479,-1.1188017129898071,0.41114097833633423,0.5945228934288025,0.7783859968185425,0.2016374170780182,0.192205011844635,-0.16760724782943726,-0.23937249183654785,0.5787434014172103,-0.7530013952736803,0.18386845049789682,0.25345076834299607
1728667124330264800,3.951264892578125,0.21525955200195312,-1.2218780517578125,0.48889145255088806,0.6003672480583191,0.7761939167976379,0.19256804883480072,0.17265838384628296,-0.1848394274711609,-0.16597206890583038,0.5802323437240454,-0.7503143533875768,0.18251682974751524,0.2589333962153985
1728667124340295700,3.961295654296875,0.025344397872686386,-1.2932602167129517,0.4847281277179718,0.6065268516540527,0.7734576463699341,0.1840883493423462,0.20089197158813477,-0.2291002869606018,-0.19853852689266205,0.5811763218048767,-0.7478808685887184,0.18088223387201902,0.26493386280727194
1728667124350325800,3.97132568359375,-0.25004374980926514,-1.4618074893951416,0.4657033085823059,0.6127383708953857,0.7703383564949036,0.17643818259239197,0.18207663297653198,-0.22373807430267334,-0.12860190868377686,0.5813752620811495,-0.7458999981206662,0.17847207629533227,0.27163151510377037
1728667124360356900,3.98135693359375,-0.2381313145160675,-1.5279539823532104,0.4338556230068207,0.6187925934791565,0.7670891284942627,0.16932231187820435,0.19122016429901123,-0.1597435474395752,-0.20885789394378662,0.5810772873378474,-0.7442254491318275,0.1754697613792016,0.27872576708334335
1728667124370387000,3.991386962890625,-0.14441654086112976,-1.722987413406372,0.3707922399044037,0.6245903968811035,0.7642570734024048,0.16061700880527496,0.18440008163452148,-0.00792473554611206,-0.2689850330352783,0.5812262051958748,-0.7421132784923234,0.1719778558433732,0.28612498677417336
1728667124380417800,4.001417724609375,0.0944528877735138,-1.6852796077728271,0.31563204526901245,0.6299004554748535,0.7620278596878052,0.15013007819652557,0.16987371444702148,0.1879691481590271,-0.32495009899139404,0.5820253378803314,-0.739451248911622,0.16815733934050023,0.29356688267890935
1728667124390447900,4.01144775390625,0.3950550854206085,-1.6986299753189087,0.3459492027759552,0.6348259449005127,0.7603365778923035,0.13742083311080933,0.1391150951385498,0.2253354787826538,-0.2806093692779541,0.583935070631084,-0.7358884349852597,0.16485941299181442,0.3005153705840482
1728667124400478700,4.021478759765625,0.5979095101356506,-1.7905443906784058,0.4315333366394043,0.6400598883628845,0.7585023641586304,0.12246395647525787,0.1697545051574707,0.15440040826797485,-0.32223212718963623,0.5866135509506921,-0.7314416565559528,0.16194160236636565,0.3076565403118473
1728667124410508800,4.0315087890625,0.5482961535453796,-1.788935899734497,0.4740546941757202,0.645566463470459,0.7562437653541565,0.10648436099290848,0.18635785579681396,0.06905817985534668,-0.33426761627197266,0.5894714885497588,-0.7265627937948772,0.15921270767665074,0.3150889207919436
1728667124420540000,4.041539794921875,0.456684410572052,-1.8802834749221802,0.4392772912979126,0.650813639163971,0.7537774443626404,0.09089026600122452,0.15701717138290405,-0.0031366348266601562,-0.21146535873413086,0.5919961005176081,-0.7218168839875568,0.15628666205206604,0.32263821991956093
1728667124430570000,4.051570068359375,0.39503517746925354,-2.0718610286712646,0.4212482273578644,0.6557356119155884,0.7512863874435425,0.07469353824853897,0.15520787239074707,0.0859937071800232,-0.2292652279138565,0.5943482187904964,-0.7169712936367244,0.15263988430382017,0.3307615751148945
1728667124440600800,4.061600830078125,0.49312764406204224,-2.1279335021972656,0.3351213037967682,0.660045862197876,0.7490270137786865,0.057426292449235916,0.11394089460372925,0.2654382586479187,-0.2333601713180542,0.5968698063982582,-0.711813283864399,0.14844189395286003,0.3391654245573869
1728667124450631000,4.071630859375,0.8285263776779175,-1.987417221069336,0.27051302790641785,0.6632997393608093,0.7473406195640564,0.03892623633146286,0.0291287899017334,0.41727107763290405,-0.306535005569458,0.6001461033290607,-0.706119829427754,0.14442266037973842,0.34693143023218315
1728667124460662000,4.081662109375,1.346405267715454,-1.842307209968567,0.2183675318956375,0.6657126545906067,0.7459895610809326,0.01805567927658558,0.036084771156311035,0.49979889392852783,-0.4859360456466675,0.6049035847313887,-0.699303249982548,0.1414312701497866,0.35364348612970153
1728667124470691800,4.09169189453125,1.7283010482788086,-1.7918978929519653,0.20113767683506012,0.667370080947876,0.7447028160095215,-0.005891240667551756,0.07536673545837402,0.47909772396087646,-0.5100695490837097,0.611310771729097,-0.6910972124359438,0.13942389513605255,0.359506149899774
1728667124480723000,4.101722900390625,1.6732813119888306,-1.8268498182296753,0.3061767518520355,0.6689068078994751,0.7427091598510742,-0.03076828457415104,0.12612181901931763,0.4299287796020508,-0.342507541179657,0.6179990589607635,-0.6823657775685176,0.13781437873360683,0.36532350183857487
1728667124490752800,4.111752685546875,1.405659794807434,-1.9124687910079956,0.37305086851119995,0.6706723570823669,0.7397140264511108,-0.054969124495983124,0.18883997201919556,0.2871719002723694,-0.16748881340026855,0.6239863926874382,-0.6737908526344086,0.1360930757771372,0.3716523325478935
