time,seconds_elapsed,rotationRateX,rotationRateY,rotationRateZ,gravityX,gravityY,gravityZ,accelerationX,accelerationY,accelerationZ,quaternionW,quaternionX,quaternionY,quaternionZ
1729873551111291400,0.03829150390625,0.27461710572242737,-0.14621537923812866,0.4896429181098938,0.4435847997665405,0.5101786851882935,-0.736851692199707,0.0020787417888641357,0.047316551208496094,-0.005503594875335693,0.9318938275047456,-0.27373218900419966,0.23800179363183402,1.6990286473116738e-17
1729873551121321200,0.0483212890625,0.22743014991283417,-0.13405032455921173,0.5150651931762695,0.4451250731945038,0.5060447454452515,-0.7387709021568298,-0.002589613199234009,0.04633873701095581,-0.008390843868255615,0.9324057537913357,-0.27194186472387155,0.23803817749442527,0.0022591829713420313
1729873551131352000,0.05835205078125,0.12537488341331482,-0.09939247369766235,0.49559110403060913,0.44682759046554565,0.5024555325508118,-0.7401915788650513,0.005793958902359009,0.05784732103347778,-0.0007445812225341797,0.9327780454132172,-0.2705017303592223,0.23818694381101935,0.004577576644214676
1729873551141383400,0.068383544921875,0.02892931178212166,-0.0690300390124321,0.49177825450897217,0.4486774206161499,0.4997086226940155,-0.7409318089485168,0.0046918392181396484,0.05688634514808655,0.013011336326599121,0.9329620641027391,-0.2695737367008594,0.23846195769803838,0.00690995915147155
1729873551151413200,0.078413330078125,-0.0009173995349556208,-0.03250925987958908,0.5126859545707703,0.45081621408462524,0.4973655045032501,-0.7412100434303284,-0.01652050018310547,0.03725674748420715,0.02796858549118042,0.9330156842210269,-0.2689223964174915,0.23890527126836533,0.009317740908639146
1729873551161444000,0.088444091796875,0.0004027292598038912,-0.005755945108830929,0.5075185894966125,0.45322132110595703,0.49506551027297974,-0.741283118724823,-0.019001871347427368,0.026800453662872314,0.029475927352905273,0.9330079249995122,-0.2683204082050452,0.23950492194651452,0.011742218261403013
1729873551171474200,0.09847412109375,0.0018976284191012383,-0.012668339535593987,0.49483340978622437,0.4556492567062378,0.4927615821361542,-0.7413298487663269,-0.009009122848510742,0.026266247034072876,0.01289057731628418,0.9329878765152686,-0.2677060995373407,0.24014273603843794,0.014098897716167309
1729873551181505300,0.10850537109375,-0.01845584623515606,-0.038594212383031845,0.4574120342731476,0.45783671736717224,0.4906582236289978,-0.7413771152496338,-0.004787951707839966,0.03032270073890686,0.006575047969818115,0.9329633495280505,-0.26717989579800566,0.24067891520400667,0.01637008284225212
1729873551191535400,0.118535400390625,0.02639804594218731,-0.0888790637254715,0.42924535274505615,0.4595411419868469,0.48862120509147644,-0.7416679859161377,-0.0014111697673797607,0.02537122368812561,0.007079482078552246,0.933001162493944,-0.2666384748656283,0.24097703803944856,0.018522121373022653
1729873551201566200,0.128566162109375,0.051145732402801514,-0.13483722507953644,0.39778491854667664,0.4607362747192383,0.4864027202129364,-0.7423843741416931,0.002657979726791382,0.010560870170593262,0.00871133804321289,0.9331503641401908,-0.26593384090612165,0.24101248911273937,0.020558689043870322
1729873551211597300,0.138597412109375,0.020291946828365326,-0.15934966504573822,0.34430012106895447,0.4614706039428711,0.4844088554382324,-0.743231475353241,0.01074323058128357,0.004284471273422241,-0.014840364456176758,0.9333335566961247,-0.2652994776851642,0.24083284507377917,0.02245736421487734
1729873551221627100,0.148627197265625,-0.027326436713337898,-0.19632205367088318,0.3064827024936676,0.4617150127887726,0.482943594455719,-0.7440328001976013,0.02125626802444458,0.008069068193435669,-0.013428688049316406,0.9335043801854167,-0.26490807923769694,0.2404314996473522,0.024210872413063824
1729873551231658200,0.158658203125,-0.08748991042375565,-0.21802590787410736,0.2968255281448364,0.46164649724960327,0.48199644684791565,-0.7446891665458679,0.01786103844642639,-0.0022600293159484863,0.01274043321609497,0.9336331152525579,-0.26479912746360407,0.23986834934855158,0.025960114946994774
1729873551241688300,0.168688232421875,-0.1185881718993187,-0.23862838745117188,0.3097570538520813,0.4613993167877197,0.481436550617218,-0.7452043890953064,0.014720797538757324,-0.025122404098510742,0.019832134246826172,0.9337186982436783,-0.2649224806266019,0.23919423868635167,0.02777989722845067
1729873551251719200,0.17871923828125,-0.08557037264108658,-0.2307753711938858,0.44706058502197266,0.46141597628593445,0.48045486211776733,-0.7458274364471436,0.012522101402282715,-0.01960882544517517,0.03655320405960083,0.9338174443185903,-0.264912340519586,0.2385534321687634,0.029982115128531155
1729873551261749200,0.188749267578125,-0.06114412099123001,-0.20764528214931488,0.5189344882965088,0.46215763688087463,0.4787735044956207,-0.7464491724967957,0.004090040922164917,-0.010023385286331177,0.03921961784362793,0.9338947674102893,-0.26465640834980264,0.2381856342248878,0.03264041946340905
1729873551271780400,0.1987802734375,-0.0483626127243042,-0.1940896362066269,0.51643967628479,0.4631443917751312,0.4767098128795624,-0.7471580505371094,0.009939223527908325,0.0051170289516448975,0.022426724433898926,0.9339831046767443,-0.26422613166960424,0.2379191705351449,0.03542309502821394
1729873551281811200,0.208811279296875,-0.0740157812833786,-0.19051727652549744,0.48807114362716675,0.46413615345954895,0.4748743772506714,-0.747711181640625,0.005971938371658325,0.010629862546920776,0.01730358600616455,0.9340260246971704,-0.26390233490446396,0.23769723595827288,0.03809241954872728
1729873551291841300,0.21884130859375,-0.06701851636171341,-0.22384151816368103,0.4924807846546173,0.46494099497795105,0.4731351137161255,-0.7483134865760803,-0.007726579904556274,0.006082504987716675,0.014655768871307373,0.9340751312350447,-0.26361950014287555,0.237377366294551,0.04074890520354336
1729873551301872000,0.2288720703125,-0.0032019922509789467,-0.25173014402389526,0.4927857518196106,0.46546241641044617,0.4711332321166992,-0.7492517828941345,-0.006203323602676392,0.015347540378570557,0.019805490970611572,0.9342059459214843,-0.2631670568735697,0.23689070606641946,0.043419222942221336
1729873551311902200,0.238902099609375,0.02088410221040249,-0.23434332013130188,0.4740123152732849,0.4659114480018616,0.4687608480453491,-0.7504597306251526,0.01652577519416809,0.015003889799118042,0.011202037334442139,0.9344060247667675,-0.26246910609799096,0.23638970611542262,0.045993080028040714
1729873551321933300,0.248933349609375,-0.022523559629917145,-0.21621891856193542,0.4622501730918884,0.4664081037044525,0.466586709022522,-0.7515053749084473,0.02397894859313965,0.022640645503997803,0.008997559547424316,0.9345604426433886,-0.2618667789922195,0.23595148491066922,0.04847172043713656
1729873551331963400,0.25896337890625,-0.08553773909807205,-0.21067723631858826,0.507256805896759,0.4670550525188446,0.46469175815582275,-0.7522773146629333,0.013139098882675171,0.025603681802749634,0.0348244309425354,0.9346276236983823,-0.2614734984707779,0.23556943854316498,0.05108671295935554
1729873551341994200,0.268994140625,-0.20931321382522583,-0.17546439170837402,0.5096065402030945,0.46798908710479736,0.4634019732475281,-0.752492368221283,-0.0015736222267150879,0.004646211862564087,0.07488024234771729,0.9345264690036511,-0.261508385727097,0.23530228589177346,0.05391158213773978
1729873551352025300,0.279025390625,-0.30173569917678833,-0.12985312938690186,0.5082709193229675,0.46919581294059753,0.46299120783805847,-0.751993715763092,-0.011737227439880371,-0.01734292507171631,0.08956402540206909,0.9342224111924236,-0.26209256900226524,0.235182099727534,0.05679490500799796
1729873551362055400,0.289055419921875,-0.2598910331726074,-0.10739868879318237,0.5171637535095215,0.47072136402130127,0.46275654435157776,-0.7511842846870422,-0.032794028520584106,-0.025241166353225708,0.10100734233856201,0.9338245426332499,-0.26281341247621826,0.23523812828314816,0.059698413161180665
1729873551372086300,0.299086181640625,-0.16706949472427368,-0.10069795697927475,0.5158913135528564,0.47236964106559753,0.46195268630981445,-0.7506442070007324,-0.04500141739845276,-0.02822151780128479,0.11067545413970947,0.9334965709197048,-0.26319155498957886,0.23538927855378777,0.06250102247921699
1729873551382116400,0.309116455078125,-0.05480899289250374,-0.11647585779428482,0.5615466833114624,0.4740077257156372,0.4602276086807251,-0.7506712079048157,-0.034905463457107544,-0.007850170135498047,0.09635919332504272,0.9333131475902955,-0.2630320199712429,0.23553884048443888,0.065286235911095
1729873551392147200,0.319147216796875,-0.01453600637614727,-0.15702785551548004,0.6118239760398865,0.4757425785064697,0.4577023386955261,-0.7511175870895386,-0.021503597497940063,0.026764273643493652,0.07539749145507812,0.9332220433264448,-0.2624600149829737,0.23570309692291397,0.06823120278142646
1729873551402178300,0.32917822265625,0.0004868851974606514,-0.2211035192012787,0.7115236520767212,0.47738829255104065,0.4545467793941498,-0.7519891858100891,0.011686503887176514,0.045834749937057495,0.04599565267562866,0.9332037614928876,-0.261623730942721,0.23570837484083546,0.07159211973762186
1729873551412208400,0.33920849609375,-0.006348051130771637,-0.3458937108516693,0.6712265610694885,0.47845298051834106,0.4513171315193176,-0.7532566785812378,0.0380113422870636,0.037589818239212036,0.059027671813964844,0.9332569416626917,-0.26076600192773436,0.23531417417392578,0.07523184189639383
1729873551422239200,0.3492392578125,0.04760466143488884,-0.2768683135509491,0.6293262839317322,0.47893843054771423,0.4479497969150543,-0.7549563050270081,0.05681303143501282,0.02018997073173523,0.05547827482223511,0.9334281046598455,-0.2597278317738923,0.23465569031801914,0.0786784863870512
1729873551432269300,0.359269287109375,-0.17341940104961395,-0.13559943437576294,0.5277761816978455,0.4800019860267639,0.4454907476902008,-0.755735456943512,0.03223565220832825,0.016926884651184082,0.018934428691864014,0.9333740526108562,-0.2591748743743075,0.23443688019554554,0.08173510232110584
1729873551442300400,0.369300537109375,-0.5750176906585693,-0.062250375747680664,0.44931280612945557,0.48147645592689514,0.4459960460662842,-0.7544985413551331,0.0014338195323944092,0.03876051306724548,-0.03615081310272217,0.9327922189089088,-0.2603185717869195,0.2344887627071127,0.08454613671976806
1729873551452330200,0.379330322265625,-0.842477560043335,-0.0878186970949173,0.459850937128067,0.4829794466495514,0.4492984414100647,-0.7515729069709778,-0.03846028447151184,0.005077868700027466,0.02177560329437256,0.9317245131329885,-0.2631562391671406,0.2344405018661918,0.08761242269446193
1729873551462361300,0.389361328125,-0.8857145309448242,-0.1156199648976326,0.44679081439971924,0.4843093454837799,0.4536241590976715,-0.7481107115745544,-0.06547078490257263,-0.07337504625320435,0.113497793674469,0.930476893627627,-0.2666449067866749,0.23419039755131163,0.09092963094833387
1729873551472392400,0.399392333984375,-0.8227397799491882,-0.1662013828754425,0.32055535912513733,0.4850194454193115,0.4581964612007141,-0.744857132434845,-0.04404035210609436,-0.09392333030700684,0.17016547918319702,0.9293041169157475,-0.2701429075485396,0.23365410912048465,0.09392807498011914
1729873551482422300,0.40942236328125,-0.7515425682067871,-0.20467154681682587,0.1882958710193634,0.4848180115222931,0.4628092646598816,-0.7421314716339111,-0.021530568599700928,-0.04439792037010193,0.16516625881195068,0.9283314421784594,-0.2734067174103404,0.2327724717497924,0.096263205523347
1729873551492453400,0.419453369140625,-0.734863817691803,-0.23983459174633026,0.1413470059633255,0.48392778635025024,0.4675225615501404,-0.7397544384002686,-0.014079034328460693,0.021262317895889282,0.1076744794845581,0.9274900427159106,-0.27655347294878274,0.2316051740955847,0.09818136361802776
1729873551502483500,0.4294833984375,-0.7768397331237793,-0.2827668786048889,0.14008492231369019,0.4826596677303314,0.47245267033576965,-0.7374470829963684,0.00916174054145813,0.029286950826644897,0.04681915044784546,0.9266670123018375,-0.27977897123213985,0.23021766881167033,0.10006012903581572
1729873551512510200,0.43951025390625,-0.7971308827400208,-0.2794013023376465,0.22033663094043732,0.48135796189308167,0.4773997366428375,-0.7351082563400269,0.04374292492866516,-0.020871907472610474,0.006256997585296631,0.9258023844407375,-0.2830782362857926,0.2287194221734034,0.10219787133154863
1729873551522540300,0.449540283203125,-0.8989664316177368,-0.19943614304065704,0.24115055799484253,0.4807666540145874,0.4824357032775879,-0.7322016954421997,0.04595157504081726,-0.07569733262062073,-0.011831998825073242,0.9247465799064984,-0.2865873701849535,0.22752327563678995,0.1046171507917713
1729873551532571400,0.4595712890625,-1.0543131828308105,-0.11006829142570496,0.20537126064300537,0.48070114850997925,0.48854967951774597,-0.7281796932220459,0.012676656246185303,-0.09499487280845642,-0.03862011432647705,0.9233890371353667,-0.2907927904775969,0.2266047159943664,0.10697055782995311
1729873551542601500,0.4696015625,-1.276785135269165,-0.04698039963841438,0.26639360189437866,0.481283038854599,0.4958820044994354,-0.7228192687034607,-0.030538290739059448,-0.08490169048309326,-0.015583932399749756,0.9216466116887629,-0.29585217742706993,0.2259686863256627,0.10944059461983538
1729873551552632300,0.47963232421875,-1.5956565141677856,-0.0068074679002165794,0.5469091534614563,0.4832860827445984,0.5042417645454407,-0.7156639695167542,-0.017725080251693726,-0.0988614559173584,0.021953701972961426,0.9192764484731408,-0.3020031957277643,0.22574785449354634,0.11297351593869111
1729873551562663400,0.489663330078125,-2.059260845184326,0.05927541106939316,0.8062624335289001,0.4869406521320343,0.5139209628105164,-0.7062394618988037,0.04748329520225525,-0.11423218250274658,0.08757191896438599,0.9160648834904234,-0.3096208196037517,0.22586551228318152,0.11808917138754833
1729873551572693200,0.499693359375,-2.568833827972412,0.07728445529937744,1.0327221155166626,0.49226370453834534,0.5257025361061096,-0.6937676072120667,0.08328267931938171,-0.15766042470932007,0.12272274494171143,0.9117594871829464,-0.31926210125090887,0.22624746430540843,0.12481462071343626
1729873551582724400,0.509724365234375,-2.555540084838867,-0.15411202609539032,1.2785060405731201,0.49817267060279846,0.5378589630126953,-0.6800969243049622,0.05352422595024109,-0.21156495809555054,0.16396844387054443,0.9068298880741756,-0.32976631604399526,0.2262868085013224,0.13307209473226012
1729873551592754400,0.51975439453125,-2.2024621963500977,-0.29045164585113525,1.4911917448043823,0.5041956901550293,0.5470237135887146,-0.6682453751564026,0.05593925714492798,-0.24113065004348755,0.09436243772506714,0.9021157176090507,-0.3388789792375547,0.22591666884327874,0.14251365187791784
1729873551602785300,0.529785400390625,-1.6405856609344482,-0.23010867834091187,1.3941833972930908,0.5105525255203247,0.5523834824562073,-0.6589452028274536,0.08855342864990234,-0.15953058004379272,-0.10609984397888184,0.8980134023587969,-0.3457329513451815,0.22582321610227984,0.15180495425280768
1729873551612816400,0.53981640625,-1.2833435535430908,-0.02476617321372032,0.5611666440963745,0.5154693722724915,0.556585431098938,-0.6515398025512695,0.0728638768196106,-0.020620405673980713,-0.19472777843475342,0.8948386288502962,-0.3509525679897702,0.22596989539656817,0.15822105781564774
1729873551622846500,0.549846435546875,-1.2771764993667603,-0.08720158785581589,-0.8825678825378418,0.5147104263305664,0.5661302208900452,-0.643871009349823,0.0077964067459106445,-0.008619725704193115,-0.23289895057678223,0.8926424213898029,-0.35704627698589914,0.22490543227486073,0.15850910014974004
1729873551632877300,0.559877197265625,-1.6138325929641724,-0.7045891284942627,-0.5274949669837952,0.5070304870605469,0.579423189163208,-0.6381136178970337,-0.07123935222625732,-0.18458664417266846,-0.14447903633117676,0.8912282825903529,-0.3639526239254883,0.2201855554768712,0.15738212599514415
1729873551642907400,0.569907470703125,-2.2094573974609375,-0.8145220279693604,0.6337534785270691,0.5025827884674072,0.591221272945404,-0.630767822265625,0.12929904460906982,-0.23469960689544678,-0.006271243095397949,0.8884886063781788,-0.3717811612313989,0.21539463710925086,0.1611585757215603
1729873551652938200,0.579938232421875,-2.6587629318237305,-0.535394549369812,1.161730408668518,0.5039587616920471,0.6017518043518066,-0.6196131706237793,0.40030771493911743,-0.09158939123153687,0.07337915897369385,0.883811402697775,-0.3810709280418167,0.21208101382812614,0.1693641692208654
1729873551662968300,0.58996826171875,-2.920926570892334,-0.1784617304801941,0.9417622089385986,0.508423924446106,0.6134184002876282,-0.6043368577957153,0.2276144027709961,-0.0851743221282959,0.10912823677062988,0.8778154061048592,-0.391974960950293,0.21020749109788198,0.17778837018900323
1729873551672999400,0.59999951171875,-3.165062427520752,-0.019368214532732964,0.5710973143577576,0.5125606060028076,0.6277396082878113,-0.5858538746833801,-0.07876843214035034,-0.2095266580581665,0.08470958471298218,0.8711570659934939,-0.40444363808443845,0.20856273290292693,0.18442469873555342
1729873551683030300,0.6100302734375,-3.42154598236084,-0.007108085323125124,0.4685640037059784,0.5157080888748169,0.644228458404541,-0.5648141503334045,-0.21243953704833984,-0.33746570348739624,0.13755285739898682,0.8638817488704283,-0.4182878517026056,0.20646600347251617,0.1900409581584481
1729873551693060400,0.620060302734375,-3.4650697708129883,-0.12023144960403442,0.6209412813186646,0.5189032554626465,0.6606458425521851,-0.5424819588661194,-0.15241754055023193,-0.363450288772583,0.19169777631759644,0.8560442250089998,-0.4325916152461349,0.20401840205689203,0.19603445005913836
1729873551703089000,0.6300888671875,-3.2658963203430176,-0.24519574642181396,0.7643088698387146,0.5226354598999023,0.6749812960624695,-0.5208192467689514,-0.028128445148468018,-0.30480295419692993,0.1885896921157837,0.8480848539298506,-0.44612511303746577,0.20140198718632382,0.20288423828798313
1729873551713119000,0.640118896484375,-3.0656609535217285,-0.2881578505039215,0.7176752686500549,0.5263561010360718,0.6871945261955261,-0.5007126927375793,0.05715537071228027,-0.21070820093154907,0.1100115180015564,0.8404275885713041,-0.45844494093837057,0.1986753274408103,0.2098525474744473
1729873551723150000,0.650150146484375,-3.03587007522583,-0.2716670334339142,0.6553128361701965,0.5297238826751709,0.6985843777656555,-0.481012225151062,0.05226171016693115,-0.12024563550949097,0.0018863677978515625,0.8328797866625547,-0.47025603422141904,0.1958395951308384,0.21637386554207477
1729873551733180200,0.66018017578125,-3.1505331993103027,-0.19644132256507874,0.6851013898849487,0.533287763595581,0.7095913290977478,-0.4605264663696289,0.012473523616790771,-0.06550240516662598,-0.04679769277572632,0.825019751096765,-0.48215661900643536,0.19303304805107985,0.22272388583233815
1729873551743211000,0.6702109375,-3.3625988960266113,-0.13163675367832184,0.7466970682144165,0.5377202033996582,0.7203906774520874,-0.4380575120449066,0.010558724403381348,-0.08208495378494263,-0.06354451179504395,0.816391543846641,-0.49467247675611375,0.19044784475731769,0.22920232933143964
1729873551753242000,0.6802421875,-3.5757434368133545,-0.04912440478801727,0.7255271077156067,0.5426964163780212,0.7311622500419617,-0.41337940096855164,-0.0068686604499816895,-0.1379309892654419,-0.0010339021682739258,0.8069152051212739,-0.5079500037458785,0.18787518755837254,0.23574931248483963
1729873551763272000,0.69027197265625,-3.6680922508239746,-0.027519244700670242,0.6596996188163757,0.5477254986763,0.7419426441192627,-0.3866759240627289,-0.0420185923576355,-0.17433083057403564,0.06073307991027832,0.7967137974684756,-0.5218879048557656,0.1851892226743108,0.24204419090166412
1729873551773303000,0.700302978515625,-3.698174238204956,0.010941755026578903,0.5719380974769592,0.5523086190223694,0.7523795366287231,-0.3589993417263031,-0.08068984746932983,-0.1643667221069336,0.15915513038635254,0.786168304084821,-0.5359805151380194,0.18227785014720718,0.24786952562791673
1729873551783333000,0.7103330078125,-3.291656017303467,-0.08095833659172058,0.5882813334465027,0.5564830303192139,0.761499285697937,-0.33233368396759033,-0.09557586908340454,-0.11063557863235474,0.19028973579406738,0.7758445468999066,-0.5492921264229503,0.1791963110787535,0.2534407705215787
1729873551793364000,0.720364013671875,-2.7025599479675293,-0.043450433760881424,0.6571837067604065,0.5610587000846863,0.7676438689231873,-0.3097354769706726,-0.0664907693862915,-0.011052072048187256,0.16921749711036682,0.766773436337413,-0.5602317514430538,0.1768407270943474,0.25870109965874505
1729873551803394000,0.73039404296875,-2.2460110187530518,0.10184391587972641,0.6987900137901306,0.5664089322090149,0.7711617350578308,-0.29067280888557434,0.005292236804962158,0.06375348567962646,0.01215428113937378,0.7589017697033186,-0.5690481075852691,0.1756355494305429,0.2634475468000959
1729873551813425200,0.740425048828125,-2.1331236362457275,0.29265642166137695,0.7299034595489502,0.5724986791610718,0.7732019424438477,-0.27277132868766785,0.014018714427947998,0.10707765817642212,0.003286033868789673,0.7515630255556376,-0.5768786226322418,0.1755716233102757,0.26746735564938406
1729873551823456000,0.7504560546875,-2.4501543045043945,0.33017128705978394,0.8119301795959473,0.5793388485908508,0.7747277021408081,-0.2533053457736969,0.004187822341918945,0.10744398832321167,-0.030507951974868774,0.7436276835775256,-0.5851366852251957,0.17596130861227666,0.27142329713241076
1729873551833486000,0.760486083984375,-3.018068552017212,0.2377101331949234,0.8130260705947876,0.5864576697349548,0.7765299677848816,-0.23036660254001617,0.013518035411834717,0.007375121116638184,0.016133368015289307,0.7341684387919635,-0.5949205463804909,0.1757448117455814,0.2760075238302135
1729873551843517200,0.77051708984375,-3.5318379402160645,0.03076360933482647,0.6956890225410461,0.5926821231842041,0.7791914939880371,-0.20393294095993042,0.030196964740753174,-0.1351485252380371,0.06182803213596344,0.7230901744274897,-0.606448512298153,0.17393599845811616,0.28125992264115107
1729873551853547000,0.780547119140625,-3.80674409866333,-0.1725475937128067,0.5380783677101135,0.5973584055900574,0.7825458645820618,-0.17545680701732635,0.023170828819274902,-0.2102038860321045,0.09806443750858307,0.7109309339112514,-0.6190886030926206,0.17029649029174107,0.28688971786851236
1729873551863578000,0.790578125,-3.7003462314605713,-0.31627175211906433,0.4103928506374359,0.6006597876548767,0.7858266830444336,-0.14725683629512787,0.024172484874725342,-0.17399489879608154,0.09243214130401611,0.698616852312377,-0.6316733250867848,0.1654097792228213,0.2925117164056881
1729873551873609000,0.80060888671875,-3.5525410175323486,-0.3195534348487854,0.34332218766212463,0.6032052040100098,0.7883915901184082,-0.12075705081224442,0.02275615930557251,-0.0481266975402832,0.05099404603242874,0.6867859615602774,-0.643413075672518,0.16012835142575002,0.29783153911531046
1729873551883639000,0.81063916015625,-2.8512938022613525,-0.25158214569091797,0.5901447534561157,0.6065096259117126,0.7891189455986023,-0.09714736044406891,0.007076859474182129,0.13232886791229248,-0.021947316825389862,0.6759139434666734,-0.6535619652916301,0.15583028300682675,0.3028434296190386
1729873551893670100,0.820670166015625,-2.3266794681549072,-0.13446322083473206,0.8015209436416626,0.6119025349617004,0.7870847582817078,-0.07792975753545761,-0.003412485122680664,0.2680147886276245,-0.14480262994766235,0.6664751265116213,-0.6614073899635581,0.15354277654240744,0.30785689956216516
1729873551903700200,0.8307001953125,-1.8215136528015137,0.05253995954990387,0.8368240594863892,0.6183772087097168,0.783447265625,-0.061809174716472626,0.01948612928390503,0.2554016709327698,-0.25844210386276245,0.6582989459050496,-0.6676126833310577,0.15293370443559112,0.3123255459050989
1729873551913731000,0.84073095703125,-1.497645616531372,0.15430998802185059,0.735451340675354,0.6246141791343689,0.7794369459152222,-0.048325065523386,-0.04712998867034912,0.23528778553009033,-0.22585994005203247,0.6514697940675341,-0.6725514386414665,0.15333633008518388,0.3158317573102217
1729873551923761000,0.850760986328125,-1.313535213470459,0.23126016557216644,0.7041829228401184,0.6302845478057861,0.775519073009491,-0.03621750697493553,-0.08675110340118408,0.17022061347961426,-0.24721431732177734,0.6454524593207324,-0.6768495052255726,0.15416222927838602,0.31859057621119
1729873551933792000,0.8607919921875,-1.307560682296753,0.31806063652038574,0.7706919312477112,0.6360541582107544,0.7712640166282654,-0.02423369325697422,-0.09017086029052734,0.1267157793045044,-0.1847047209739685,0.6395702018075371,-0.6809738605455532,0.15542765183958832,0.3210404855939184
1729873551943823000,0.870822998046875,-1.304192304611206,0.2211061269044876,0.7380295991897583,0.6420022249221802,0.7665983438491821,-0.012669454328715801,-0.06622689962387085,0.042590558528900146,-0.0994214415550232,0.633723867763632,-0.6848979572798317,0.1567802958596518,0.3236185561100704
1729873551953853000,0.88085302734375,-1.2502363920211792,0.2525978982448578,0.6286098957061768,0.6472250819206238,0.7622981071472168,-0.0012422270374372602,-0.05991417169570923,-0.06109565496444702,-0.030587434768676758,0.627990211352199,-0.6888290036084614,0.15777671010666441,0.32595944897175205
1729873551963884000,0.890884033203125,-1.035374402999878,0.34101298451423645,0.6112362146377563,0.6519370675086975,0.7582146525382996,0.009425862692296505,-0.08673620223999023,-0.036168694496154785,-0.09574460983276367,0.6227584622610338,-0.6924222732955624,0.15894755972038457,0.32780949071549415
1729873551973913900,0.900913818359375,-0.899743378162384,0.42453429102897644,0.5813084244728088,0.6563992500305176,0.754170298576355,0.019164076074957848,-0.0792507529258728,0.059474050998687744,-0.138777494430542,0.6181399901642775,-0.6955473847852973,0.16061093769539347,0.32912147671152564
1729873551983945000,0.910945068359375,-0.8391881585121155,0.5004295706748962,0.5771852731704712,0.6606425642967224,0.7501487731933594,0.02878270111978054,-0.07038670778274536,0.1411629319190979,-0.14027845859527588,0.6137770803870097,-0.6985279752253228,0.16263461550286962,0.3299794697687717
1729873551993975000,0.92097509765625,-0.915842592716217,0.5385942459106445,0.5570254325866699,0.6647777557373047,0.7460362911224365,0.038734614849090576,-0.07034105062484741,0.1694909930229187,-0.13759613037109375,0.6093525009326495,-0.7015758889186395,0.1647986000836612,0.3306391419529179
1729873552004006000,0.931005859375,-1.0391343832015991,0.5825651288032532,0.4441276490688324,0.66832035779953,0.742206871509552,0.04977119341492653,-0.05184990167617798,0.13027548789978027,-0.11800825595855713,0.6046033019532809,-0.7050544431400075,0.16668482152236544,0.3310127167712489
1729873552014037000,0.941037109375,-1.1834553480148315,0.6047862768173218,0.29970309138298035,0.6707276105880737,0.7391065955162048,0.06201586127281189,-0.054882824420928955,0.07588058710098267,-0.09215176850557327,0.59954959508178,-0.7090875401971849,0.167936867474583,0.3309567621835715
1729873552024066800,0.95106689453125,-1.2235127687454224,0.6706529259681702,0.28014057874679565,0.6724287271499634,0.7363278865814209,0.07524079084396362,-0.07515376806259155,0.04901152849197388,-0.015273571014404297,0.5942232378937335,-0.7135151379301619,0.16886842253742365,0.3305729646653075
1729873552034098000,0.961097900390625,-1.3266011476516724,0.8728635907173157,0.1918165683746338,0.6734103560447693,0.7337785363197327,0.08993303030729294,-0.06768208742141724,0.07774490118026733,-0.009839415550231934,0.588535702003671,-0.7184464695788679,0.16970911826803153,0.32963529668091957
1729873552044128000,0.9711279296875,-1.3204582929611206,0.9404990673065186,0.21464066207408905,0.6741051077842712,0.7310575246810913,0.10553441941738129,-0.07946997880935669,0.10512417554855347,0.02532517910003662,0.5827861384348152,-0.7235224899252797,0.1711210579970901,0.32801409525067754
1729873552054158800,0.981158935546875,-1.6572026014328003,1.0648353099822998,0.12178527563810349,0.6742320656776428,0.7281593084335327,0.12326879799365997,-0.07668256759643555,0.08585125207901001,0.05080364644527435,0.5761872352438817,-0.7293648642254705,0.1722245422623035,0.3261501349679658
1729873552064190000,0.99118994140625,-1.8374288082122803,1.0479307174682617,0.04557892307639122,0.6734234094619751,0.725238561630249,0.14328376948833466,-0.03522449731826782,0.06124520301818848,0.11925910413265228,0.5686622675994715,-0.7360785965031238,0.17271417692966293,0.3240084235826059
1729873552074220000,1.001219970703125,-1.8236398696899414,0.9358453750610352,0.07221852242946625,0.672262966632843,0.7220549583435059,0.16339896619319916,0.0009701251983642578,0.050131261348724365,0.15485380589962006,0.5608821771635732,-0.7428694308575969,0.172755592254482,0.3220430739537703
1729873552084251000,1.0112509765625,-1.6751604080200195,0.845379650592804,0.1422165185213089,0.6716068387031555,0.718214750289917,0.18196728825569153,0.08811312913894653,0.021516084671020508,0.10506594181060791,0.5533676969865371,-0.7490787231125253,0.1728141003955186,0.3206254067281886
1729873552094281000,1.021281005859375,-1.6097352504730225,0.8845923542976379,0.062205567955970764,0.6707174181938171,0.7144017815589905,0.1994204819202423,0.1765727400779724,0.0055994391441345215,-0.04370439052581787,0.5463485049532526,-0.7548342735134994,0.17301866512691602,0.3190504693796719
1729873552104312000,1.03131201171875,-1.7909239530563354,0.940108060836792,0.0685364380478859,0.6692057847976685,0.710461437702179,0.2177354395389557,0.15252596139907837,-0.006619155406951904,-0.023567169904708862,0.5389942155895837,-0.7608785728926281,0.17300727997593104,0.31720301100739673
1729873552114342000,1.041341796875,-1.7146373987197876,0.9894877672195435,0.24095162749290466,0.66805499792099,0.7054235339164734,0.2368132770061493,0.09337401390075684,0.027212023735046387,0.15748929977416992,0.5311015107884809,-0.7670549596104868,0.17330126631552759,0.31547534434064467
1729873552124373000,1.051373046875,-1.3635233640670776,0.9715625643730164,0.36610183119773865,0.6678412556648254,0.6994525790214539,0.2544696629047394,0.11789500713348389,0.0645551085472107,0.165833979845047,0.5237102235381415,-0.7724738435625614,0.17469685118322625,0.31383598295942766
1729873552134403800,1.06140380859375,-1.0709121227264404,1.0621070861816406,0.29577651619911194,0.6675474047660828,0.6940513253211975,0.269580602645874,0.13544654846191406,0.044764041900634766,0.08776524662971497,0.5176368325797703,-0.7768869369799568,0.17673990458982397,0.31186856099011145
1729873552144434000,1.071433837890625,-0.9081401824951172,1.0212746858596802,0.16184695065021515,0.6662439107894897,0.6897944808006287,0.2833777070045471,0.1203315258026123,0.05231672525405884,-0.05046740174293518,0.5125269898179725,-0.7808369754641151,0.17883645079342594,0.30923668213499816
1729873552154465000,1.081465087890625,-0.880582332611084,0.9956963062286377,0.11764805763959885,0.6642157435417175,0.6863021850585938,0.2963223457336426,0.08622682094573975,0.12892907857894897,0.006168097257614136,0.5078816944586926,-0.7845797289890569,0.18054311249432986,0.30642307543711883
1729873552164495000,1.0914951171875,-0.6294848918914795,0.9434090852737427,0.16577351093292236,0.6622387170791626,0.6830644607543945,0.3079989552497864,0.08319908380508423,0.18131548166275024,0.07307425141334534,0.5037822821917126,-0.787867493766155,0.1823849952080625,0.30365135019777595
1729873552174526000,1.10152587890625,-0.5238559246063232,0.8957284092903137,0.165630504488945,0.6605456471443176,0.6801624298095703,0.3178982436656952,0.09429168701171875,0.140638530254364,0.07873901724815369,0.5004697458964091,-0.790501955478227,0.18454207272865417,0.3009671229624181
1729873552184556000,1.11155615234375,-0.7003942131996155,0.826078474521637,0.07252638787031174,0.6585996150970459,0.6773995757102966,0.32768362760543823,0.09390288591384888,0.03691011667251587,0.054137200117111206,0.49710504879000733,-0.7931790499203014,0.1863030163578203,0.2984038020215135
1729873552194587000,1.1215869140625,-0.961766242980957,0.72740238904953,-0.01188383623957634,0.6561733484268188,0.674439013004303,0.3384799063205719,0.08685344457626343,-0.053879380226135254,0.048849403858184814,0.49300679482189863,-0.7963903265388212,0.1870892950106555,0.29614921371348796
1729873552204618000,1.131617919921875,-1.1025593280792236,0.5971496105194092,-0.016256481409072876,0.6537682414054871,0.6709638833999634,0.3498497009277344,0.07428967952728271,-0.10693800449371338,0.07861730456352234,0.4882504117878479,-0.7999453742417764,0.18711559054931487,0.2944261635699632
1729873552214648000,1.14164794921875,-1.1904033422470093,0.4577272832393646,0.010926936753094196,0.6518784761428833,0.6668771505355835,0.36101171374320984,0.07044214010238647,-0.108909010887146,0.06121441721916199,0.4831421191307046,-0.8035203463359362,0.1867107800323414,0.29337326092445226
1729873552224679000,1.151678955078125,-1.2939577102661133,0.38214704394340515,0.0019265180453658104,0.6504199504852295,0.6622536778450012,0.37198716402053833,0.06652969121932983,-0.06328511238098145,-0.020424485206604004,0.47772665522291896,-0.8071119191092015,0.1859137767818336,0.2928887413377556
1729873552234709000,1.161708984375,-1.2437834739685059,0.4475727081298828,0.02115241065621376,0.6489466428756714,0.6572853326797485,0.3832031488418579,0.060800790786743164,-0.0026984810829162598,-0.1272672414779663,0.47208666328460835,-0.8107794677703396,0.18503574941228762,0.2924598208234762
1729873552244740000,1.171739990234375,-0.826555073261261,0.4675176739692688,0.07634136080741882,0.6474522352218628,0.6528991460800171,0.3931015133857727,0.04313021898269653,0.031076133251190186,-0.1558423638343811,0.46731760910559883,-0.8138837437252946,0.18478095496236271,0.2916568025358376
1729873552254770000,1.18177001953125,-0.4515566825866699,0.4229849576950073,0.13362303376197815,0.646411657333374,0.6496811509132385,0.40008339285850525,0.007778465747833252,0.016685426235198975,-0.06472554802894592,0.4641795931190335,-0.8158941327510496,0.18536035321398234,0.2906815001348459
1729873552264801000,1.191801025390625,-0.41799286007881165,0.41529321670532227,0.1273355782032013,0.645588219165802,0.6471627354621887,0.4054587483406067,-0.020023465156555176,0.032006025314331055,0.009839951992034912,0.46191543823533854,-0.8173318322056559,0.18627411252282758,0.2896635339593381
1729873552274832100,1.20183203125,-0.4618004858493805,0.381068617105484,0.1201745942234993,0.6447492837905884,0.6445015668869019,0.4109947979450226,-0.03343623876571655,0.10081404447555542,0.07483011484146118,0.45949579622509623,-0.8188475195442754,0.1870458065364454,0.2887324841550855
1729873552284862000,1.211862060546875,-0.24477919936180115,0.3214913010597229,0.09870845079421997,0.643987774848938,0.6422749161720276,0.41564756631851196,-0.029119551181793213,0.13345134258270264,0.14290055632591248,0.4575009994951565,-0.8200976221359149,0.18778626327845796,0.28786998127138846
1729873552294893000,1.22189306640625,-0.05557771399617195,0.21605241298675537,0.08871254324913025,0.6434597373008728,0.6410964727401733,0.41827619075775146,0.0019412636756896973,0.07928615808486938,0.06481721997261047,0.45654657747442784,-0.8207133183735782,0.18859413730907562,0.28710131542111744
1729873552304923100,1.231923095703125,-0.0189957357943058,0.15562288463115692,0.07531338185071945,0.6432682275772095,0.6404075026512146,0.41962456703186035,0.012295246124267578,0.039951443672180176,-0.00290679931640625,0.45612313821515105,-0.8209600872278625,0.18930615741062842,0.2866000437378223
1729873552314954000,1.2419541015625,-0.12638910114765167,0.17661982774734497,0.031524620950222015,0.6429178714752197,0.6397866010665894,0.42110615968704224,0.0111350417137146,0.06870955228805542,-0.030282557010650635,0.4556208107463198,-0.8212949334456763,0.18980968415774888,0.2861063468227407
1729873552324985000,1.251985107421875,-0.19607950747013092,0.14617562294006348,-0.017317749559879303,0.6422743201255798,0.6389901041984558,0.42329153418540955,-0.02270638942718506,0.12307959794998169,-0.03613010048866272,0.45473433432640153,-0.8219199850252853,0.18998238007736237,0.28560645066826457
1729873552335015200,1.26201513671875,-0.18928344547748566,0.056375496089458466,-0.10176818817853928,0.6415055990219116,0.6385229825973511,0.4251580238342285,-0.07081156969070435,0.16234982013702393,0.0422036349773407,0.45392289403564967,-0.822552942661796,0.18969889903900472,0.2852632614422232
1729873552345046000,1.2720458984375,-0.0527770034968853,0.028257574886083603,-0.17955166101455688,0.6404260396957397,0.6388518810272217,0.42628976702690125,-0.09553462266921997,0.17209172248840332,0.021830499172210693,0.45352073217206373,-0.823057851612148,0.1889990954705097,0.28491072772803044
1729873552355076000,1.282076171875,0.23402567207813263,0.030704380944371223,-0.20222660899162292,0.6390802264213562,0.6404688954353333,0.4258837401866913,-0.09843051433563232,0.17541879415512085,-0.05747523903846741,0.4541442587748048,-0.8230708061791754,0.18840464628652304,0.2842734912077729
1729873552365107000,1.29210693359375,0.4412984251976013,-0.022061895579099655,-0.22905182838439941,0.6376786231994629,0.6432921290397644,0.4237229526042938,-0.09330612421035767,0.15793150663375854,-0.11578521132469177,0.4558573616514939,-0.8224980386225277,0.1880384307796179,0.2834300006455534
1729873552375137000,1.302136962890625,0.577971875667572,-0.058939218521118164,-0.25328367948532104,0.6363182663917542,0.6470010876655579,0.4201062023639679,-0.08697116374969482,0.13058686256408691,-0.13501065969467163,0.45835881940666856,-0.8214820425889422,0.1876708688994712,0.28258505079214946
1729873552385168100,1.312168212890625,0.6150830388069153,-0.0380278155207634,-0.2544299066066742,0.6348785161972046,0.651117742061615,0.41590338945388794,-0.08431071043014526,0.09827202558517456,-0.12827497720718384,0.4612244303574122,-0.8202711762207134,0.18736833225117766,0.2816390618378784
1729873552395199000,1.322198974609375,0.6275019645690918,-0.07657073438167572,-0.2629331052303314,0.6334132552146912,0.6553479433059692,0.41146934032440186,-0.07451426982879639,0.043702900409698486,-0.09912171959877014,0.46420636320171665,-0.8189873144440516,0.1870680279060537,0.28067403182333334
1729873552405229000,1.33222900390625,0.5208240151405334,-0.1635359823703766,-0.24363397061824799,0.6322430968284607,0.6593539714813232,0.4068430960178375,-0.04902160167694092,-0.029318571090698242,-0.03878563642501831,0.4670680423158613,-0.817693278435179,0.18654558300934862,0.280046414228568
1729873552415260200,1.34226025390625,0.3897097408771515,-0.22957640886306763,-0.19241845607757568,0.6315749883651733,0.6625890731811523,0.4026033878326416,-0.004285991191864014,-0.08141219615936279,-0.011123597621917725,0.46941871465573337,-0.8165594091719481,0.18582901789382805,0.2799010949319555
1729873552425290000,1.3522900390625,0.31215184926986694,-0.3448753356933594,-0.11438597738742828,0.6317178010940552,0.6649246215820312,0.3985075056552887,0.033214569091796875,-0.10356903076171875,0.05205428600311279,0.47129874316451925,-0.8154902770412876,0.18501179862844425,0.2803995143081572
1729873552435321000,1.362321044921875,0.3807331621646881,-0.43444204330444336,-0.0725913941860199,0.6326944231987,0.6668474078178406,0.3937169015407562,0.04291921854019165,-0.12139129638671875,0.14371320605278015,0.47318978879196566,-0.814204322897186,0.18420035898682655,0.2814840093170096
1729873552445351200,1.37235107421875,0.4106500446796417,-0.47675275802612305,-0.06999241560697556,0.6340324878692627,0.6688637733459473,0.388104110956192,0.04049772024154663,-0.13311231136322021,0.11384934186935425,0.47535318629896195,-0.8126604959115701,0.18339839847402503,0.28282074211004127
1729873552455382000,1.382382080078125,0.425461083650589,-0.4701886475086212,-0.06600619107484818,0.6353987455368042,0.6708865761756897,0.38233482837677,0.016166865825653076,-0.1153598427772522,0.0762224793434143,0.4775564051464216,-0.8110698620762288,0.1825735232431906,0.28420513613273196
1729873552465413000,1.3924130859375,0.5704286694526672,-0.47738903760910034,-0.08606112748384476,0.6367453932762146,0.6732338070869446,0.37591418623924255,0.004261016845703125,-0.08328336477279663,0.061921626329422,0.4801229069924421,-0.809251100594949,0.18185087891451124,0.2855256337938771
1729873552475443000,1.40244287109375,0.47608479857444763,-0.4359390139579773,-0.11425228416919708,0.6377694010734558,0.6759496927261353,0.3692459464073181,0.00551074743270874,-0.08332884311676025,0.014863729476928711,0.48292771608571256,-0.807350870230591,0.18112852750322314,0.2866321478174995
1729873552485474000,1.41247412109375,0.08061573654413223,-0.38466358184814453,-0.10324490815401077,0.6385225653648376,0.6776890158653259,0.3647286295890808,0.00709223747253418,-0.08337444067001343,0.032274723052978516,0.4845910206435768,-0.8061826328286185,0.18009405974106396,0.2877627203238762
1729873552495504000,1.42250390625,-0.1699475646018982,-0.4693823456764221,-0.03986087813973427,0.6395555734634399,0.6779341101646423,0.36245593428611755,0.041001737117767334,-0.06860488653182983,0.14207610487937927,0.4848321716402783,-0.8057867426732593,0.17870559700919394,0.28932661962498624
1729873552505535000,1.432534912109375,-0.26991382241249084,-0.5746267437934875,0.003814166411757469,0.6413512229919434,0.6772096753120422,0.36063313484191895,0.07839077711105347,-0.10643929243087769,0.21830084919929504,0.48440332373875683,-0.8055898284701423,0.17703559451020906,0.29161114444582453
1729873552515564800,1.442564697265625,-0.26136767864227295,-0.6763713359832764,0.003001902252435684,0.643677830696106,0.676169216632843,0.35843291878700256,0.10143941640853882,-0.1606205701828003,0.19349294900894165,0.48384961377832236,-0.805316931142074,0.17516020859673517,0.29440297705246127
1729873552525596000,1.452595947265625,-0.3343345522880554,-0.735204815864563,-0.046946749091148376,0.6460855007171631,0.6752628087997437,0.3558010160923004,0.07423633337020874,-0.1563417911529541,0.18997564911842346,0.4833346409752291,-0.804980202927309,0.1729375073514895,0.29746827213679194
1729873552535627000,1.462626953125,-0.4415147602558136,-0.737865686416626,-0.06707704812288284,0.6483259201049805,0.6742299795150757,0.35367774963378906,0.019993901252746582,-0.08591210842132568,0.17998337745666504,0.4824573797751968,-0.8048807505976633,0.17031103064422537,0.30065964452041855
1729873552545656800,1.47265673828125,-0.3348676860332489,-0.6936047673225403,-0.10138442367315292,0.6503435373306274,0.673308253288269,0.35172396898269653,-0.024107396602630615,0.0032970309257507324,0.13283434510231018,0.4815609119909139,-0.8048297475080538,0.16766355000342587,0.3037059042236923
1729873552555688000,1.48268798828125,-0.24453139305114746,-0.6881341338157654,-0.17695987224578857,0.6518240571022034,0.6732413172721863,0.3491017818450928,-0.05216872692108154,0.027015089988708496,0.043369799852371216,0.48123260082977437,-0.8045600923805774,0.16502713192905422,0.30637312162842006
1729873552565718000,1.492718017578125,-0.2774938642978668,-0.7231163382530212,-0.2157735824584961,0.6529424786567688,0.6736466288566589,0.3462182879447937,-0.08963358402252197,0.004545629024505615,-0.021541565656661987,0.48108137393203143,-0.8042543876409268,0.16212347434032712,0.30895282521674566
1729873552575748900,1.502748779296875,-0.30177929997444153,-0.7096338272094727,-0.21985433995723724,0.6539673805236816,0.6740365624427795,0.34351393580436707,-0.10112607479095459,-0.013132631778717041,-0.02428460121154785,0.4807969103428473,-0.8040274176371225,0.15904990522207915,0.3115726977686423
1729873552585779000,1.512779052734375,-0.18753288686275482,-0.692337155342102,-0.2147647738456726,0.6549202799797058,0.6745750904083252,0.3406292200088501,-0.08721691370010376,-0.03395003080368042,-0.045997023582458496,0.48066860179585036,-0.8037072039235507,0.15610681078160382,0.31407518046815563
1729873552595810000,1.52281005859375,-0.019611593335866928,-0.7047663331031799,-0.20343302190303802,0.6558721661567688,0.675605297088623,0.33673369884490967,-0.07233017683029175,-0.04975080490112305,-0.038485169410705566,0.4811321251356502,-0.8030117959906825,0.15342394561272657,0.3164572356044613
1729873552605841000,1.5328408203125,0.05709810182452202,-0.703859269618988,-0.19704170525074005,0.6568992733955383,0.6769824624061584,0.33193153142929077,-0.038704514503479004,-0.023646831512451172,-0.06372758746147156,0.4820734477672836,-0.8019849086619506,0.15095020568034911,0.3188096710840063
1729873552615871000,1.54287109375,0.13400307297706604,-0.717714786529541,-0.18996913731098175,0.6579102277755737,0.6786012649536133,0.32658013701438904,0.0015289783477783203,0.04115575551986694,-0.06782141327857971,0.48331684755414084,-0.8007547397378161,0.148599847008822,0.32111491572424744
1729873552625901800,1.55290185546875,0.14878174662590027,-0.7293187379837036,-0.14336729049682617,0.6591111421585083,0.6801885962486267,0.3208058178424835,0.03002166748046875,0.08961737155914307,-0.006840825080871582,0.484709671028585,-0.7993557310503052,0.14640126029026215,0.3235023547717034
1729873552635932000,1.562931884765625,0.2105483114719391,-0.7393902540206909,-0.08406002819538116,0.6607003808021545,0.6814633011817932,0.31477540731430054,0.06387871503829956,0.09322553873062134,-0.005708426237106323,0.48609913823652673,-0.7978280098339199,0.14442356613676732,0.326067782907424
1729873552645963000,1.572962890625,0.27530014514923096,-0.7216605544090271,-0.04171736538410187,0.6625690460205078,0.6826756000518799,0.3081507086753845,0.09716629981994629,0.05714684724807739,-0.030211657285690308,0.4877558473599491,-0.7960408938022384,0.14280842147981607,0.32866259531095937
1729873552655993900,1.582993896484375,0.12890291213989258,-0.6415812373161316,0.01994945853948593,0.6645635962486267,0.6833903193473816,0.30221322178840637,0.11659479141235352,0.020039737224578857,-0.09721130132675171,0.489076603951789,-0.7944228111766064,0.1414178574575177,0.33120605770655975
1729873552666024000,1.59302392578125,0.14148502051830292,-0.5542133450508118,0.04966474324464798,0.6666406393051147,0.683491587638855,0.2973710596561432,0.12939512729644775,0.041178762912750244,-0.10208898782730103,0.4899198426221526,-0.7930949415324565,0.14030661649075915,0.33360613001719064
1729873552676055000,1.603054931640625,0.22356264293193817,-0.5474807620048523,0.003434133715927601,0.6684682369232178,0.683819591999054,0.29247504472732544,0.14043086767196655,0.0802643895149231,-0.11342820525169373,0.49096898157241253,-0.7917123028846186,0.1393884996882254,0.3357263622407304
1729873552686084900,1.6130849609375,0.31280383467674255,-0.4919956624507904,-0.07648653537034988,0.6697599291801453,0.6848347187042236,0.28709402680397034,0.13396626710891724,0.11692297458648682,-0.12165814638137817,0.49245897200627065,-0.7901850542107671,0.13840013007448712,0.33754570341548457
1729873552696116000,1.623115966796875,0.5742711424827576,-0.4619767367839813,-0.10157803446054459,0.6704497933387756,0.6866890788078308,0.28099051117897034,0.1288515329360962,0.16826093196868896,-0.07786533236503601,0.4946524066052255,-0.7883881789681192,0.13762026083928994,0.33885681146301455
1729873552706147000,1.63314697265625,0.6931136250495911,-0.6058953404426575,-0.10691474378108978,0.6712011098861694,0.6892337203025818,0.2728482186794281,0.11624401807785034,0.1798763871192932,0.032388776540756226,0.49782636378389833,-0.7859018441672277,0.13704888491173947,0.3402129956823578
1729873552716178200,1.64317822265625,0.2472372204065323,-0.7502245903015137,-0.16279637813568115,0.6721498966217041,0.6914085149765015,0.2648940086364746,0.1066281795501709,0.14060741662979126,0.10685604810714722,0.5004046230510932,-0.7836151870023857,0.1356253810747704,0.3422692568072353
1729873552726209300,1.653209228515625,0.13055479526519775,-0.5505809783935547,-0.23122470080852509,0.6725485324859619,0.6931765675544739,0.2592007517814636,0.11741435527801514,0.08630341291427612,-0.014724284410476685,0.5018546956046455,-0.7821705015326575,0.1334529050135373,0.3442986986802932
1729873552736239000,1.663239013671875,0.07301241904497147,-0.35672104358673096,-0.21738958358764648,0.6720864772796631,0.6950204968452454,0.25543418526649475,0.09710925817489624,-0.03944188356399536,-0.2024402618408203,0.5029816889418621,-0.7812775821252329,0.1316147051669241,0.34538741504456094
1729873552746270200,1.673270263671875,-0.32111412286758423,-0.25692838430404663,-0.1548503041267395,0.6715494394302368,0.6959897875785828,0.25420379638671875,-0.002283632755279541,-0.16808152198791504,-0.13741281628608704,0.5030751637835926,-0.7811596022092152,0.12996758179901405,0.34614087631297213
1729873552756300300,1.68330029296875,-0.5372762084007263,-0.33016765117645264,-0.12278212606906891,0.671376645565033,0.6956782937049866,0.25551092624664307,-0.05243420600891113,-0.10598701238632202,0.029615074396133423,0.5016564515942916,-0.7819181985782413,0.12790381720337546,0.3472544214654751
1729873552766331100,1.6933310546875,0.0327901616692543,-0.10312489420175552,-0.17318643629550934,0.6710100769996643,0.6958207488059998,0.2560842037200928,-0.07420825958251953,0.035853445529937744,0.02841612696647644,0.5008321568231271,-0.7823750561866049,0.1262195401354503,0.3480303065490521
1729873552776361200,1.703361328125,0.9904888868331909,0.051310375332832336,-0.21352480351924896,0.6696816086769104,0.6984944343566895,0.25225526094436646,-0.10838687419891357,0.0443950891494751,-0.19486674666404724,0.5032724910463997,-0.7811304525109687,0.1263441590293578,0.3472598752838754
1729873552786392300,1.713392333984375,1.1542489528656006,0.13704845309257507,-0.11691278219223022,0.6682108044624329,0.7024495005607605,0.24507004022598267,-0.17678618431091309,-0.043254554271698,-0.20771636068820953,0.5078827743945372,-0.7785802970267522,0.12785829781223082,0.34571692452420416
1729873552796423200,1.723423095703125,0.8562294244766235,0.14867250621318817,-0.0017987117171287537,0.6675107479095459,0.7052754163742065,0.23878057301044464,-0.18722504377365112,-0.021254420280456543,-0.05326405167579651,0.5118763897002673,-0.7762360976153728,0.12979910071274306,0.3443723930392162
1729873552806453200,1.733453369140625,0.4790608286857605,0.15887826681137085,0.08426479995250702,0.6674202680587769,0.7065609097480774,0.23520633578300476,-0.15194779634475708,0.00019568204879760742,0.028511494398117065,0.5142410548693778,-0.7748015121675024,0.1314754132168542,0.34344289439619685
1729873552816484000,1.743484130859375,0.2540065050125122,0.12937109172344208,0.14157283306121826,0.667950451374054,0.7066239714622498,0.23350559175014496,-0.13584589958190918,-0.15269947052001953,0.07174669206142426,0.5153914159979617,-0.7739985973853509,0.13296227995671583,0.3429561843034473
1729873552826514200,1.75351416015625,-0.2511911392211914,0.1310185194015503,0.12075064331293106,0.6685876846313477,0.7057644724845886,0.23428049683570862,-0.0819329023361206,-0.35259974002838135,0.02008366584777832,0.5151334031009351,-0.7740961052694674,0.13384866527799874,0.3427790492756967
1729873552836545300,1.763545166015625,-0.680414617061615,0.19622011482715607,0.15081746876239777,0.6691522598266602,0.7037135362625122,0.23879419267177582,-0.05794614553451538,-0.3989497423171997,0.0394652783870697,0.5128814533909962,-0.7755453255322138,0.133890058119369,0.3428637751894066
1729873552846575400,1.773575439453125,-0.5516292452812195,0.3031716048717499,0.21837706863880157,0.6698600649833679,0.7008911967277527,0.2450295239686966,-0.03250032663345337,-0.2825866937637329,0.062175869941711426,0.509879805134465,-0.7775062597072001,0.1341595223912994,0.3427944065560175
1729873552856606200,1.783606201171875,-0.32070085406303406,0.3287648856639862,0.2545265555381775,0.6707696318626404,0.6981889009475708,0.2502014935016632,0.01476210355758667,-0.16094213724136353,-0.01639091968536377,0.5075766845273504,-0.7789861707635619,0.13520833629981283,0.3424402417822801
1729873552866637300,1.79363720703125,0.010690653696656227,0.32309022545814514,0.26891693472862244,0.6717931032180786,0.69599848985672,0.2535366415977478,0.04424107074737549,-0.02578657865524292,-0.02851507067680359,0.5062626665022626,-0.7797804415217219,0.1367873719594925,0.3419503553734132
1729873552876667100,1.803667236328125,0.36361929774284363,0.40289080142974854,0.27121925354003906,0.672779381275177,0.6946497559547424,0.25461772084236145,0.08304965496063232,0.10861873626708984,-0.09578883647918701,0.5062857240134175,-0.7797242463316512,0.13906461015108626,0.3411247665410229
1729873552886698200,1.8136982421875,0.5748036503791809,0.5225095748901367,0.2906193137168884,0.6735724806785583,0.6939674615859985,0.254381000995636,0.1274377703666687,0.16574329137802124,-0.19891512393951416,0.507368679783688,-0.779084688064066,0.1421884537198623,0.33968613747929643
1729873552896728300,1.823728271484375,0.4700290858745575,0.4767996370792389,0.25070837140083313,0.6741740107536316,0.6934981346130371,0.25406700372695923,0.13647979497909546,0.1254868507385254,-0.1236194372177124,0.5086544040248847,-0.7783739944936585,0.145490303086386,0.3379901118734057
1729873552906759200,1.83375927734375,0.18255947530269623,0.25342726707458496,0.19340726733207703,0.6747947335243225,0.692818284034729,0.2542739510536194,0.11948645114898682,0.04595130681991577,0.07681143283843994,0.5092803437596122,-0.7779960757509675,0.14784815141211308,0.33689269641038666
1729873552916789000,1.8437890625,-0.08235500007867813,0.1444549560546875,0.1262948215007782,0.6754438281059265,0.6918509006500244,0.2551826238632202,0.10583674907684326,-0.03415137529373169,0.198812335729599,0.5090588872965893,-0.7780635750390879,0.14902478052058124,0.33655286360154973
1729873552926820400,1.8538203125,-0.3159043490886688,0.15822777152061462,0.11517424881458282,0.6758500933647156,0.6905477046966553,0.2576245367527008,0.08414435386657715,-0.10908114910125732,0.15535467863082886,0.5079545749233055,-0.7787539246379085,0.14951454686519103,0.33640722658076877
1729873552936851200,1.863851318359375,-0.4472472071647644,0.12378191202878952,0.1868356615304947,0.6765075922012329,0.6885098218917847,0.26132798194885254,0.003058016300201416,-0.11545062065124512,0.17620280385017395,0.506063795314258,-0.7798830368426136,0.14982138332987294,0.33650509502254
1729873552946881000,1.873881103515625,-0.2942667007446289,0.07916757464408875,0.2370663434267044,0.6777510643005371,0.6860002279281616,0.26468420028686523,-0.05754214525222778,-0.056056320667266846,0.21618154644966125,0.5040797689730587,-0.7808798274365504,0.1502291329620189,0.33698920858083
1729873552956912400,1.883912353515625,0.13617227971553802,0.2190181463956833,0.15285159647464752,0.6787689328193665,0.6844003796577454,0.26621317863464355,-0.08486616611480713,0.005953073501586914,0.04491376876831055,0.5033063807567749,-0.7811740453028141,0.15124054319422217,0.33701084966017547
1729873552966942000,1.89394189453125,0.49666628241539,0.4450574219226837,0.012793811969459057,0.6784705519676208,0.6847057342529297,0.2661881148815155,-0.1287115216255188,0.04960823059082031,-0.1991255283355713,0.5041995622668594,-0.7808336565964945,0.1529472368284666,0.3356916704760936
1729873552976973000,1.90397314453125,0.6309271454811096,0.5765374302864075,-0.09102499485015869,0.6767571568489075,0.6865465641021729,0.26580867171287537,-0.16958534717559814,0.0914229154586792,-0.24755892157554626,0.506125271194606,-0.780291335649541,0.15507988893022098,0.33306627885676093
1729873552987003100,1.914003173828125,0.6783742904663086,0.5861572623252869,-0.09969598054885864,0.6745318174362183,0.6889477372169495,0.26525068283081055,-0.15097224712371826,0.11375606060028076,-0.17114955186843872,0.5083876007749062,-0.7796741381694356,0.15726915179022136,0.33002533406518186
1729873552997034000,1.924033935546875,0.5996216535568237,0.4758763313293457,-0.025767426937818527,0.6726483106613159,0.6911299228668213,0.26435574889183044,-0.07479363679885864,0.05533003807067871,-0.09284678101539612,0.5106251938404072,-0.778941294773385,0.15946264872787036,0.3272371428859117
1729873553007065000,1.934065185546875,0.31978127360343933,0.38101744651794434,0.06704986095428467,0.6717014312744141,0.692188560962677,0.2639937698841095,-0.0020845532417297363,-0.04986971616744995,-0.02397271990776062,0.5120530307753512,-0.7784252546788645,0.16140323017102573,0.32527684705172266
1729873553017095200,1.94409521484375,0.05756588280200958,0.30872035026550293,0.0885000228881836,0.6713773012161255,0.6921045184135437,0.26503613591194153,0.05387306213378906,-0.1203882098197937,0.05176696181297302,0.512358242831408,-0.7784415697011717,0.16293187430292863,0.3239923972889021
1729873553027126000,1.9541259765625,-0.18234126269817352,0.22663211822509766,0.049158476293087006,0.6711501479148865,0.6914634108543396,0.2672746777534485,0.08049780130386353,-0.14901351928710938,0.050154030323028564,0.5117701869680074,-0.7789844426197127,0.16376987158476003,0.3231932875958527
1729873553037156000,1.964156005859375,-0.22428764402866364,0.22392767667770386,0.046576809138059616,0.6708636283874512,0.690552830696106,0.27033135294914246,0.0817609429359436,-0.12266647815704346,0.03292199969291687,0.5106370184771645,-0.7798832050040247,0.16415803295049072,0.3226209457244715
1729873553047187200,1.974187255859375,-0.03066437691450119,0.20269989967346191,0.06686929613351822,0.670660674571991,0.6898127794265747,0.27271392941474915,0.08553451299667358,-0.06780344247817993,0.003775477409362793,0.5098475635592581,-0.7805279992650241,0.16472100926179875,0.32202271070829236
1729873553057217000,1.984217041015625,0.13164010643959045,0.16100117564201355,0.0783965215086937,0.6706920266151428,0.6894664764404297,0.27351102232933044,0.08319902420043945,-0.025403976440429688,0.007296651601791382,0.5098031075333951,-0.7806063550021833,0.16555730872134744,0.3214736709152479
1729873553067248000,1.994248046875,0.15846826136112213,0.12606343626976013,0.08371112495660782,0.6708587408065796,0.6893345713615417,0.2734352946281433,0.08202528953552246,0.0006831884384155273,0.0037865638732910156,0.5101491920805482,-0.7803815703807045,0.16649999136359944,0.320983413931409
1729873553077279000,2.004279052734375,0.13579703867435455,0.06498704105615616,0.10374821722507477,0.6712526679039001,0.6891015768051147,0.27305522561073303,0.0866362452507019,0.00825566053390503,-0.004286766052246094,0.5104906933648966,-0.7800796740973257,0.1673419267650633,0.32073627667203053
1729873553087309000,2.01430908203125,0.14148740470409393,0.014072993770241737,0.12203162163496017,0.6719362139701843,0.6887112855911255,0.2723584771156311,0.0790557861328125,-0.023565292358398438,0.03319898247718811,0.510815642695567,-0.7796914121224731,0.1681087011812001,0.32076223470989806
1729873553097340200,2.024340087890625,0.12069398909807205,0.06473643332719803,0.12221989780664444,0.6726759672164917,0.688228964805603,0.27175021171569824,0.06586480140686035,-0.0817379355430603,0.03655382990837097,0.5110868604215322,-0.7793229605614389,0.16891071078944753,0.3208040049655424
1729873553107370200,2.034370361328125,0.020279165357351303,0.07188744843006134,0.14097362756729126,0.6734275817871094,0.6875379085540771,0.271637886762619,0.0328560471534729,-0.10132575035095215,0.06552049517631531,0.5111243583053923,-0.779110004118176,0.1697249057111713,0.32083178258847556
1729873553117401000,2.044401123046875,-0.19197629392147064,0.03207015618681908,0.1152123287320137,0.6741675138473511,0.6864482760429382,0.27255645394325256,-0.0364568829536438,-0.06092953681945801,0.20219048857688904,0.5105624410104128,-0.7792901216319665,0.17025018852259247,0.32101062373402106
1729873553127432200,2.05443212890625,-0.378123015165329,0.05465828999876976,0.04568891227245331,0.6746604442596436,0.6850618124008179,0.2748156785964966,-0.09189671277999878,0.00011879205703735352,0.23621663451194763,0.5092378780647885,-0.7800290384694516,0.17018385066179276,0.3213549052328631
1729873553137462000,2.0644619140625,-0.17900697886943817,0.2323790192604065,-0.019795289263129234,0.6743739247322083,0.6841267347335815,0.2778322994709015,-0.10050594806671143,0.029282689094543457,0.0638885498046875,0.5079087095845713,-0.7810139900073191,0.17009788322349711,0.3211117321046316
1729873553147493000,2.0744931640625,0.2062368541955948,0.30844980478286743,-0.06062714010477066,0.6732988357543945,0.6844740509986877,0.279579222202301,-0.0829971432685852,0.011433660984039307,-0.11414322257041931,0.5078329313185712,-0.7814401119129439,0.17070723439042068,0.3198692377777228
1729873553157523200,2.084523193359375,0.2276497334241867,0.2354203462600708,-0.04732145741581917,0.6721509099006653,0.685504674911499,0.2798151671886444,-0.06385922431945801,-0.0016210675239562988,-0.09405449032783508,0.5086183755304232,-0.7813209533047437,0.17159589641811016,0.31843333247638167
1729873553167554000,2.094553955078125,-0.021983269602060318,0.049325574189424515,-0.054875247180461884,0.671434760093689,0.6861308217048645,0.2800002098083496,-0.02041846513748169,0.051952064037323,0.0077807605266571045,0.508999802214421,-0.7813060980655783,0.17193281487279535,0.31767782281960455
1729873553177584000,2.104584228515625,-0.0330783985555172,-0.021197538822889328,-0.07150109857320786,0.6711845397949219,0.686165988445282,0.280513733625412,0.014728665351867676,0.10094338655471802,0.09447118639945984,0.5087895384259173,-0.7815147881164051,0.17173088943970852,0.31761059377935813
1729873553187615200,2.114615234375,0.12691180408000946,-0.03300093486905098,-0.07973159104585648,0.6708881855010986,0.686598002910614,0.28016483783721924,0.007731258869171143,0.07072615623474121,0.09875684976577759,0.5090057592256041,-0.7814499667561194,0.17151783352933508,0.31753858796303985
1729873553197646000,2.12464599609375,0.20537571609020233,0.04760022088885307,-0.07837418466806412,0.6702768802642822,0.6874404549598694,0.27956271171569824,-0.0199776291847229,0.032515108585357666,0.015588313341140747,0.5095932158315285,-0.7812471014989486,0.1715643588668007,0.3170704916344718
1729873553207676200,2.13467626953125,0.2047882229089737,0.1285611093044281,-0.1608397513628006,0.6689974665641785,0.68878573179245,0.2793157994747162,-0.03021860122680664,0.0704154372215271,-0.09886512160301208,0.5103384293569831,-0.7811466534713075,0.17166187216634085,0.3160649675796483
1729873553217707300,2.144707275390625,0.23232798278331757,0.125052347779274,-0.22890828549861908,0.6672570109367371,0.6907382011413574,0.2786557376384735,-0.03865581750869751,0.1220516562461853,-0.13191178441047668,0.5114111766784459,-0.7809548534502508,0.171573282815375,0.3148504661124007
1729873553227737000,2.154737060546875,0.18952858448028564,0.12659858167171478,-0.21716748178005219,0.6653285622596741,0.692868173122406,0.2779783010482788,-0.05390876531600952,0.10538017749786377,-0.07714188098907471,0.512508551203433,-0.780791994775603,0.17132718790688625,0.3136016346505313
1729873553237768200,2.164768310546875,0.23493467271327972,0.1426350176334381,-0.1581510305404663,0.6636428833007812,0.6946855783462524,0.2774710953235626,-0.035209596157073975,0.03611880540847778,-0.06885281205177307,0.5134882296255123,-0.7806406721868525,0.17127665247488194,0.31240097187532545
1729873553247798300,2.17479833984375,0.13843849301338196,0.03015321120619774,-0.10705456137657166,0.662494957447052,0.6961240172386169,0.2766086161136627,-0.018360257148742676,-0.07101714611053467,-0.03394782543182373,0.514434458726754,-0.7803509986699549,0.17133774955359662,0.31153343056351823
1729873553257829000,2.1848291015625,-0.12833134829998016,-0.013806946575641632,-0.0514240562915802,0.6619420051574707,0.6966421008110046,0.2766284644603729,-0.0194094181060791,-0.1647663712501526,0.06584003567695618,0.5145526351087409,-0.7804232359295606,0.1710374573676889,0.31132237948645014
1729873553267860200,2.194860107421875,-0.20096294581890106,-0.08030182123184204,-0.05640044063329697,0.6617017984390259,0.6964885592460632,0.27758803963661194,-0.012104451656341553,-0.17364603281021118,0.16336074471473694,0.5139756463517026,-0.7808578757936095,0.1704552624588446,0.3115048893059299
1729873553277890300,2.204890380859375,-0.13877180218696594,-0.14399759471416473,-0.04179885983467102,0.6616864800453186,0.6963372826576233,0.27800285816192627,-0.026310443878173828,-0.1431604027748108,0.24796780943870544,0.5134856290030012,-0.7811549254793697,0.16970093372665956,0.31197940359067167
1729873553287921200,2.214921142578125,-0.06632743030786514,-0.09344148635864258,-0.028567474335432053,0.6618167161941528,0.6962499618530273,0.2779116630554199,-0.03584009408950806,-0.08515071868896484,0.1937987506389618,0.5132216709999439,-0.7812606011305037,0.16907897830433158,0.3124864704764731
1729873553297951200,2.224951171875,0.20106060802936554,0.08191521465778351,-0.04858645796775818,0.6616001725196838,0.6966353058815002,0.2774607241153717,-0.009363234043121338,-0.0052138566970825195,-0.02341705560684204,0.5135050175392627,-0.7811304311458571,0.16901366146374802,0.31238152620194637
1729873553307982000,2.234982177734375,0.4168376326560974,0.19069096446037292,-0.06468845903873444,0.6607965230941772,0.6979148387908936,0.2761584520339966,0.01280289888381958,0.03929835557937622,-0.19592750072479248,0.51474124476731,-0.7805703490006687,0.1696736561076498,0.3113879809545512
1729873553318012200,2.24501220703125,0.45019805431365967,0.19560353457927704,-0.04667510837316513,0.6598628163337708,0.6994888186454773,0.2744028866291046,0.0395696759223938,0.03883826732635498,-0.2518501281738281,0.5163695041800259,-0.7797951063231711,0.17064885229980353,0.3100988358776965
1729873553328043300,2.255043212890625,0.4618688225746155,0.12250668555498123,0.01137567963451147,0.6592972874641418,0.7008518576622009,0.27227622270584106,0.10274207592010498,-0.001892387866973877,-0.22978028655052185,0.5180404557491949,-0.7788784111194677,0.17171645071995384,0.3090245676955421
1729873553338074000,2.26507421875,0.49123841524124146,0.03038698621094227,0.06145402789115906,0.6593751311302185,0.701867401599884,0.2694573998451233,0.15213322639465332,-0.08614462614059448,-0.16067728400230408,0.5197602648846347,-0.7777296398883631,0.17281581707060947,0.3084166565900184
1729873553348104200,2.275104248046875,0.3943187892436981,-0.09040920436382294,0.06991302222013474,0.6599387526512146,0.7026481032371521,0.26602014899253845,0.15289700031280518,-0.1466636061668396,-0.011243969202041626,0.5214698933604652,-0.7764243207961475,0.17371055059377058,0.308316653704229
1729873553358135300,2.28513525390625,0.2223554402589798,-0.18691173195838928,0.08979965001344681,0.66086745262146,0.7029314041137695,0.2629479765892029,0.10207200050354004,-0.1180315613746643,0.15186232328414917,0.5226563609813638,-0.7753404723572955,0.1741296530598801,0.30879822066925966
1729873553368165400,2.295165283203125,-0.020659612491726875,-0.20517435669898987,0.05038752779364586,0.6619468927383423,0.7026964426040649,0.26085326075553894,0.051859378814697266,-0.03060781955718994,0.19231769442558289,0.5231196652146642,-0.7746833093140355,0.17404713435880168,0.30970843793529995
1729873553378196200,2.3051962890625,-0.23788712918758392,-0.13490615785121918,0.019929751753807068,0.6626101136207581,0.7021207213401794,0.26071950793266296,0.002184927463531494,0.028226017951965332,0.13471221923828125,0.5226761378388135,-0.7747592797764994,0.173516029954592,0.31056405344171945
1729873553388226300,2.315226318359375,-0.1431449055671692,-0.09271262586116791,0.048681505024433136,0.6631899476051331,0.7012912631034851,0.2614767849445343,-0.055539071559906006,0.05662804841995239,0.10789287090301514,0.5218777805414357,-0.7751098491287122,0.17304080146178863,0.31129630467271385
1729873553398257200,2.325257080078125,-0.05364339426159859,-0.07170827686786652,-0.01191606093198061,0.6635963320732117,0.7009151577949524,0.26145458221435547,-0.048789024353027344,0.03712207078933716,-0.0011241137981414795,0.5216136242961028,-0.7751548312276598,0.1728070667869887,0.31175662511284835
1729873553408288300,2.335288330078125,-0.1036413162946701,0.01606817916035652,-0.07614830881357193,0.6633337736129761,0.7010058164596558,0.2618768811225891,-0.027759313583374023,0.06353586912155151,-0.13503038883209229,0.5213793289001547,-0.7753769253414009,0.1724211893952292,0.3118097099193779
1729873553418318300,2.345318359375,0.028994694352149963,-0.06561485677957535,-0.08819644898176193,0.6628022193908691,0.7014000415802002,0.26216670870780945,-0.025946080684661865,0.1723945140838623,-0.11559060215950012,0.5213004879369569,-0.77557019725202,0.17197158568002163,0.3117090528326215
1729873553428349200,2.35534912109375,0.32357969880104065,-0.16639606654644012,-0.12578590214252472,0.6624006628990173,0.7025599479675293,0.26006823778152466,0.002348661422729492,0.19895994663238525,-0.10113248229026794,0.5222812604637953,-0.7749867294884113,0.17155085127146485,0.31175056485367253
1729873553438379300,2.365379150390625,0.4806664288043976,-0.16018536686897278,-0.17537501454353333,0.6617717146873474,0.704619824886322,0.25606584548950195,0.03056555986404419,0.18045109510421753,-0.17275258898735046,0.5242453820907025,-0.773782669924985,0.171152868089257,0.31166341348259174
1729873553448410400,2.375410400390625,0.52116459608078,-0.14515021443367004,-0.22264160215854645,0.6607725620269775,0.7072045803070068,0.2514783442020416,0.015283405780792236,0.2191717028617859,-0.17211714386940002,0.5266363272816786,-0.7723836370813179,0.1707708515983569,0.3113118124123487
1729873553458440200,2.385440185546875,0.49222466349601746,-0.09483979642391205,-0.24146881699562073,0.6593962907791138,0.7100580334663391,0.24701079726219177,0.009488046169281006,0.2180120348930359,-0.15243662893772125,0.5291020975749969,-0.7710327446562038,0.1703346852991318,0.31071792496911144
1729873553468471300,2.39547119140625,0.43460050225257874,-0.13095439970493317,-0.1691237837076187,0.6581902503967285,0.7125576734542847,0.2429976612329483,0.02448815107345581,0.12136578559875488,-0.17100641131401062,0.531310533854752,-0.769806454984153,0.1699907342454665,0.3101783079684947
1729873553478502400,2.40550244140625,0.31427738070487976,-0.12284433096647263,-0.15752944350242615,0.657386064529419,0.7144954204559326,0.2394581139087677,0.0879296064376831,-0.018786132335662842,-0.2076890468597412,0.5330996297384278,-0.7687428277839138,0.16959810856517463,0.30996107501460946
1729873553488532000,2.415531982421875,0.27674171328544617,-0.21796952188014984,-0.15386813879013062,0.656635046005249,0.7162059545516968,0.23638835549354553,0.15971016883850098,-0.09952205419540405,-0.23649506270885468,0.5345737384732864,-0.7678703625589347,0.16902451546852035,0.3098979710399778
1729873553498563300,2.425563232421875,0.40902936458587646,-0.44867968559265137,-0.12258904427289963,0.6564207673072815,0.7179158329963684,0.23175202310085297,0.18842798471450806,-0.10490924119949341,-0.17698800563812256,0.5363655075412773,-0.7665638410977007,0.16809488291638278,0.31054176074543405
1729873553508593200,2.43559326171875,0.5742412805557251,-0.5646145343780518,-0.07876220345497131,0.6568856835365295,0.7197149991989136,0.22474883496761322,0.21735161542892456,-0.0969427227973938,-0.14360234141349792,0.5388815339287306,-0.7644899331888411,0.16712139845843962,0.31182123175846266
1729873553518624000,2.4456240234375,0.6087520122528076,-0.5433673858642578,-0.04840802773833275,0.6576713919639587,0.7214637398719788,0.21669922769069672,0.23045122623443604,-0.08936840295791626,-0.1907590925693512,0.5417534342258471,-0.7620322295716584,0.16630242285389363,0.3132948718782818
1729873553528654000,2.455654052734375,0.5583384037017822,-0.5407934784889221,0.040491219609975815,0.6587693095207214,0.7227519750595093,0.20893311500549316,0.21807712316513062,-0.1459086537361145,-0.20383644104003906,0.5444429321972947,-0.7596004306806261,0.16575206052808766,0.31482620311884885
1729873553538685200,2.465685302734375,0.3211217522621155,-0.7463839054107666,0.09388839453458786,0.6606006622314453,0.7232027649879456,0.20145758986473083,0.2135602831840515,-0.3005037307739258,-0.17165693640708923,0.5465823146102519,-0.7572939818553125,0.16502915625994574,0.31704769122018955
1729873553548716000,2.475716064453125,-0.09103278070688248,-0.9235323667526245,0.09201246500015259,0.6629568934440613,0.7228368520736694,0.19492438435554504,0.19852399826049805,-0.43009692430496216,-0.08785328269004822,0.5475929536811502,-0.7555266516640998,0.1632227731860638,0.3204371371027399
1729873553558746000,2.48574609375,-0.261638879776001,-0.9225395321846008,0.18835285305976868,0.6657432913780212,0.7215263247489929,0.1902264654636383,0.14350676536560059,-0.40244966745376587,-0.03035995364189148,0.5473564383065399,-0.7544736547255738,0.160881133049693,0.32448094640506736
1729873553568777000,2.49577685546875,-0.10857528448104858,-0.9064532518386841,0.24291622638702393,0.6690770983695984,0.7196609973907471,0.18553833663463593,0.10404014587402344,-0.29896080493927,-0.0815495103597641,0.5469818227428789,-0.7533380967122195,0.15890524875259157,0.32869739277633586
1729873553578807000,2.50580712890625,0.03306853026151657,-0.849373996257782,0.2539859414100647,0.6725041270256042,0.7179051637649536,0.17986364662647247,0.09931612014770508,-0.18634986877441406,-0.17987869679927826,0.5471135877010029,-0.7517820149178414,0.15733920565539206,0.3327688552458227
1729873553588838100,2.515838134765625,0.2814519703388214,-0.8786908388137817,0.30006712675094604,0.6759928464889526,0.716306209564209,0.17302991449832916,0.08700770139694214,-0.035642147064208984,-0.25223803520202637,0.54790630323742,-0.7497150583599596,0.15634028971170774,0.3365766553621253
1729873553598868200,2.5258681640625,0.4650752544403076,-1.0593706369400024,0.300960898399353,0.679847776889801,0.7148653864860535,0.16362981498241425,0.09583282470703125,0.005166351795196533,-0.2325536161661148,0.5495965153114906,-0.7467551762899886,0.1554722196501116,0.34077689071112865
1729873553608899000,2.535899169921875,0.5758811235427856,-1.0991870164871216,0.25504159927368164,0.6835638284683228,0.7137713432312012,0.15254904329776764,0.1096491813659668,-0.05709409713745117,-0.14548397064208984,0.5518711150625294,-0.7432603299850596,0.1543975503224871,0.3452012134482799
1729873553618930200,2.54593017578125,0.8384594917297363,-1.1945738792419434,0.2097252607345581,0.686926007270813,0.7131781578063965,0.13967695832252502,0.10682100057601929,-0.048703670501708984,-0.13299347460269928,0.5549355375777056,-0.7391471684161712,0.15329691368687504,0.3495827499411287
1729873553628960300,2.555960205078125,1.3786993026733398,-1.2253354787826538,0.20782776176929474,0.6900209784507751,0.7131859660148621,0.12343835830688477,0.09928572177886963,0.03255683183670044,-0.16608643531799316,0.5595529514858281,-0.7337777096405504,0.15260881999000944,0.35380983843732045
1729873553638991000,2.5659912109375,1.5660513639450073,-1.1376711130142212,0.2065100222826004,0.6928869485855103,0.7134721875190735,0.10423688590526581,0.10552924871444702,0.1953412890434265,-0.3329201936721802,0.565672358153592,-0.7271853547426628,0.15270855435383593,0.3576261204462964
1729873553649021200,2.576021240234375,1.1633143424987793,-1.0344717502593994,0.26082998514175415,0.695534884929657,0.7132124304771423,0.08694563806056976,0.08478444814682007,0.35467392206192017,-0.36720359325408936,0.5710788940272712,-0.7211628707618826,0.1529605582512526,0.3611041292556602
1729873553659052000,2.586052001953125,0.6522009968757629,-1.210180401802063,0.3825058341026306,0.6987782716751099,0.7116385102272034,0.07266057282686234,0.07324016094207764,0.28253257274627686,-0.16578485071659088,0.574628423042444,-0.7162620121942993,0.15264015350909976,0.3653380469401355
1729873553669082000,2.59608203125,-0.08476709574460983,-1.4828824996948242,0.28265565633773804,0.7021316289901733,0.7094284892082214,0.06101274490356445,0.1526811122894287,-0.08285683393478394,-0.06238579750061035,0.5760682306976223,-0.7126488030417438,0.15045948130825898,0.3709974592455664
1729873553679113200,2.60611328125,-0.3469153344631195,-1.5425152778625488,0.16710349917411804,0.7045666575431824,0.7077115178108215,0.05225555598735809,0.20827531814575195,-0.29709750413894653,0.005316019058227539,0.5758386105112169,-0.7104153425945876,0.14641659121228262,0.37720327240257273
1729873553689144000,2.61614404296875,0.06883418560028076,-1.8298556804656982,0.10743243992328644,0.7063202261924744,0.7066594362258911,0.04176795482635498,0.19637459516525269,-0.19577986001968384,-0.03075098991394043,0.5761017602891406,-0.7076783246522211,0.14168756469434463,0.38369646624804
1729873553699174100,2.626174072265625,1.4263739585876465,-1.786893367767334,0.1515708714723587,0.7078410387039185,0.7059735655784607,0.02372741885483265,0.17004305124282837,-0.019785702228546143,-0.14968860149383545,0.5796133966596507,-0.7019825913262537,0.13814539904441497,0.39010882424248366
1729873553709205500,2.63620556640625,2.953979015350342,-1.4507683515548706,0.24643561244010925,0.7094236016273499,0.7047723531723022,-0.003808279288932681,0.14485514163970947,0.23942631483078003,-0.4042115807533264,0.5882459682312438,-0.692027788455186,0.1385402479944216,0.39480502275218354
1729873553719235600,2.646235595703125,2.3276917934417725,-1.375527262687683,0.4779042601585388,0.7116184234619141,0.7017882466316223,-0.03305845707654953,0.09773838520050049,0.5789430141448975,-0.533057689666748,0.598024831858388,-0.6808423224589277,0.14115418290302262,0.3986172732695741
1729873553729266700,2.6562666015625,1.2452900409698486,-1.6712236404418945,0.6476359963417053,0.7151731252670288,0.6966661810874939,-0.05642705038189888,0.08034402132034302,0.7228894829750061,-0.20668011903762817,0.6039007104297112,-0.6719950594427045,0.14215876855072718,0.40437317763271224
1729873553739296800,2.666296875,-0.019466582685709,-1.8424439430236816,0.20801524817943573,0.7170813083648682,0.6930735111236572,-0.07378263026475906,0.22673600912094116,-0.03555697202682495,0.07425582408905029,0.6064679994989536,-0.6660498596729172,0.13959323367043328,0.4112031730282396
1729873553749327600,2.67632763671875,-0.7008534073829651,-1.814552664756775,0.12935025990009308,0.7166107296943665,0.692447304725647,-0.08358240872621536,0.2502778172492981,-0.7930179238319397,0.04735821485519409,0.6058857522393342,-0.6635962032182635,0.13359967509506165,0.41796386500282445
1729873553759358700,2.686358642578125,-0.6338708400726318,-2.0023422241210938,0.19692450761795044,0.7160816788673401,0.6918275952339172,-0.0927477702498436,0.233411967754364,-0.6178986430168152,0.060490839183330536,0.6045425498837179,-0.6614584187312132,0.12688133807678514,0.4253263138322306
1729873553769388800,2.696388916015625,0.10615239292383194,-2.0869357585906982,0.1281081587076187,0.7152952551841736,0.6908469200134277,-0.10527918487787247,0.31380343437194824,-0.25917571783065796,-0.1628938913345337,0.6044038700084468,-0.657884909339695,0.1206144779739744,0.432823073476884
1729873553779419600,2.706419677734375,1.255066156387329,-2.0000452995300293,0.049038100987672806,0.7134315371513367,0.6895673274993896,-0.12455013394355774,0.25495243072509766,0.13811522722244263,-0.20018726587295532,0.6076263516507112,-0.6513495603272142,0.11605465636997794,0.43939215913393903
1729873553789449700,2.71644970703125,2.080700635910034,-2.0610575675964355,0.15961255133152008,0.7113708853721619,0.6864001154899597,-0.15101851522922516,0.19437575340270996,0.4839795231819153,-0.3617376685142517,0.6142259588826596,-0.641460694195256,0.1141004733061451,0.4452368950981331
1729873553799480600,2.72648046875,1.4471725225448608,-2.2896273136138916,0.22320830821990967,0.7091351747512817,0.6820880770683289,-0.17855937778949738,0.2102527618408203,0.7129772901535034,-0.4183642864227295,0.6206666064068194,-0.6310085785080661,0.11202001205322638,0.45172207442302376
1729873553809510700,2.7365107421875,0.8817996382713318,-2.2498440742492676,0.21790409088134766,0.7063087821006775,0.6781951785087585,-0.2029276192188263,0.23247313499450684,0.4656495451927185,-0.20910534262657166,0.6251253199309406,-0.6219438735735503,0.10826821724971389,0.4590015287615454
1729873553819541800,2.746541748046875,0.24080801010131836,-2.008659839630127,0.3602071702480316,0.7036282420158386,0.6751540899276733,-0.22152793407440186,0.2521977424621582,-0.21293485164642334,-0.2236013412475586,0.6272043177154212,-0.6152280985830394,0.10358774302808688,0.4662391650554167
1729873553829572600,2.756572509765625,0.042568158358335495,-1.9964886903762817,0.5561556220054626,0.7022679448127747,0.6714562773704529,-0.2365725040435791,0.23230254650115967,-0.4790428876876831,-0.17021146416664124,0.6275361275353197,-0.6098277269328247,0.09911553180323442,0.47379838949164327
1729873553839602700,2.766602783203125,0.016580501571297646,-2.118347644805908,0.5971390008926392,0.7012100219726562,0.6672478318214417,-0.2511674761772156,0.2669297456741333,-0.41949087381362915,-0.12502259016036987,0.6271926013496772,-0.6045517072064399,0.09451718941696222,0.4818852242228807
1729873553849633800,2.7766337890625,0.3525875210762024,-2.1795313358306885,0.4900898039340973,0.6993218064308167,0.6628695726394653,-0.2674943506717682,0.2618142366409302,-0.34139734506607056,-0.016227424144744873,0.6273297054923636,-0.5984878782105958,0.0898057815787396,0.4901069496413694
1729873553859663600,2.78666357421875,1.0346626043319702,-2.242449998855591,0.39039677381515503,0.6960617303848267,0.6579760909080505,-0.2873426377773285,0.3005661964416504,-0.16009700298309326,-0.055674850940704346,0.629252582972752,-0.5907269866351732,0.08585053394575695,0.4977074175952456
1729873553869694700,2.79669482421875,1.922313928604126,-2.6006522178649902,0.49397456645965576,0.6916539669036865,0.6504031419754028,-0.3139916956424713,0.2777065634727478,0.21000951528549194,0.0063745975494384766,0.63356023240604,-0.5797193522056655,0.08324438898964046,0.5055664260560713
1729873553879724800,2.806724853515625,2.2856624126434326,-2.6583592891693115,0.5526130795478821,0.6863033771514893,0.639502763748169,-0.34644514322280884,0.33243459463119507,0.6554191708564758,-0.08334904909133911,0.639526697312697,-0.5657567173677528,0.08183380272639174,0.5140314969658888
1729873553889755600,2.816755615234375,1.2375024557113647,-2.67236590385437,0.5380280613899231,0.6801937818527222,0.6291857957839966,-0.376114159822464,0.3819553852081299,0.7623699903488159,-0.3245845437049866,0.6442571535390252,-0.5528232603051841,0.07955725254278684,0.5224844636151453
1729873553899786800,2.826786865234375,0.4947195053100586,-2.7013320922851562,0.624498724937439,0.6734331846237183,0.621787965297699,-0.3998343050479889,0.288068950176239,0.3102951645851135,-0.21219557523727417,0.6460700318046209,-0.5426784983870026,0.07471878622121467,0.5315173425904101
1729873553909816800,2.83681689453125,-0.12913528084754944,-2.4262943267822266,0.7382135987281799,0.6671220660209656,0.6159420013427734,-0.41900333762168884,0.21514123678207397,-0.36687278747558594,-0.1370421051979065,0.645655431332181,-0.5345782103169617,0.06873473139018665,0.5409537608554208
1729873553919847700,2.84684765625,0.08886867761611938,-1.7683489322662354,0.9528843760490417,0.6636632680892944,0.6101093292236328,-0.4328024387359619,0.1417873501777649,-0.520936906337738,-0.25127947330474854,0.6438203629633846,-0.5286501559332965,0.06424785084008718,0.5494513700523795
1729873553929877500,2.85687744140625,0.38403427600860596,-1.8348443508148193,0.7528796195983887,0.6614730954170227,0.6022239327430725,-0.44696754217147827,0.12137925624847412,-0.12169408798217773,-0.17571300268173218,0.6427247275019045,-0.5221869263264395,0.06194381906549129,0.5571256109801134
1729873553939908900,2.866908935546875,0.400692880153656,-2.1599395275115967,0.2939203083515167,0.6557047963142395,0.5968186855316162,-0.4624488651752472,0.23398959636688232,0.1832716464996338,0.010132670402526855,0.6427978199644333,-0.5151741898035375,0.05806137287248238,0.5639464703304161
1729873553949938400,2.8769384765625,1.0945075750350952,-2.9042155742645264,0.07711368054151535,0.6448675990104675,0.5918548703193665,-0.48358431458473206,0.399810254573822,0.5492279529571533,0.08555889129638672,0.6448756526625768,-0.5054165316652638,0.052554475652100294,0.5709007880893477
1729873553959969500,2.886969482421875,1.5017489194869995,-3.562671184539795,-0.06284981220960617,0.6286184191703796,0.5850802063941956,-0.5123673677444458,0.6141033172607422,0.7597531676292419,-0.013801395893096924,0.6490359733546591,-0.4916414128854096,0.0458807286267692,0.5787367487977617
1729873553970000600,2.897000732421875,1.5048460960388184,-3.7677154541015625,-0.07628386467695236,0.6086307764053345,0.5774267911911011,-0.5441939830780029,0.6183438897132874,0.8564874529838562,-0.1319839358329773,0.6537432381088732,-0.47586741786870945,0.038120794299010455,0.5871260909436261
1729873553980030500,2.907030517578125,1.2808761596679688,-3.4385263919830322,0.10404569655656815,0.588144838809967,0.5695146322250366,-0.5742290019989014,0.3591209053993225,0.5800673365592957,-0.09576904773712158,0.6576650869024921,-0.460400383472033,0.030281572883395207,0.5954758031510754
1729873553990061600,2.9170615234375,0.8935092091560364,-2.634239673614502,0.4015311896800995,0.5716982483863831,0.5616836547851562,-0.5980573892593384,0.061282217502593994,0.07225799560546875,-0.18058323860168457,0.6597839226293719,-0.44765198171049014,0.024062446968832536,0.6030870594637547
1729873554000091600,2.927091552734375,0.8103113174438477,-1.8974841833114624,0.6693311929702759,0.5611751675605774,0.5535838603973389,-0.6153271198272705,-0.11535906791687012,-0.06481432914733887,-0.23396176099777222,0.6601794503725986,-0.4380881929680225,0.020376167945024358,0.6097759988717691
1729873554010122500,2.93712255859375,1.0742751359939575,-1.871742606163025,0.4189048409461975,0.5528415441513062,0.5443564653396606,-0.6309059858322144,-0.07258635759353638,0.09303361177444458,-0.15672212839126587,0.6606470932855871,-0.42919241118769624,0.018463217437292002,0.6156285480388761
1729873554020152600,2.947152587890625,1.145912528038025,-2.256838083267212,0.0808921754360199,0.5409389138221741,0.5361210107803345,-0.6480427980422974,0.17584282159805298,0.22156941890716553,-0.13136076927185059,0.6624392212258272,-0.4192103296246702,0.015533724952589716,0.6206414264404387
1729873554030183700,2.95718359375,1.5733617544174194,-2.883823871612549,-0.011452404782176018,0.5242351293563843,0.5268946886062622,-0.6689988970756531,0.4077718257904053,0.4043492078781128,0.02109551429748535,0.6653395558299204,-0.4066586025431251,0.011372489907072021,0.6259574994038993
1729873554040214500,2.967214599609375,1.491479754447937,-3.414351463317871,-0.10282040387392044,0.502257764339447,0.5165274739265442,-0.6934959292411804,0.6623541712760925,0.4729745388031006,0.0696098804473877,0.6687881303825357,-0.3914345022169712,0.005574071574729232,0.6320368315852551
1729873554050244600,2.97724462890625,1.2547166347503662,-3.520861864089966,0.02006184682250023,0.47719597816467285,0.5070742964744568,-0.7177463173866272,0.6436079740524292,0.3168240189552307,0.17537271976470947,0.6716476580692866,-0.37566365372895155,-0.0019160835373170015,0.6385630157614213
1729873554060275500,2.987275390625,0.8755268454551697,-3.0712876319885254,0.2428845465183258,0.45354971289634705,0.4984875023365021,-0.7387847304344177,0.407671719789505,0.10296818614006042,0.17309576272964478,0.6731205119223995,-0.36127461048813286,-0.009395950299798552,0.6452140536140274
1729873554070305500,2.997305419921875,0.41019803285598755,-2.361950635910034,0.4266541004180908,0.4349469542503357,0.4922318160533905,-0.7540086507797241,0.19667547941207886,-0.11393588781356812,-0.0893903374671936,0.6730018186098351,-0.350348388691829,-0.015864030346843937,0.6512089179308227
1729873554080336600,3.007336669921875,0.20507557690143585,-2.089707612991333,0.5137307047843933,0.420668363571167,0.4880155026912689,-0.7647738456726074,0.06849801540374756,-0.14411291480064392,-0.1781734824180603,0.671675900673331,-0.3422737956987993,-0.021487681817509905,0.6566875368756981
1729873554090366700,3.01736669921875,0.6173589825630188,-2.3374650478363037,0.1924796998500824,0.40568649768829346,0.4836864173412323,-0.7755423188209534,0.1946401298046112,0.0300007164478302,-0.06950455904006958,0.6707700836590798,-0.33391634008812016,-0.02699452728000106,0.6616938011962697
1729873554100397600,3.0273974609375,1.2335964441299438,-3.1195924282073975,-0.09835028648376465,0.3843243718147278,0.47595223784446716,-0.7910526394844055,0.38149911165237427,0.21434012055397034,0.12111556529998779,0.6718740510270999,-0.32154287910225443,-0.032922041739350615,0.6664170309577336
1729873554110428700,3.0374287109375,1.5891127586364746,-3.215531826019287,-0.03896259143948555,0.35802793502807617,0.46508732438087463,-0.809635579586029,0.440739244222641,0.34855711460113525,0.23582887649536133,0.6737502709886354,-0.30600603191613934,-0.039274755628516296,0.6714748348144952
1729873554120458500,3.04745849609375,1.7896682024002075,-2.9457144737243652,0.09171099960803986,0.3328980505466461,0.45079538226127625,-0.8282285332679749,0.5144684314727783,0.5004832744598389,0.07685524225234985,0.6756162443050447,-0.2897730098297591,-0.043787412439968545,0.6765036858724944
1729873554130489600,3.057489501953125,1.6015068292617798,-2.5783920288085938,0.256059467792511,0.3102971613407135,0.43592676520347595,-0.8447979092597961,0.36816972494125366,0.33555760979652405,0.08129394054412842,0.6767787035394977,-0.27454329886447076,-0.04719125658983977,0.6814466943423542
1729873554140519700,3.067519775390625,1.2615660429000854,-2.04240083694458,0.3181385397911072,0.2920078635215759,0.4227423369884491,-0.8579162955284119,0.23773160576820374,0.2032189965248108,-0.059640467166900635,0.677158615405416,-0.2618752726740833,-0.04963066590866698,0.6858676097176044
1729873554150550500,3.077550537109375,0.867173433303833,-2.2730932235717773,0.23093441128730774,0.2749354839324951,0.4127337336540222,-0.868367075920105,0.24937185645103455,0.12440618872642517,-0.08158409595489502,0.6769802354574649,-0.25106119825239903,-0.0527706583764859,0.6898415312700016
1729873554160580600,3.08758056640625,0.6749622821807861,-2.7850747108459473,-0.04095490276813507,0.25322696566581726,0.40588146448135376,-0.8781437277793884,0.3971790075302124,0.04229968786239624,0.03463786840438843,0.6768986788120155,-0.23978044295561088,-0.0585959425448912,0.6934551988003943
1729873554170611700,3.09761181640625,0.7060804963111877,-3.1834003925323486,-0.090235635638237,0.22620899975299835,0.40001943707466125,-0.888152003288269,0.4975917339324951,0.004903048276901245,0.19160354137420654,0.6770144999040973,-0.2269273600908572,-0.06654304072378801,0.6969415221351303
1729873554180642600,3.107642578125,1.0188449621200562,-2.948549747467041,-0.1106351837515831,0.1982450783252716,0.39275360107421875,-0.8980220556259155,0.46058374643325806,0.03342440724372864,0.2695125341415405,0.6771739865918077,-0.21327317860224193,-0.07418583179309711,0.7003189702146739
1729873554190672600,3.117672607421875,1.0817838907241821,-2.791388988494873,0.002592308446764946,0.17204362154006958,0.3830658793449402,-0.907558023929596,0.3355247974395752,0.08379203081130981,0.16772037744522095,0.677456858761733,-0.1994871819372128,-0.08016147053200955,0.7034424470413111
1729873554200703700,3.127703857421875,1.101547360420227,-2.4621050357818604,0.19966623187065125,0.14816033840179443,0.3728943467140198,-0.9159685373306274,0.13220472633838654,0.17008966207504272,0.29919302463531494,0.6770110836056262,-0.1864232417692677,-0.08521803556557864,0.7068524579333885
1729873554210733600,3.137733642578125,1.0559766292572021,-2.0663487911224365,0.17767757177352905,0.1284220963716507,0.3625819981098175,-0.9230612516403198,0.19506430625915527,0.4002659022808075,0.10485446453094482,0.6763170193679192,-0.1749306437011001,-0.08870534495088182,0.7100184366439305
1729873554220764700,3.1477646484375,0.8674448132514954,-2.496109962463379,0.11247033625841141,0.10814264416694641,0.35352155566215515,-0.9291542768478394,0.25533705949783325,0.35378435254096985,0.039719462394714355,0.6755847633412206,-0.1637628212441105,-0.09276091694337898,0.7128552337277925
1729873554230794800,3.157794677734375,0.8205707669258118,-2.998565435409546,0.017260201275348663,0.08242760598659515,0.3455914556980133,-0.9347578287124634,0.3634037673473358,0.2245684266090393,0.14325392246246338,0.6746770781815821,-0.15100284025986316,-0.09909195404466549,0.7156744405682527
1729873554240825600,3.16782568359375,0.825855016708374,-2.9196605682373047,-0.0720939114689827,0.0541805773973465,0.33791181445121765,-0.9396169781684875,0.4796940088272095,0.16065385937690735,0.13175565004348755,0.673830604655987,-0.1374528413090178,-0.1062930833563726,0.7181650063290862
1729873554250855700,3.177855712890625,1.095651626586914,-2.8381800651550293,-0.11306025832891464,0.026815278455615044,0.328914076089859,-0.9439790844917297,0.3839819133281708,0.09334239363670349,0.13468343019485474,0.6732349640943295,-0.12384384091211408,-0.11257515853256907,0.7202390642817651
1729873554260886800,3.18788671875,1.352815866470337,-2.642019510269165,0.0035017775371670723,0.00039248805842362344,0.3173060417175293,-0.948323130607605,0.19064760208129883,0.0454106330871582,0.2684067487716675,0.6725954084580822,-0.10968512377213543,-0.11750580352975876,0.722341418981608
1729873554270917600,3.197917724609375,1.5435106754302979,-2.0542705059051514,0.25277578830718994,-0.021746477112174034,0.30346542596817017,-0.9525942802429199,0.10257233679294586,0.12094253301620483,0.14807462692260742,0.6714617400592229,-0.09628319356740951,-0.12013496530657525,0.724869951670001
1729873554280947700,3.20794775390625,1.5750807523727417,-1.702661156654358,0.3666762709617615,-0.03850879520177841,0.2884276807308197,-0.9567270278930664,0.1260027438402176,0.254525750875473,-0.006072044372558594,0.6698830994325089,-0.08442056921069664,-0.12045606861591486,0.7277502058020247
1729873554290978600,3.217978515625,1.1980708837509155,-1.8849222660064697,0.29893794655799866,-0.05446876585483551,0.27499303221702576,-0.9599020481109619,0.2129923701286316,0.27540671825408936,-0.01521080732345581,0.6681216641774511,-0.07344336354949138,-0.12105797796389256,0.7304550470352815
1729873554301008600,3.228008544921875,0.6747562289237976,-2.4485065937042236,0.019490066915750504,-0.07478798180818558,0.2660894989967346,-0.9610427618026733,0.35664838552474976,0.24692624807357788,0.11207425594329834,0.6664745329685959,-0.0625029876698813,-0.1247878368988933,0.7323478043827111
1729873554311039700,3.238039794921875,0.33436480164527893,-2.798121690750122,-0.24195565283298492,-0.10070985555648804,0.261326402425766,-0.9599823355674744,0.4586200714111328,0.19065412878990173,0.22577518224716187,0.6653783563406667,-0.05105270040236145,-0.1319184018431593,0.732982239391238
1729873554321069800,3.24806982421875,0.6202772259712219,-2.8572707176208496,-0.29793262481689453,-0.12867172062397003,0.2566714286804199,-0.9578952789306641,0.3937474489212036,0.09125944972038269,0.23540687561035156,0.6645623105277663,-0.038948159122217885,-0.1397691042634463,0.7330106503237951
1729873554331100700,3.2581005859375,0.7107586860656738,-2.4940147399902344,-0.2441876381635666,-0.15542584657669067,0.24982427060604095,-0.9557356834411621,0.24792467057704926,0.017021402716636658,0.2887129783630371,0.6637695455041898,-0.02653720320623159,-0.14638287177930814,0.7329925135216095
1729873554341131800,3.2681318359375,1.0267084836959839,-1.865617275238037,0.05195559561252594,-0.17657527327537537,0.2413046956062317,-0.9542500972747803,0.11071836948394775,0.07323996722698212,0.20942282676696777,0.6626163097777108,-0.015540152020407932,-0.1504442080699874,0.7335289962394145
1729873554351161600,3.27816162109375,1.1839077472686768,-1.4908570051193237,0.3252640962600708,-0.1917773336172104,0.231035053730011,-0.9538575410842896,0.09149660170078278,0.19494453072547913,0.17083752155303955,0.6607035364338453,-0.0059710314221857914,-0.15177470786070307,0.7351188411053186
1729873554361192700,3.288192626953125,1.1683475971221924,-1.6746327877044678,0.36088842153549194,-0.20589537918567657,0.22034989297389984,-0.9534426927566528,0.22493837773799896,0.21267926692962646,0.25692474842071533,0.6582059811441077,0.0034572781216048224,-0.15253421474925982,0.7372152284501889
1729873554371222800,3.298222900390625,0.8640264272689819,-2.1154251098632812,0.33848005533218384,-0.22308942675590515,0.21123157441616058,-0.9516366720199585,0.38950181007385254,0.14619027078151703,0.4138559103012085,0.6554382122166412,0.013541793925793627,-0.15491381009156643,0.7390664345739412
1729873554381253600,3.308253662109375,0.6052458882331848,-2.5379791259765625,0.23044544458389282,-0.24479909241199493,0.20512235164642334,-0.9476276636123657,0.47598502039909363,-0.009443670511245728,0.5243793725967407,0.6524019765575274,0.024350609380112298,-0.15997876106812575,0.7403955558248064
1729873554391283500,3.318283447265625,0.4336589574813843,-2.39554762840271,0.15931108593940735,-0.26823195815086365,0.20058080554008484,-0.9422414302825928,0.45890581607818604,-0.15733742713928223,0.4722859859466553,0.6496442243775853,0.03524490896633064,-0.16624399957805064,0.7410015162939139
1729873554401314800,3.328314697265625,0.684425950050354,-1.9609334468841553,0.4021415710449219,-0.2880559265613556,0.19665418565273285,-0.9372037649154663,0.2483372986316681,-0.20721329748630524,0.3760770559310913,0.6466506952743629,0.04467666430119982,-0.1714704131910995,0.7419197570237347
1729873554411345700,3.338345703125,1.114581823348999,-1.3987390995025635,0.4966800808906555,-0.30308976769447327,0.18929468095302582,-0.9339722394943237,0.12198320031166077,-0.0995577722787857,0.40392768383026123,0.6432621181748767,0.05360171739990604,-0.17361088183155146,0.7437741908367808
1729873554421375500,3.34837548828125,1.2151247262954712,-0.91326904296875,0.6265315413475037,-0.3126750588417053,0.17989028990268707,-0.9326702356338501,0.04393726587295532,-0.10423724353313446,0.4051433801651001,0.6398511959510442,0.06117878909792621,-0.17297983455303767,0.7462746498579336
1729873554431406800,3.35840673828125,1.0844831466674805,-0.7180399298667908,0.6614455580711365,-0.3189084231853485,0.17119532823562622,-0.9321961402893066,0.01513645052909851,-0.04820951819419861,0.5022339820861816,0.6363227749695581,0.06726411499636945,-0.17139858707294198,0.7491272308048654
1729873554441436400,3.3684365234375,0.9237797260284424,-0.9804298281669617,0.4207211136817932,-0.32548463344573975,0.16360817849636078,-0.9312852025032043,0.21432435512542725,0.025997504591941833,0.39240580797195435,0.6332020284604277,0.07300469709352526,-0.1703751987640697,0.7514638969459614
1729873554451467500,3.378467529296875,0.8589432239532471,-1.6230121850967407,0.16799086332321167,-0.33710727095603943,0.15629298985004425,-0.9284025430679321,0.38396701216697693,0.014620661735534668,0.42425209283828735,0.6306650991885998,0.08045568818636395,-0.1712472571010524,0.7526374087675064
1729873554461497600,3.38849755859375,0.8311552405357361,-1.7207072973251343,0.020692747086286545,-0.35286828875541687,0.14871737360954285,-0.9237787127494812,0.42871972918510437,0.030451282858848572,0.6166955828666687,0.6285024706718173,0.08951599197123639,-0.1734863788427732,0.7529104542543522
1729873554471528400,3.398528564453125,0.878376305103302,-1.2345502376556396,0.176670640707016,-0.3662334680557251,0.14104674756526947,-0.919771134853363,0.3252331018447876,0.05229732394218445,0.6863421201705933,0.6265049931915062,0.09766623409192363,-0.17485923614239315,0.7532445162580083
1729873554481558500,3.40855859375,0.7957697510719299,-0.6645259857177734,0.47832661867141724,-0.37451863288879395,0.13446888327598572,-0.9174169898033142,0.08570027351379395,0.0188208669424057,0.6632360816001892,0.6240147836499195,0.10361575666415827,-0.17480067923758558,0.7545291473430686
1729873554491589600,3.418589599609375,0.6424928903579712,-0.2597460448741913,0.6669697761535645,-0.3778524398803711,0.1299656480550766,-0.916698694229126,-0.058991461992263794,-0.02339830994606018,0.581768274307251,0.6209942606114923,0.10708158134331858,-0.17373596137349964,0.7567798292327568
1729873554501620500,3.428620361328125,0.4751143157482147,-0.15078115463256836,0.5827789902687073,-0.3786914348602295,0.12720796465873718,-0.916739284992218,-0.11662411689758301,-0.04889991879463196,0.5660160779953003,0.6181123380455521,0.10896333212101986,-0.17250316779177616,0.7591487440563063
1729873554511650600,3.438650634765625,0.21233676373958588,-0.31051596999168396,0.37616297602653503,-0.38004419207572937,0.12587286531925201,-0.9163637161254883,-0.05049780011177063,-0.006884858012199402,0.5380983352661133,0.6158772331366507,0.11043336453314241,-0.1721122123175686,0.7608398265869535
1729873554521681700,3.448681640625,-0.007511519826948643,-0.7736061215400696,-0.02783670276403427,-0.3845321238040924,0.12568670511245728,-0.9145151376724243,0.1540938913822174,0.14222708344459534,0.4456278085708618,0.6146748093623828,0.11253564180530436,-0.17343058280675352,0.761204691189915
1729873554531711500,3.45871142578125,-0.09150255471467972,-1.4185750484466553,-0.3982051610946655,-0.39496520161628723,0.1253894418478012,-0.9100989103317261,0.32808592915534973,0.2432170957326889,0.4484900236129761,0.6145924432432815,0.1167682185716098,-0.1769625290076459,0.7598195158099533
1729873554541742600,3.46874267578125,0.07802542299032211,-1.4300495386123657,-0.462571918964386,-0.4090116024017334,0.12371419370174408,-0.9041041731834412,0.3126523494720459,0.27975866198539734,0.4793299436569214,0.6150017846620377,0.12275950286690435,-0.1813229913956265,0.7575123788801588
1729873554551772700,3.478772705078125,0.3711869716644287,-0.8222131133079529,-0.1487729698419571,-0.4196944534778595,0.1203247532248497,-0.8996546864509583,0.1581892967224121,0.3209288716316223,0.39838820695877075,0.6150316676980999,0.12807225909621905,-0.18376656826122661,0.756018214332857
1729873554561803500,3.488803466796875,0.6030057668685913,-0.20184358954429626,0.08211589604616165,-0.42435014247894287,0.11580511927604675,-0.8980624675750732,-0.06217637658119202,0.27826833724975586,0.31551235914230347,0.6142898188965675,0.1315610035889411,-0.18346792877917584,0.7560947910877226
1729873554571834600,3.498834716796875,0.6215421557426453,0.3213464021682739,0.12636911869049072,-0.42342349886894226,0.11067583411931992,-0.8991459608078003,-0.21270015835762024,0.1422690749168396,0.1722782850265503,0.6135597089058487,0.1330305941804759,-0.18091403885810212,0.7570453363775277
1729873554581864700,3.50886474609375,0.43279632925987244,0.2987076938152313,0.12597310543060303,-0.4202632009983063,0.10636122524738312,-0.9011471271514893,-0.2912999391555786,-0.00022114068269729614,0.18959927558898926,0.6129695853516177,0.133309154240015,-0.17791880394582762,0.7581833263690358
1729873554591895600,3.5188955078125,0.13759773969650269,0.04787575080990791,-0.05601587891578674,-0.4186023771762848,0.10388138145208359,-0.9022088050842285,-0.1517101228237152,-0.02963215857744217,0.391695499420166,0.6127585718020799,0.1334979552600957,-0.17627790558328033,0.7587037370568734
1729873554601925600,3.528925537109375,-0.058586686849594116,-0.3348504304885864,-0.2658649682998657,-0.41997331380844116,0.10308697074651718,-0.9016626477241516,0.03771016001701355,0.00454847514629364,0.4658411145210266,0.6132651405616605,0.13418158120849832,-0.17653324839662296,0.7581142481199521
1729873554611956500,3.53895654296875,-0.049004632979631424,-0.4434053897857666,-0.4002622067928314,-0.4241988956928253,0.10220719128847122,-0.8997827768325806,0.11310270428657532,0.0796622633934021,0.4755731225013733,0.6142255201303579,0.13592061037226735,-0.1778600949093639,0.7567155787537042
1729873554621986600,3.548986572265625,0.20720137655735016,-0.09001580625772476,-0.27223604917526245,-0.42705342173576355,0.10011575371026993,-0.8986669182777405,0.09853169322013855,0.1426667869091034,0.329224169254303,0.6152899720394782,0.13748097381784444,-0.17822884334348293,0.7554811976616431
1729873554632017700,3.559017578125,0.45649564266204834,0.28223392367362976,0.025972731411457062,-0.4262445569038391,0.09650614112615585,-0.8994454741477966,-0.01935786008834839,0.14662736654281616,0.20712369680404663,0.6155884096342303,0.1382602700966604,-0.17652579738752908,0.7554957588100668
1729873554642048500,3.569048583984375,0.5012180209159851,0.5070993304252625,0.14376568794250488,-0.4224688410758972,0.09242618829011917,-0.9016526341438293,-0.05101138353347778,0.08118826150894165,0.11634379625320435,0.6152510904272848,0.13816004850521704,-0.17345165810748844,0.7565002037501413
1729873554652078600,3.57907861328125,0.3812335431575775,0.5380489826202393,0.2081497311592102,-0.41750311851501465,0.08910922706127167,-0.9042956829071045,-0.02027153968811035,-0.028394557535648346,0.04638552665710449,0.6146965551888882,0.1373832937987857,-0.17022919986514123,0.757823276372936
1729873554662109700,3.589109619140625,0.20986035466194153,0.32051393389701843,0.1982550173997879,-0.4132293164730072,0.08716624975204468,-0.9064455628395081,0.021398872137069702,-0.17333269119262695,0.19804108142852783,0.6140828610610416,0.13644539966683086,-0.16780900356446476,0.7590290354024666
1729873554672139500,3.599139404296875,-0.22681283950805664,-0.004256159067153931,0.1418607234954834,-0.4117198586463928,0.0880482867360115,-0.9070469737052917,0.05174976587295532,-0.2978109121322632,0.44324082136154175,0.6135595024608781,0.13567581972615528,-0.1675367824508473,0.7596500876250211
1729873554682170600,3.609170654296875,-0.23872849345207214,-0.08449326455593109,0.023366563022136688,-0.41222962737083435,0.09071312099695206,-0.9065527319908142,0.06103333830833435,-0.21736112236976624,0.4887976050376892,0.6133668725180228,0.13506414862974744,-0.1687640263170113,0.7596431397565809
1729873554692200700,3.61920068359375,-0.22105896472930908,0.11432556062936783,0.012289675883948803,-0.4122084081172943,0.09276844561100006,-0.9063543677330017,0.024253666400909424,-0.04899103194475174,0.3606695532798767,0.6134796953719471,0.13436913337480094,-0.1696105584361367,0.7594866625815232
1729873554702231600,3.6292314453125,-0.1471967250108719,0.3728514015674591,0.1201556846499443,-0.40978869795799255,0.09477868676185608,-0.9072431921958923,-0.054963499307632446,0.07174043357372284,0.19391006231307983,0.6135826653342895,0.13273621884872525,-0.1695862468873785,0.7596959565944575
1729873554712261600,3.63926171875,-0.1058223769068718,0.35245025157928467,0.07148295640945435,-0.4062172472476959,0.09626177698373795,-0.9086920619010925,-0.014513343572616577,0.13583961129188538,-0.03640681505203247,0.6135640895719748,0.13084275811973428,-0.1689205166241733,0.7601877397526662
1729873554722291700,3.649291748046875,-0.25113463401794434,0.09054875373840332,-0.024564210325479507,-0.4041035771369934,0.09791820496320724,-0.9094571471214294,0.09253436326980591,-0.005160078406333923,-0.18937402963638306,0.6138070077224651,0.12941587762491644,-0.16888738085109414,0.7602431498293765
1729873554732322800,3.65932275390625,-0.31894588470458984,-0.12148573994636536,-0.10450378805398941,-0.40443098545074463,0.10043229907751083,-0.9090373516082764,0.14576399326324463,-0.10902304202318192,-0.12337231636047363,0.6141958949553136,0.12865010004756505,-0.17008959599935236,0.7597908109493104
1729873554742352600,3.6693525390625,-0.2546249032020569,-0.043398767709732056,-0.182905375957489,-0.4054640531539917,0.10246339440345764,-0.9083502292633057,0.1475752592086792,-0.10492010414600372,0.022180795669555664,0.6148921336582162,0.12824887401790713,-0.17139751043858004,0.759001217648953
1729873554752383700,3.6793837890625,-0.15143220126628876,0.24342606961727142,0.037119124084711075,-0.40469828248023987,0.10405097901821136,-0.9085112810134888,-0.020213216543197632,-0.11743298918008804,0.146365225315094,0.615436067848115,0.12731010269675566,-0.1718618933488636,0.7586133130464074
1729873554762413800,3.689413818359375,0.0768856555223465,0.6414719820022583,0.3069141209125519,-0.40044474601745605,0.10524137318134308,-0.9102572798728943,-0.17830589413642883,-0.06279146671295166,0.2167910933494568,0.6151630767317471,0.1253030163263302,-0.17079378764612704,0.7594097908167888
1729873554772444700,3.699444580078125,0.31805697083473206,0.761566162109375,0.29790598154067993,-0.393536239862442,0.10451735556125641,-0.9133484363555908,-0.16748365759849548,0.06731182336807251,0.19913029670715332,0.6143988244424923,0.12296931701141947,-0.1679414285778069,0.7610443919870181
1729873554782474500,3.709474609375,0.23705308139324188,0.6642590165138245,0.14206792414188385,-0.38658520579338074,0.10269738733768463,-0.916517972946167,-0.05947497487068176,0.1555575728416443,0.13856381177902222,0.6139952140987854,0.12088626230898986,-0.16470439271169432,0.7624100311014138
1729873554792505900,3.719505859375,0.017392897978425026,0.2266276627779007,0.02369120344519615,-0.3822638988494873,0.1017841026186943,-0.9184303879737854,0.0848853588104248,0.1407237946987152,0.025302886962890625,0.6139777144598959,0.11946933920280375,-0.16282472796656064,0.7630509555434765
1729873554802536700,3.72953662109375,-0.27373120188713074,-0.15800103545188904,-0.09501973539590836,-0.3821984529495239,0.10280958563089371,-0.9183433651924133,0.19811642169952393,0.03389386087656021,0.02449876070022583,0.6142067267215999,0.11906583765723498,-0.1632532796681451,0.7628381476091913
1729873554812566500,3.73956640625,-0.4026774764060974,-0.09612568467855453,-0.0996570959687233,-0.38369250297546387,0.10568531602621078,-0.9173934459686279,0.18279525637626648,-0.056750424206256866,0.0017135143280029297,0.6147182700929348,0.11862501982972948,-0.16501935490368155,0.7621143821447119
1729873554822597600,3.74959765625,-0.16115553677082062,0.1945580244064331,0.11827842146158218,-0.3833256661891937,0.1084849014878273,-0.9172199964523315,0.030267804861068726,-0.07552596181631088,-0.04870718717575073,0.6149358837642002,0.11753350551129615,-0.1660598981455466,0.7618818422399757
1729873554832627500,3.75962744140625,0.17387358844280243,0.6329196691513062,0.34946078062057495,-0.37938550114631653,0.10932451486587524,-0.9187572002410889,-0.12371203303337097,-0.06365500390529633,-0.003819704055786133,0.6143297906484528,0.11583655650743878,-0.16493418996015732,0.7628746027575515
1729873554842658600,3.769658447265625,0.4194389879703522,1.118155837059021,0.42283540964126587,-0.3707334101200104,0.10797407478094101,-0.9224415421485901,-0.18047505617141724,0.017529405653476715,0.031221449375152588,0.6133463785597146,0.11305289378670497,-0.16123982615345295,0.7648707208917572
1729873554852688600,3.779688720703125,0.399875670671463,1.0977994203567505,0.3171049654483795,-0.35963547229766846,0.10535182803869247,-0.9271263480186462,-0.13687026500701904,0.12046294659376144,0.05444568395614624,0.6125676956594516,0.10965212257701856,-0.1562473153043836,0.7670228650652868
1729873554862719500,3.789719482421875,-0.03245748206973076,0.5519729852676392,0.14881956577301025,-0.35157039761543274,0.10427454859018326,-0.9303359985351562,-0.0006634891033172607,0.054554134607315063,0.13516998291015625,0.6121932793434172,0.1068719689818117,-0.15300450032848015,0.7683667885432076
1729873554872750600,3.79975048828125,-0.47731348872184753,0.07664423435926437,-0.034062109887599945,-0.3487064838409424,0.1070079430937767,-0.9311031699180603,0.13877606391906738,-0.08280754834413528,0.1347469687461853,0.6123571187510537,0.10483588092245208,-0.15315956515404575,0.7684859121927823
1729873554882780700,3.80978076171875,-0.6042983531951904,-0.13681836426258087,-0.13447126746177673,-0.34929242730140686,0.11186563223600388,-0.9303122758865356,0.19481244683265686,-0.10094038397073746,0.07202064990997314,0.6129654312651099,0.10340145398333506,-0.15540915545385264,0.7677432697641859
1729873554892811500,3.8198115234375,-0.5999773740768433,0.024788914248347282,-0.07480660825967789,-0.3501654863357544,0.11709030717611313,-0.929340660572052,0.11963573098182678,-0.06135000288486481,0.0716899037361145,0.6136661052202929,0.10193940337687066,-0.15791782951028568,0.7668666007530481
1729873554902841600,3.829841552734375,-0.37286341190338135,0.34846141934394836,0.1300453394651413,-0.3483711779117584,0.1218746230006218,-0.9293999075889587,-0.017839759588241577,0.016308926045894623,0.034197211265563965,0.6139716837435811,0.09964140968531163,-0.15928480541686146,0.7666413447537758
1729873554912872400,3.83987255859375,-0.08361507207155228,0.6250823736190796,0.25437289476394653,-0.34354740381240845,0.12466774880886078,-0.9308239221572876,-0.11482661962509155,0.08460650593042374,0.016852974891662598,0.6136960047682537,0.09690410770896574,-0.15873764774137605,0.7673260784807392
1729873554922902500,3.849902587890625,0.06953120231628418,0.8885264992713928,0.22117231786251068,-0.3360612690448761,0.12552140653133392,-0.9334383606910706,-0.1117994487285614,0.12421914935112,-0.0035886168479919434,0.6133543729063847,0.09374865250285302,-0.1564991859396829,0.7684503167815947
1729873554932933600,3.85993359375,0.049392908811569214,0.7278686165809631,0.12904693186283112,-0.32793453335762024,0.12535613775253296,-0.9363465309143066,-0.04204532504081726,0.11663296818733215,-0.03571462631225586,0.6132900340929066,0.0906080416989316,-0.1536779696585944,0.7694471410208136
1729873554942964500,3.869964599609375,-0.3125458359718323,0.315783828496933,-0.034481558948755264,-0.3230127990245819,0.12669605016708374,-0.9378756880760193,0.0586085319519043,-0.0014977455139160156,0.04674720764160156,0.613535954821426,0.08819233481531671,-0.15259179419001537,0.7697477480355466
1729873554952994600,3.87999462890625,-0.46350181102752686,0.06944117695093155,-0.17748717963695526,-0.3214503824710846,0.13014636933803558,-0.9379400610923767,0.1463252604007721,-0.08859673142433167,0.03504699468612671,0.6143004133249739,0.0863274255409317,-0.15354978213260648,0.769158759822454
1729873554963025700,3.890025634765625,-0.47368574142456055,0.0377582423388958,-0.11648029088973999,-0.3213217258453369,0.13413865864276886,-0.9374215602874756,0.0928976833820343,-0.11620961129665375,0.030957937240600586,0.6151565683614333,0.08483283247508448,-0.1552179441904333,0.7683055050428285
1729873554973055500,3.900055419921875,-0.3071630895137787,0.339158296585083,0.01456241775304079,-0.31979742646217346,0.13777121901512146,-0.9374159574508667,-0.010097593069076538,-0.01893581449985504,0.0788344144821167,0.6156474383022442,0.0829750780416801,-0.15622787526642168,0.7679103776881715
1729873554983086600,3.910086669921875,-0.0750107392668724,0.7199525833129883,0.15302708745002747,-0.3145851790904999,0.1397932469844818,-0.938879132270813,-0.09169533848762512,0.1600876897573471,0.06403172016143799,0.6158115220887064,0.0802501496327734,-0.15530725793445843,0.7682550765095207
1729873554993116700,3.92011669921875,0.006324335001409054,0.7944046854972839,0.1384204477071762,-0.3070318102836609,0.14048261940479279,-0.9412736296653748,-0.13992860913276672,0.22136424481868744,0.04697132110595703,0.6158115394125001,0.07706642962346873,-0.15304880504483342,0.7690338216981687
1729873555003147500,3.9301474609375,-0.09021152555942535,0.6070623993873596,-0.015157660469412804,-0.3002001643180847,0.14099332690238953,-0.9433985352516174,-0.05577212572097778,0.1937844604253769,0.008584082126617432,0.6161273407431312,0.07416164066037546,-0.15099930150565952,0.7694716275875767
1729873555013178600,3.9401787109375,-0.25506678223609924,0.3973097503185272,-0.1428666114807129,-0.29561150074005127,0.14237704873085022,-0.9446389079093933,0.03460994362831116,0.08348348736763,0.01130455732345581,0.6168763639387863,0.07177543960023297,-0.1500961211108295,0.7692743614785956
1729873555023208700,3.950208740234375,-0.37383410334587097,0.25718018412590027,-0.1853293925523758,-0.29283803701400757,0.14483994245529175,-0.9451282024383545,0.07013601064682007,-0.050510138273239136,0.019545316696166992,0.617894200779764,0.06970456047176146,-0.1502570346349143,0.7686163502278429
1729873555033239600,3.960239501953125,-0.36079901456832886,0.32056501507759094,-0.09060528129339218,-0.2904967665672302,0.14794202148914337,-0.9453701972961426,0.03454586863517761,-0.13109634816646576,0.08581209182739258,0.6187837912187198,0.06762276235523185,-0.15080473363339436,0.7679790606084826
1729873555043269600,3.97026953125,-0.23702473938465118,0.5744575262069702,0.03241118788719177,-0.2862986922264099,0.15083129703998566,-0.9461939334869385,-0.03425794839859009,-0.11771975457668304,0.06414437294006348,0.6193306866533004,0.0649511286158403,-0.15061331898657226,0.7678064199801332
1729873555053300700,3.98030078125,0.013487106189131737,0.7244419455528259,0.11070679128170013,-0.27994704246520996,0.15204308927059174,-0.9478990435600281,-0.08115217089653015,-0.0022018402814865112,0.056465327739715576,0.6195694873910521,0.062038788262708824,-0.149002273049781,0.7681687207547292
1729873555063330600,3.99033056640625,0.07958416640758514,0.8565883636474609,0.08511008322238922,-0.27225396037101746,0.15177024900913239,-0.9501808285713196,-0.08440497517585754,0.12668734788894653,0.12239152193069458,0.6197314973324101,0.059095394873613906,-0.14634659327703897,0.7687804650068938
1729873555073361700,4.000361572265625,-0.014575887471437454,0.7873008847236633,0.005846158601343632,-0.2641763985157013,0.15153226256370544,-0.9524961113929749,-0.034514397382736206,0.16073881089687347,0.06820350885391235,0.6201509409761095,0.05594391704256285,-0.14360441384397804,0.7691950464298597
1729873555083392500,4.010392578125,-0.18100081384181976,0.5365172028541565,-0.13090983033180237,-0.25793296098709106,0.15227799117565155,-0.9540870189666748,0.009702980518341064,0.07579508423805237,0.053803205490112305,0.6208873171595638,0.05313653608404212,-0.1418908175924048,0.7691181105079812
1729873555093422600,4.020422607421875,-0.3356439471244812,0.43959948420524597,-0.20360693335533142,-0.2536301612854004,0.15437476336956024,-0.954903244972229,0.04952859878540039,-0.03109903633594513,0.0739675760269165,0.6219632624488204,0.05059218811399382,-0.14138180570364858,0.7685137466791284
1729873555103453700,4.03045361328125,-0.33708614110946655,0.5254064798355103,-0.2110416740179062,-0.24946007132530212,0.15712346136569977,-0.9555531740188599,0.04462610185146332,-0.07060617208480835,0.08889973163604736,0.6231963847793228,0.04786275717140204,-0.1411827106273172,0.7677259266133243
1729873555113483800,4.04048388671875,-0.24599646031856537,0.6674688458442688,-0.13390401005744934,-0.2439713329076767,0.15955498814582825,-0.9565668702125549,0.01435708999633789,-0.09459835290908813,0.08323007822036743,0.6243800063262566,0.04473447434552515,-0.14041147899254394,0.7670939999951859
1729873555123514600,4.0505146484375,-0.1736125349998474,0.7793015241622925,-0.03920414298772812,-0.23713701963424683,0.1613461971282959,-0.9579840302467346,-0.03446941077709198,-0.1300657093524933,0.09021669626235962,0.6252576391300565,0.04135039862477712,-0.13891766881226886,0.7668408857406466
1729873555133544700,4.060544677734375,-0.11161521822214127,0.868483304977417,-0.017893526703119278,-0.22928602993488312,0.16260063648223877,-0.9596816897392273,-0.03199020028114319,-0.09714047610759735,0.0902816653251648,0.6259430400242024,0.03778463848866144,-0.13686296906448836,0.7668352630826704
1729873555143575600,4.070575439453125,-0.08279315382242203,0.9140023589134216,-0.03300643339753151,-0.22062742710113525,0.16344572603702545,-0.9615659117698669,-0.008559569716453552,-0.03527192771434784,0.05464452505111694,0.6266859530180167,0.03403270278394876,-0.13438306678246614,0.766842741285213
1729873555153606700,4.080606689453125,-0.10651100426912308,0.7987040281295776,-0.036708224564790726,-0.21237994730472565,0.1642294079065323,-0.9632878303527832,0.002022296190261841,-0.029845282435417175,0.0472874641418457,0.627404726163493,0.03046833307091572,-0.13201423601797416,0.766816374020808
1729873555163636700,4.09063671875,-0.24452906847000122,0.7656985521316528,-0.03569489344954491,-0.20493479073047638,0.16585372388362885,-0.9646213054656982,0.028833121061325073,-0.04657581448554993,0.07251620292663574,0.6280877015825652,0.026952355577199515,-0.130241749126341,0.7666920035882662
1729873555173667600,4.10066748046875,-0.19334816932678223,0.651829719543457,-0.05826198682188988,-0.19799387454986572,0.16800352931022644,-0.9656983017921448,0.05057874321937561,-0.03886844217777252,0.06895452737808228,0.6287554040309395,0.02346665117327841,-0.1288415932006042,0.7664958813657698
