time,seconds_elapsed,rotationRateX,rotationRateY,rotationRateZ,gravityX,gravityY,gravityZ,accelerationX,accelerationY,accelerationZ,quaternionW,quaternionX,quaternionY,quaternionZ
1729873836003613000,0.086613037109375,-0.20758602023124695,0.10466580092906952,-0.31370067596435547,0.4115159213542938,0.3746999502182007,-0.8308156728744507,-0.00544893741607666,0.004770874977111816,-0.0037943124771118164,0.9567695763088075,-0.19581515427589158,0.21505486808229732,2.1169202927734634e-17
1729873836013643000,0.09664306640625,-0.1535947471857071,0.1336572915315628,-0.30449172854423523,0.4113576114177704,0.3774828314781189,-0.8296334743499756,-0.00495496392250061,0.006947129964828491,-0.012270212173461914,0.9564595988873521,-0.1970173936742549,0.21533092757878983,-0.001403588830607626
1729873836023674000,0.106674072265625,-0.07644245028495789,0.15215933322906494,-0.2949024736881256,0.41140154004096985,0.37970277667045593,-0.8285979628562927,-0.028588980436325073,-0.003207385540008545,-0.0108184814453125,0.9561855432247409,-0.19790359629975773,0.21572015438479866,-0.0028686983635360414
1729873836033704000,0.116703857421875,0.017076579853892326,0.19615678489208221,-0.26874253153800964,0.41176295280456543,0.3811050057411194,-0.8277742862701416,-0.042866408824920654,-0.010163813829421997,-0.0005338191986083984,0.9559645014636095,-0.19834351959418925,0.21626999606036174,-0.004360923626439152
1729873836043735000,0.126735107421875,0.06578207015991211,0.25339823961257935,-0.2219529151916504,0.412691593170166,0.38175374269485474,-0.8270125389099121,-0.03915637731552124,-0.010751515626907349,-0.0018448829650878906,0.9557575659241575,-0.1983923922340743,0.2171040887190748,-0.0058121376242455955
1729873836053766000,0.136765869140625,0.0787968710064888,0.2627602517604828,-0.1583494395017624,0.4141165316104889,0.3819321095943451,-0.826217532157898,-0.039620012044906616,-0.012989819049835205,0.0011748671531677246,0.9555412431423691,-0.19823853314992557,0.21815753921433945,-0.00706350998178577
1729873836063796000,0.1467958984375,0.06457026302814484,0.3078603446483612,-0.11236783117055893,0.4159470498561859,0.3818681240081787,-0.8253270983695984,-0.028892546892166138,-0.012483328580856323,0.014169931411743164,0.9553004195338055,-0.19801903095315704,0.21937389633910595,-0.00805202015883695
1729873836073827000,0.1568271484375,0.03794151544570923,0.3428370952606201,-0.11404296010732651,0.4182114601135254,0.38192522525787354,-0.8241555690765381,-0.009901463985443115,0.00006332993507385254,0.014585256576538086,0.9549855067556887,-0.19788740639594235,0.22082300671886582,-0.008980061378673273
1729873836083857200,0.166857177734375,0.01724396087229252,0.32981076836586,-0.10309816896915436,0.4206002354621887,0.38217368721961975,-0.8228236436843872,-0.024863511323928833,0.0034769773483276367,0.005135715007781982,0.9546277669975046,-0.19786679413273178,0.22234413484029242,-0.0098842317038749
1729873836093888000,0.176887939453125,0.04485015571117401,0.28967148065567017,-0.0844094380736351,0.4227960705757141,0.38235023617744446,-0.8216153979301453,-0.016835927963256836,0.00537562370300293,0.0013791918754577637,0.9543030546218113,-0.19783221160782802,0.22372914418495005,-0.010652298341541723
1729873836103918000,0.18691796875,0.10759636014699936,0.3271181881427765,-0.10670941323041916,0.4249590337276459,0.3821801245212555,-0.8205779790878296,0.0156843364238739,0.018378376960754395,-0.008203089237213135,0.9540213764688918,-0.19758463917727984,0.22510290027239047,-0.011506262978716299
1729873836113949200,0.19694921875,0.17555543780326843,0.3178987503051758,-0.10832701623439789,0.4271916449069977,0.38145750761032104,-0.8197545409202576,0.006829410791397095,0.03289493918418884,-0.033303260803222656,0.9537926524707289,-0.1969929149772365,0.2265314976189686,-0.012529642484666379
1729873836123979000,0.20697900390625,0.16662932932376862,0.26856130361557007,-0.08940552920103073,0.4292363226413727,0.3804386556148529,-0.819159746170044,-0.029562801122665405,0.03334921598434448,-0.055779218673706055,0.953623790932023,-0.19624950924579462,0.2278294528951868,-0.013479911707885681
1729873836134010000,0.217010009765625,0.1308276504278183,0.24921321868896484,-0.06707704812288284,0.4310208857059479,0.37955352663993835,-0.8186330795288086,-0.015508770942687988,0.024956971406936646,-0.04191678762435913,0.953473982289103,-0.1956086018490664,0.22895575371869473,-0.014278089407774823
1729873836144040200,0.227040283203125,0.07906298339366913,0.2685275375843048,-0.03287513926625252,0.4329369068145752,0.3789112865924835,-0.8179191946983337,-0.00454634428024292,0.018839597702026367,-0.028913021087646484,0.953277286433116,-0.19514473407844965,0.23012807081438313,-0.01489869602978948
1729873836154071000,0.237071044921875,0.016179895028471947,0.269197553396225,-0.0005936315283179283,0.4351017475128174,0.37862420082092285,-0.8169028162956238,-0.028775393962860107,0.004813969135284424,-0.031928300857543945,0.9530044924834818,-0.19493317149197836,0.23140795677937268,-0.015297263926408048
1729873836164102100,0.24710205078125,-0.025035718455910683,0.2243397831916809,0.021052543073892593,0.43717214465141296,0.37865716218948364,-0.8157814145088196,-0.05352035164833069,-0.021097958087921143,-0.026259541511535645,0.9527072246775192,-0.1949466105110285,0.232605063207699,-0.01548350338054872
1729873836174132200,0.25713232421875,-0.0037382198497653008,0.1933974176645279,0.04579916596412659,0.4389818012714386,0.37865155935287476,-0.814811646938324,-0.04673931002616882,-0.03612223267555237,-0.02040863037109375,0.9524523631741856,-0.19497298661403253,0.2336229865750218,-0.015509146836315707
1729873836184163000,0.2671630859375,0.013259672559797764,0.1723981350660324,0.08037658780813217,0.4407111406326294,0.3783528804779053,-0.8140164613723755,-0.03330138325691223,-0.038890570402145386,-0.032007038593292236,0.9522454639343643,-0.19487179774132696,0.23455647244722835,-0.015393547776691874
1729873836194193200,0.277193115234375,0.07725010812282562,0.1472225785255432,0.13604651391506195,0.44240766763687134,0.37754857540130615,-0.8134694695472717,-0.03254127502441406,-0.03356963396072388,-0.039847731590270996,0.9521068206456776,-0.1945403207214215,0.2354130869888593,-0.015084610100328442
1729873836204224000,0.28722412109375,0.1546785831451416,0.14345580339431763,0.18979309499263763,0.4441896080970764,0.3758770227432251,-0.8132724761962891,-0.03674936294555664,-0.030021309852600098,-0.04054832458496094,0.9520627830377552,-0.19378167442552005,0.2362465542253493,-0.01458728704531711
1729873836214254000,0.297254150390625,0.18334518373012543,0.1666666865348816,0.22842997312545776,0.44625428318977356,0.3735318183898926,-0.8132226467132568,-0.05459165573120117,-0.028851032257080078,-0.05846613645553589,0.9520596825268455,-0.19270258640603136,0.23718006052542126,-0.01392002670557676
1729873836224285200,0.30728515625,0.1819843053817749,0.20364147424697876,0.23016901314258575,0.4486094117164612,0.37098926305770874,-0.8130907416343689,-0.0811014473438263,-0.030397772789001465,-0.06636476516723633,0.9520351077303753,-0.19153347357933231,0.23826361809415122,-0.013212409859655326
1729873836234315000,0.31731494140625,0.14327898621559143,0.23779530823230743,0.2641328275203705,0.45131656527519226,0.3685663938522339,-0.8126944303512573,-0.08887451887130737,-0.0339106023311615,-0.0669594407081604,0.9519411829507656,-0.1904503377123661,0.2395442615017611,-0.012463966307209084
1729873836244346000,0.32734619140625,0.06463424861431122,0.24171094596385956,0.3096984624862671,0.4543740153312683,0.36639249324798584,-0.8119734525680542,-0.07926714420318604,-0.04057154059410095,-0.0626145601272583,0.9517645646372127,-0.1895810289688392,0.24098197551499254,-0.011452062406647492
1729873836254377200,0.337377197265625,-0.04044230654835701,0.18171723186969757,0.3372502028942108,0.4572901129722595,0.36483049392700195,-0.8110391497612,-0.053450942039489746,-0.053139179944992065,-0.04928183555603027,0.9515339864968537,-0.1891252873971829,0.24230569403470922,-0.010136411364327857
1729873836264407000,0.347406982421875,-0.11890888214111328,0.1087506040930748,0.3839111626148224,0.45978835225105286,0.3638373017311096,-0.8100723028182983,-0.03640267252922058,-0.08359435200691223,-0.03248751163482666,0.9512963334307912,-0.18906900137079188,0.24334494229909498,-0.008457133895754858
1729873836274438100,0.357438232421875,-0.1042734831571579,-0.008939648047089577,0.43418365716934204,0.461696594953537,0.36289963126182556,-0.8094072937965393,-0.023815065622329712,-0.10200482606887817,-0.027964532375335693,0.9511376912966055,-0.1891319131022313,0.24397844461853246,-0.006391267293036013
1729873836284468000,0.367468017578125,-0.0910641998052597,-0.09238314628601074,0.41095611453056335,0.462822288274765,0.3616791367530823,-0.8093106746673584,-0.006920129060745239,-0.08787539601325989,-0.040908992290496826,0.951124558721442,-0.18905590782775342,0.24413626211611406,-0.004193767600798539
1729873836294498800,0.377498779296875,-0.1457938849925995,-0.13319890201091766,0.3964677155017853,0.46336066722869873,0.36074769496917725,-0.8094183206558228,-0.0006530880928039551,-0.06355223059654236,-0.05346614122390747,0.9511598862224714,-0.18911324866179632,0.24398158211312462,-0.00203667469271056
1729873836304529000,0.38752880859375,-0.24324508011341095,-0.15159788727760315,0.40874940156936646,0.4636332094669342,0.3604493737220764,-0.8093951940536499,-0.019358277320861816,-0.05922558903694153,-0.031196177005767822,0.9511559452656833,-0.18954733469520474,0.24366826450418042,0.00026426302208242946
1729873836314560000,0.39756005859375,-0.3607621490955353,-0.17414532601833344,0.40538424253463745,0.4637552797794342,0.3610474467277527,-0.8090586066246033,-0.02018222212791443,-0.0733887255191803,-0.009377002716064453,0.9510638228216312,-0.1904919131403947,0.2432766352475349,0.002656422182406764
1729873836324590000,0.407590087890625,-0.5352199077606201,-0.15915146470069885,0.5025672316551208,0.4640498757362366,0.36251649260520935,-0.8082323670387268,-0.027678966522216797,-0.07716184854507446,0.017048895359039307,0.9508341737880509,-0.19204516680276196,0.2429042557844841,0.005536585617560826
1729873836334621000,0.417620849609375,-0.7388944625854492,-0.1813780963420868,0.5632726550102234,0.4646371304988861,0.36524128913879395,-0.8066667318344116,-0.019263535737991333,-0.06659621000289917,0.04917466640472412,0.950395899968407,-0.19445085905412557,0.24260153819506666,0.00900513759933256
1729873836344652000,0.427652099609375,-0.8787599802017212,-0.24334318935871124,0.6042110323905945,0.46508583426475525,0.369063138961792,-0.8046661615371704,0.019853800535202026,-0.0854022204875946,0.09295046329498291,0.9498231061848285,-0.19759687311157242,0.24212062578815674,0.013012130054261894
1729873836354681900,0.437681884765625,-0.9803248047828674,-0.32123619318008423,0.7186750769615173,0.46525871753692627,0.37355002760887146,-0.8024928569793701,0.050824105739593506,-0.08962970972061157,0.12561297416687012,0.9491785188721739,-0.20122930295471378,0.24137180237928524,0.017514525024112965
1729873836364713000,0.447712890625,-1.1412607431411743,-0.4744420051574707,1.3008899688720703,0.46567824482917786,0.3776918947696686,-0.8003078103065491,0.06009390950202942,-0.05199301242828369,0.13951075077056885,0.9484700454457707,-0.20509522657209361,0.24037894156357667,0.02363238987856692
1729873836374743000,0.457742919921875,-1.5801600217819214,-0.8333367705345154,1.3638896942138672,0.4655649662017822,0.3819890320301056,-0.7983317971229553,0.25439053773880005,-0.052414387464523315,0.1608349084854126,0.9476844716042492,-0.20972973689459923,0.2384271982309214,0.03255963954129382
1729873836384774000,0.46777392578125,-1.8201937675476074,-0.6729348301887512,0.9549717307090759,0.46388909220695496,0.39034247398376465,-0.7952607870101929,0.16924390196800232,-0.08980533480644226,0.22052323818206787,0.9465488192917114,-0.21638561897507294,0.2356838358843708,0.04093754712767498
1729873836394804000,0.477803955078125,-2.0075435638427734,-0.32333844900131226,0.8588278889656067,0.4634307622909546,0.4012652039527893,-0.7900747656822205,-0.17688590288162231,-0.07916739583015442,0.15288305282592773,0.9448484220526799,-0.22421113476609966,0.23386315305178973,0.047946563964415115
1729873836404835000,0.4878349609375,-2.397308826446533,-0.20490127801895142,0.9155611991882324,0.46531447768211365,0.4144771695137024,-0.782106876373291,-0.17794564366340637,-0.0950038731098175,0.1349359154701233,0.9423482472314411,-0.2335491510513773,0.23324095890188437,0.05507632145399878
1729873836414865000,0.497864990234375,-2.7608304023742676,0.10377459228038788,-0.5294159054756165,0.4659847617149353,0.4330659806728363,-0.7715647220611572,-0.11269795894622803,-0.15259414911270142,0.16368508338928223,0.9392776303666229,-0.24526028182212056,0.23251888019928327,0.059498421799537925
1729873836424896000,0.50789599609375,-3.423327684402466,-0.332454651594162,-0.9889539480209351,0.46106284856796265,0.4607216417789459,-0.7583909034729004,-0.22450575232505798,-0.5024086236953735,0.04476785659790039,0.9357965675441282,-0.26066001708035763,0.22991501515702448,0.05899537967848005
1729873836434926000,0.517926025390625,-3.979846954345703,-1.1098743677139282,-0.5005749464035034,0.4518910050392151,0.4924629032611847,-0.7438244223594666,0.1594524383544922,-0.3787848949432373,0.21342897415161133,0.9317965362962373,-0.27883621781218776,0.22436163323835545,0.060559246788843904
1729873836444957000,0.52795703125,-3.8641369342803955,-1.8468080759048462,0.20748713612556458,0.4400797188282013,0.5223616361618042,-0.7303890585899353,0.463988333940506,0.0262833833694458,0.24660921096801758,0.9277771061217571,-0.29698927849989637,0.21587691030976375,0.06651488622556376
1729873836454988000,0.537988037109375,-3.323411464691162,-1.948590636253357,0.6836555600166321,0.4284891188144684,0.5464949011802673,-0.7195418477058411,0.4034048616886139,0.26158010959625244,0.11721646785736084,0.924160167335455,-0.31252298371116954,0.20629699225288403,0.07549236557121047
1729873836465018000,0.54801806640625,-2.77632737159729,-1.470108985900879,0.8657425045967102,0.4204554855823517,0.5649202466011047,-0.7099875807762146,0.18237358331680298,0.36411112546920776,0.047573089599609375,0.920744792265254,-0.32507896290927785,0.19831759276835884,0.08498811079911098
1729873836475049000,0.558049072265625,-2.4998667240142822,-0.8528593182563782,0.9580623507499695,0.41751623153686523,0.5795857906341553,-0.6998289823532104,-0.05156460404396057,0.279774010181427,0.017013490200042725,0.9171334755805242,-0.33572865776563005,0.19331778173124403,0.09370632951354357
1729873836485076700,0.56807666015625,-2.624488115310669,-0.35181644558906555,1.0188182592391968,0.4192064702510834,0.593085765838623,-0.6873974800109863,-0.1796281933784485,0.09148454666137695,0.035831987857818604,0.9128842814848804,-0.34612364990640626,0.19104889934910477,0.10169108994210789
1729873836495107800,0.57810791015625,-3.0961363315582275,-0.05507763475179672,1.098522663116455,0.4242825210094452,0.6079904437065125,-0.6710678935050964,-0.2002529501914978,-0.09325039386749268,0.11764693260192871,0.9074840746268376,-0.35799406570439857,0.19054215817741532,0.10957525382762365
1729873836505137700,0.5881376953125,-3.8019180297851562,0.018624816089868546,1.1234195232391357,0.43116775155067444,0.6259787678718567,-0.649803876876831,-0.13471993803977966,-0.2422507405281067,0.19077378511428833,0.9005512821411582,-0.3725153503685314,0.190605269721901,0.11793892814074815
1729873836515168800,0.598168701171875,-4.576733112335205,-0.09602906554937363,1.0094280242919922,0.43785250186920166,0.6480708122253418,-0.6231287717819214,-0.04464873671531677,-0.3250727653503418,0.24403947591781616,0.8918974299698569,-0.3903210589604376,0.1899607621467464,0.1268205665611135
1729873836525198600,0.608198486328125,-5.1958489418029785,-0.3731245994567871,0.8582976460456848,0.4426547884941101,0.6738300323486328,-0.5916162729263306,0.02414211630821228,-0.3231220245361328,0.27376049757003784,0.8816436741180627,-0.4110953198769464,0.18759665613387205,0.13606086738277937
1729873836535229700,0.618229736328125,-5.513023853302002,-0.7531129121780396,0.7726389169692993,0.44500645995140076,0.7011877298355103,-0.5570504665374756,0.09724518656730652,-0.259186327457428,0.24804478883743286,0.8702059372843112,-0.4335593939846884,0.18303283078794985,0.1458323399709667
1729873836545260500,0.628260498046875,-5.527580261230469,-0.9751062989234924,0.7335101962089539,0.4456409811973572,0.7277922034263611,-0.521270215511322,0.1455455720424652,-0.16695541143417358,0.18872028589248657,0.8580753321990582,-0.45621672783015593,0.17672346101139783,0.15601893615509135
1729873836555290600,0.63829052734375,-5.346802711486816,-1.04390549659729,0.7732477188110352,0.44604989886283875,0.7519722580909729,-0.48536303639411926,0.12815365195274353,-0.06435012817382812,0.15212643146514893,0.8455863231138258,-0.47803023722637483,0.16972203042998119,0.16632907603382655
1729873836565321700,0.64832177734375,-5.048117160797119,-1.0517336130142212,0.8982676863670349,0.4475019574165344,0.7726686000823975,-0.4502504765987396,0.09668755531311035,0.02821958065032959,0.139215350151062,0.832999394630161,-0.49834446032183727,0.16287282939106484,0.1767412179707074
1729873836575351800,0.658351806640625,-4.711872100830078,-1.048635482788086,1.0471208095550537,0.4505699872970581,0.7894673347473145,-0.41680708527565,0.07260817289352417,0.08978992700576782,0.10853379964828491,0.8205453793653638,-0.5168090105792105,0.156540444897736,0.18737377930314417
1729873836585382700,0.668382568359375,-4.585455894470215,-1.006577491760254,1.1227515935897827,0.45514634251594543,0.8031417727470398,-0.384454607963562,0.03919270634651184,0.11143964529037476,0.08014863729476929,0.8080716970491207,-0.5339034067600303,0.15073106850326648,0.19811011282109453
1729873836595412700,0.678412841796875,-4.558067798614502,-0.9391045570373535,1.1326090097427368,0.4607464671134949,0.8148009181022644,-0.3518698811531067,-0.015067696571350098,0.10240495204925537,0.10837018489837646,0.7952252451974083,-0.550425525069809,0.14524736596587037,0.20869102269511283
1729873836605443800,0.68844384765625,-4.69076681137085,-0.926659882068634,1.1694631576538086,0.4670565724372864,0.8249946236610413,-0.3181857466697693,-0.0548555850982666,0.050844669342041016,0.13613319396972656,0.7817129765515949,-0.5668812679456375,0.13983116890832412,0.21912956113562249
1729873836615473700,0.6984736328125,-4.903298377990723,-0.9336138963699341,1.2003787755966187,0.4741824269294739,0.8337928652763367,-0.2827376425266266,-0.0516817569732666,-0.016776204109191895,0.12302392721176147,0.7671891610259461,-0.5836150214685789,0.1342560679285182,0.2297600427616639
1729873836625504800,0.7085048828125,-5.1591691970825195,-0.9445102214813232,1.0998423099517822,0.48139309883117676,0.8416012525558472,-0.24488429725170135,-0.06092184782028198,-0.06096154451370239,0.12751376628875732,0.7514913009551657,-0.600934190363771,0.12820278180201425,0.24021477600194255
1729873836635535600,0.71853564453125,-5.184390544891357,-1.0887980461120605,0.9793902635574341,0.48792657256126404,0.8482479453086853,-0.20592068135738373,-0.07990649342536926,-0.05912429094314575,0.1114841103553772,0.7349978129871692,-0.6183446132363627,0.12120065660426557,0.250476945899567
1729873836645565700,0.728565673828125,-5.1089677810668945,-1.149276852607727,0.7672236561775208,0.49324408173561096,0.8536058664321899,-0.1675339937210083,-0.06138968467712402,-0.004545629024505615,0.005363628268241882,0.7183538685608114,-0.6351525393743273,0.1132000531832565,0.2602592730563142
1729873836655596800,0.7385966796875,-4.6163740158081055,-1.0691249370574951,0.8169909715652466,0.49827200174331665,0.8570470809936523,-0.13113239407539368,-0.10892859101295471,0.07949179410934448,0.053160056471824646,0.70218749224544,-0.6506493013235698,0.10530571319531251,0.26925663690967583
1729873836665627000,0.748626953125,-4.0832672119140625,-1.0407062768936157,0.953702986240387,0.5046477913856506,0.8576198220252991,-0.09909144043922424,-0.05629873275756836,0.14553886651992798,-0.007155418395996094,0.687194921952457,-0.6638815819358199,0.09856735627617796,0.2780449508754306
1729873836675657700,0.75865771484375,-3.5494985580444336,-0.9709965586662292,1.0905753374099731,0.5125899314880371,0.8556584119796753,-0.07141860574483871,-0.028718411922454834,0.19666409492492676,-0.0005570054054260254,0.673413239358449,-0.6749885512982762,0.09317269749742983,0.28674743941052117
1729873836685687800,0.768687744140625,-3.092395544052124,-0.9298925399780273,1.1734280586242676,0.5217761397361755,0.8517342209815979,-0.047942936420440674,-0.027666032314300537,0.23249423503875732,-0.059112660586833954,0.6608833319636528,-0.684178221389831,0.08904321322261445,0.2953044809840961
1729873836695718700,0.77871875,-2.6996381282806396,-0.8227859735488892,1.159948468208313,0.5314287543296814,0.8466416001319885,-0.02795984037220478,-0.03580796718597412,0.20540618896484375,-0.07929408550262451,0.6495308802705723,-0.6918446826504432,0.08585461224319184,0.3034628403569586
1729873836705748700,0.788748779296875,-2.4029133319854736,-0.7116626501083374,1.072421908378601,0.5408065915107727,0.8410808444023132,-0.01055269967764616,-0.0637252926826477,0.12400704622268677,-0.07362997531890869,0.6392543136344373,-0.6984063978154923,0.08337957505033716,0.3108541832050336
1729873836715779800,0.79877978515625,-2.261063814163208,-0.6104159951210022,0.9221975207328796,0.5491885542869568,0.8356814980506897,0.0053370255045592785,-0.08049952983856201,0.04710054397583008,-0.014309048652648926,0.6297991885147609,-0.7043325493116246,0.0811429153676919,0.3173082684691475
1729873836725810700,0.808810791015625,-2.4102728366851807,-0.5425636768341064,0.8267309665679932,0.556590735912323,0.8305089473724365,0.02149159461259842,-0.071757972240448,0.029018700122833252,0.05521440505981445,0.6204034626900885,-0.7103165176555631,0.07871621305718605,0.32303847269430613
1729873836735840800,0.8188408203125,-2.355396032333374,-0.5052253007888794,0.8803494572639465,0.5637590289115906,0.8250420689582825,0.038488131016492844,-0.037132441997528076,0.03950566053390503,0.13164746761322021,0.610642535565896,-0.7165442071544165,0.07621327834623691,0.32843815217821026
1729873836745872000,0.828871826171875,-2.4715516567230225,-0.5004993081092834,0.9769699573516846,0.5716179013252258,0.8186565041542053,0.055270809680223465,0.03093653917312622,0.050881028175354004,0.07018709927797318,0.6007114124695647,-0.7225960205399068,0.07409720497507935,0.3339319848000118
1729873836755901700,0.838901611328125,-2.561983108520508,-0.5800902247428894,0.9939585328102112,0.5800718069076538,0.8113002777099609,0.07286369800567627,0.06371194124221802,0.05025690793991089,0.10879231244325638,0.5900210900403532,-0.7288839604430798,0.07183328195022745,0.33976978253611956
1729873836765932800,0.848932861328125,-2.20257830619812,-0.7447585463523865,0.9476083517074585,0.5885244011878967,0.8036069273948669,0.08862800151109695,0.04808753728866577,0.04501062631607056,0.02158629149198532,0.5796827422691355,-0.7345120459000397,0.06932571314996351,0.3459103167358392
1729873836775963000,0.858962890625,-1.4989912509918213,-0.7856607437133789,0.7240729928016663,0.596049427986145,0.7968499660491943,0.09877029806375504,0.017537176609039307,0.07702100276947021,-0.15838633477687836,0.5716769784713602,-0.7381716835828191,0.06699040934347547,0.35185287540408233
1729873836785993700,0.86899365234375,-1.3522995710372925,-0.5607996582984924,0.4997733235359192,0.6014814376831055,0.7918596863746643,0.10573042929172516,-0.07750976085662842,0.17914879322052002,-0.14296172559261322,0.5656786881554506,-0.7407256528981419,0.06473579298633875,0.3565706920688057
1729873836796023800,0.87902392578125,-1.2047888040542603,-0.2991783618927002,0.5395849347114563,0.6059849262237549,0.7873263359069824,0.11357757449150085,-0.1396762728691101,0.28251320123672485,0.07924783229827881,0.5600232019232836,-0.7435089983832506,0.06311226293344921,0.35997968614715936
1729873836806055000,0.889054931640625,-0.6769833564758301,-0.2443566471338272,0.6505939960479736,0.6110140681266785,0.7825611233711243,0.11941511929035187,-0.08595913648605347,0.27459830045700073,0.11903403699398041,0.5554978061318276,-0.7454855502074046,0.062919423013005,0.3629251229504539
1729873836816085800,0.899085693359375,-0.38601309061050415,-0.30913856625556946,0.588552713394165,0.6163339614868164,0.778035581111908,0.12162750959396362,-0.040452003479003906,0.17853790521621704,0.046722762286663055,0.5525553721278913,-0.7461669181787071,0.06362927218491056,0.3658809793758315
1729873836826115800,0.90911572265625,-0.4924796223640442,-0.3026287257671356,0.35612720251083374,0.6204033493995667,0.774556040763855,0.12313733994960785,-0.035717010498046875,0.13781273365020752,0.06565975397825241,0.5501390074579535,-0.7466624444800243,0.06374843688462982,0.3684813250380125
1729873836836147000,0.91914697265625,-0.6430191993713379,-0.24411609768867493,0.2510463297367096,0.6229984760284424,0.7720620632171631,0.12567175924777985,-0.028287053108215332,0.1502555012702942,0.0443570613861084,0.5476086145377477,-0.7475732230198495,0.06300916730255465,0.37052539076420055
1729873836846176800,0.9291767578125,-0.8559873700141907,-0.13830579817295074,0.2748006582260132,0.6252682209014893,0.769470751285553,0.13020990788936615,0.04723244905471802,0.15623420476913452,0.002007588744163513,0.5443922696273473,-0.7491670555589619,0.06207801143034812,0.3721991037231554
1729873836856208000,0.939207763671875,-0.9397395849227905,-0.1347910612821579,0.307055801153183,0.6276877522468567,0.766386091709137,0.13660554587841034,0.10648906230926514,0.18194788694381714,-0.043816789984703064,0.5404206884756816,-0.751371609622579,0.06118395936114764,0.3736883071627433
1729873836866238000,0.949238037109375,-0.5545626282691956,-0.24222536385059357,0.31059327721595764,0.6302711963653564,0.7633363008499146,0.14168952405452728,0.11875230073928833,0.20404034852981567,-0.04191221296787262,0.5368304070983674,-0.7531332984841305,0.060290959587362344,0.37545752471169525
1729873836876268800,0.959268798828125,0.13726402819156647,-0.28292378783226013,0.2078501284122467,0.6327961683273315,0.7613301873207092,0.14122918248176575,0.08786123991012573,0.19300031661987305,-0.1386045217514038,0.5357120022403502,-0.7529872569230471,0.060206149309696595,0.3773568908244944
1729873836886299000,0.969298828125,0.3619762659072876,-0.06017886847257614,0.07455278187990189,0.6340122818946838,0.760901927947998,0.1380472481250763,-0.024866044521331787,0.1882864236831665,-0.1596994251012802,0.5365331422356917,-0.7518902802899563,0.0607011862220762,0.3782971408193378
1729873836896330000,0.979330078125,0.6923883557319641,0.11950109153985977,0.12952469289302826,0.6347593069076538,0.76093590259552,0.13437768816947937,-0.07363259792327881,0.20059674978256226,-0.1979457288980484,0.5382599944327515,-0.7505478680679837,0.06218310706194434,0.37826899446395884
1729873836906360800,0.98936083984375,0.69852215051651,0.3024706542491913,0.023711707442998886,0.635153591632843,0.7613577842712402,0.1300557553768158,-0.014548003673553467,0.14643335342407227,-0.26778149604797363,0.5407974459457073,-0.7489147925546431,0.06445551909149057,0.37750544058972385
1729873836916391000,0.999390869140625,0.47940292954444885,0.395348459482193,-0.021564960479736328,0.6346262097358704,0.7621530294418335,0.12795621156692505,-0.0033089518547058105,0.13259196281433105,-0.16984151303768158,0.5428686155899151,-0.7480327038078154,0.06652203488368999,0.37591990381440643
1729873836926421800,1.009421875,0.28155243396759033,0.3910383880138397,-0.049651723355054855,0.6339073181152344,0.7628363370895386,0.1274465024471283,0.0822029709815979,0.07589364051818848,-0.17282605171203613,0.5442439979934796,-0.7477124321607675,0.06818631191286625,0.37426645325987135
1729873836936451600,1.01945166015625,0.09981326758861542,0.4568995535373688,-0.16347281634807587,0.6325889229774475,0.7637090682983398,0.12876379489898682,0.11748749017715454,0.004738867282867432,-0.17031335830688477,0.5449665784224614,-0.7480492104774767,0.0693128928786042,0.3723301023193122
1729873836946483000,1.02948291015625,0.1478540450334549,0.5201325416564941,-0.23710443079471588,0.6303563714027405,0.7651582956314087,0.13108673691749573,0.0683436393737793,0.0010159611701965332,-0.12696672976016998,0.5455650773480062,-0.7487552622020798,0.0700637288050342,0.36988568376238196
1729873836956512800,1.0395126953125,0.4186761677265167,0.5834214687347412,-0.19997650384902954,0.6279429197311401,0.7669175863265991,0.13238362967967987,0.041185617446899414,0.048069655895233154,-0.1567823886871338,0.5468306994670816,-0.7490760177012776,0.07125260200174557,0.3671300811397426
1729873836966543600,1.049543701171875,0.605259358882904,0.6659927368164062,-0.1867310106754303,0.6256482005119324,0.7688034176826477,0.1323087215423584,0.020973503589630127,0.10531151294708252,-0.19715847074985504,0.5489104770818888,-0.7488614331642438,0.0732182818684933,0.36406445682269795
1729873836976573700,1.05957373046875,0.6473127603530884,0.7057793736457825,-0.1908855438232422,0.6232590079307556,0.7708439826965332,0.1317128688097,-0.012769937515258789,0.12890595197677612,-0.15534862875938416,0.5513956701952873,-0.7484287457083026,0.07557014453812923,0.36070294865523156
1729873836986604800,1.069604736328125,0.5141637325286865,0.6059446334838867,-0.11329647898674011,0.6211473941802979,0.7726178169250488,0.1312926858663559,-0.01778435707092285,0.09441709518432617,-0.07274462282657623,0.5536427066850886,-0.748051683201308,0.07787824607908231,0.35753811151671294
1729873836996635600,1.0796357421875,0.5330593585968018,0.495008260011673,-0.06151237711310387,0.6199157238006592,0.7737115621566772,0.1306716799736023,0.030413925647735596,-0.048507094383239746,-0.1293136030435562,0.5554922734132692,-0.7476113848701873,0.08008156445123053,0.355095132517961
1729873837006665700,1.089665771484375,0.059165842831134796,0.5808160901069641,-0.22247008979320526,0.6181049346923828,0.7750514149665833,0.131307914853096,0.020521223545074463,-0.255993127822876,-0.17404770851135254,0.5568007820219583,-0.7476597714045524,0.08160159402582125,0.3525890497842271
1729873837016696600,1.099696533203125,-0.5564588904380798,0.609130322933197,-0.17411108314990997,0.6156177520751953,0.7760162353515625,0.13716275990009308,-0.06776612997055054,-0.2688294053077698,0.0991196483373642,0.5559164967689862,-0.7495699685500572,0.08201367670055555,0.3498220669473741
1729873837026726700,1.1097265625,-0.8045424818992615,0.5499080419540405,0.002818943001329899,0.6141623258590698,0.775521993637085,0.14618630707263947,-0.023921847343444824,-0.21659249067306519,0.1573568433523178,0.553180709232566,-0.7525650533844047,0.08209135874119435,0.3477039178777979
1729873837036757800,1.1197578125,-0.8600466847419739,0.6004477739334106,0.11376277357339859,0.6137933135032654,0.773864209651947,0.1561797708272934,0.0011664032936096191,-0.18499702215194702,0.08010266721248627,0.5496722510482553,-0.7558392954670905,0.08244297587162583,0.3460789204655244
1729873837046787800,1.129787841796875,-0.7592676281929016,0.7396709322929382,0.11364559084177017,0.613659143447876,0.7717746496200562,0.16669218242168427,-0.023174524307250977,-0.12301677465438843,-0.012029066681861877,0.5460571761823094,-0.7592106955201712,0.08333791960405887,0.34420262164624316
1729873837056818700,1.139818603515625,-0.611110508441925,0.8488385081291199,0.10297643393278122,0.6130728721618652,0.7699679732322693,0.1768934279680252,-0.050160765647888184,-0.07190883159637451,-0.011182904243469238,0.5429469067493896,-0.7624059952733077,0.08475736799914364,0.34170465144759393
1729873837066848800,1.149848876953125,-0.6609119176864624,0.813774049282074,0.19358517229557037,0.6126399040222168,0.7679558992385864,0.18685919046401978,-0.02307075262069702,-0.039516448974609375,0.004058837890625,0.5399554282530982,-0.7654700414466579,0.0865171210349221,0.33914400665488353
1729873837076879600,1.159879638671875,-0.5494715571403503,0.804915189743042,0.3349441587924957,0.6131576299667358,0.7650806903839111,0.19669707119464874,0.04957747459411621,-0.026738226413726807,-0.005855292081832886,0.5366970114173377,-0.7684346314758472,0.08863832341879488,0.33705781466203977
1729873837086910700,1.16991064453125,-0.33687862753868103,0.8701882362365723,0.3614862859249115,0.6142163872718811,0.7620350122451782,0.20503996312618256,0.08745914697647095,-0.1324571967124939,-0.07590469717979431,0.5340939560010415,-0.770805316793058,0.09153766875580593,0.33499831512588873
1729873837096940800,1.17994091796875,-0.6573507189750671,0.9983544945716858,0.3562965989112854,0.6149505972862244,0.7588719725608826,0.21435850858688354,0.08175063133239746,-0.20397067070007324,-0.05716237425804138,0.5312588433611813,-0.7734504769540571,0.09462352756014558,0.33254320715252067
1729873837106971600,1.1899716796875,-1.0458800792694092,1.0188499689102173,0.42553770542144775,0.6156406998634338,0.754540741443634,0.22727787494659424,0.10875517129898071,-0.1554194688796997,0.1007404625415802,0.5267299793735286,-0.7772729754566772,0.09739436241653242,0.33002539804985015
1729873837117001700,1.200001708984375,-1.0732523202896118,0.9474919438362122,0.48708683252334595,0.6168001294136047,0.7491629719734192,0.2414807826280594,0.16832572221755981,-0.11764729022979736,0.14584842324256897,0.5212704031981035,-0.781499496858206,0.09999464515325687,0.3279283355039501
1729873837127032800,1.21003271484375,-0.8748171925544739,0.9063684344291687,0.5045827031135559,0.6182540655136108,0.7436017394065857,0.25459545850753784,0.1996171474456787,-0.09920775890350342,0.08810177445411682,0.5161033976062196,-0.7853270477097987,0.10275779123740508,0.3260977724973427
1729873837137063000,1.22006298828125,-0.6772692799568176,0.9039967656135559,0.4489263892173767,0.6194701194763184,0.7386049032211304,0.2659323215484619,0.1928774118423462,-0.028720200061798096,0.08770549297332764,0.5118067230440682,-0.7885348337358141,0.10573067588184143,0.3241725894554403
1729873837147093800,1.23009375,-0.6368144750595093,0.8178565502166748,0.4026734232902527,0.6202099323272705,0.7342344522476196,0.27611517906188965,0.1630542278289795,0.07187211513519287,0.15566286444664001,0.5080977541093296,-0.7913717290019092,0.10857430543803952,0.32214771935322417
1729873837157123800,1.240123779296875,-0.5923483967781067,0.6856812834739685,0.4141947627067566,0.6210875511169434,0.7299197912216187,0.28542494773864746,0.14540719985961914,0.13078266382217407,0.1897338330745697,0.5045166786110605,-0.7939607100641558,0.11108042399294293,0.32054716308673986
1729873837167154700,1.25015478515625,-0.5471715927124023,0.5667601823806763,0.35432133078575134,0.6221591830253601,0.7258224487304688,0.2934281826019287,0.11989104747772217,0.0744096040725708,0.13467252254486084,0.501285800309498,-0.7961605414451813,0.11332469230096542,0.31937220227036817
1729873837177185800,1.260185791015625,-0.738490879535675,0.5682234764099121,0.2203288972377777,0.6226052641868591,0.7221343517303467,0.30147141218185425,0.04843062162399292,-0.025829970836639404,0.09331941604614258,0.4979910112627266,-0.7984597181976729,0.11488157891245224,0.31822848737228243
1729873837187216000,1.2702158203125,-1.0366500616073608,0.5555771589279175,0.09285562485456467,0.6219571828842163,0.7184543609619141,0.31143638491630554,-0.01642739772796631,-0.06456947326660156,0.07726606726646423,0.49385849896363976,-0.801485486990667,0.11549550558878022,0.31683688962566453
1729873837197246700,1.280246826171875,-1.237979531288147,0.47106173634529114,0.10636131465435028,0.6209662556648254,0.714222252368927,0.32293573021888733,-0.04903632402420044,-0.05713307857513428,0.11166518926620483,0.4887753733196172,-0.8050907204010501,0.11531174384931049,0.3156434051246532
1729873837207276800,1.29027685546875,-1.1596496105194092,0.42765194177627563,0.16775090992450714,0.6204884052276611,0.7093594074249268,0.3343706429004669,-0.03510010242462158,-0.023537814617156982,0.03853905200958252,0.4833882023824891,-0.8086728218649726,0.11503733454642685,0.31488198317437305
1729873837217308000,1.300307861328125,-0.9894076585769653,0.4758409857749939,0.1915491819381714,0.6202914714813232,0.704534113407135,0.34477633237838745,-0.024771273136138916,0.015253663063049316,-0.07143023610115051,0.4784701642782405,-0.8118617923406868,0.11518940571598783,0.3141311069849505
1729873837227337700,1.310337646484375,-0.8501842617988586,0.5291726589202881,0.17145830392837524,0.6197904944419861,0.7001651525497437,0.35444140434265137,-0.02675759792327881,0.08576935529708862,-0.10938513278961182,0.47412722943331315,-0.8147599280350467,0.1157020378721168,0.31302197339893056
1729873837237368800,1.320368896484375,-0.6165462732315063,0.489011287689209,0.19367092847824097,0.6192290186882019,0.6963623762130737,0.36281535029411316,-0.018765151500701904,0.16459953784942627,-0.08995762467384338,0.47050896280440896,-0.8172117101650058,0.11650189987347963,0.3117910846624691
1729873837247399000,1.33039892578125,-0.2932651937007904,0.38625508546829224,0.2019839882850647,0.6190330386161804,0.6934319734573364,0.3687143325805664,0.00599747896194458,0.19932925701141357,-0.10012903809547424,0.4680699150163376,-0.8188480201273821,0.11766514570475821,0.3107304346724147
1729873837257429800,1.3404296875,-0.1153232753276825,0.2539996802806854,0.13687555491924286,0.6190674901008606,0.6916376948356628,0.37201228737831116,0.00022584199905395508,0.19190728664398193,-0.10750102996826172,0.4668274253731028,-0.8196853576603624,0.11883627336078628,0.3099453970740295
1729873837267460900,1.3504609375,-0.1810985505580902,0.17065179347991943,0.0429820753633976,0.6188960075378418,0.6905707120895386,0.3742731809616089,-0.04440242052078247,0.17467904090881348,-0.06926509737968445,0.4659954326769052,-0.8202819114306263,0.11947461519647748,0.309373353441227
1729873837277491000,1.360490966796875,-0.3064069151878357,0.10283684730529785,-0.010374889709055424,0.6184749007225037,0.6895713210105896,0.37680286169052124,-0.09622758626937866,0.1380043625831604,-0.009584695100784302,0.4648932226629881,-0.8210525171047978,0.11947463864475424,0.30898692749169593
1729873837287521800,1.370521728515625,-0.3533555269241333,0.02634579874575138,-0.03059786930680275,0.6180956363677979,0.6884016394615173,0.37955373525619507,-0.13750475645065308,0.07989364862442017,-0.004279077053070068,0.46348773511165436,-0.8219542971055239,0.11902942444060544,0.3088725672408511
1729873837297552000,1.3805517578125,-0.2591826915740967,-0.023687807843089104,-0.07682528346776962,0.6177409291267395,0.6875301003456116,0.38170480728149414,-0.175464928150177,0.030075430870056152,-0.030462652444839478,0.462278217521044,-0.8227099109388131,0.11832498382877424,0.30894413055594283
1729873837307583000,1.3905830078125,-0.17721061408519745,-0.05110105872154236,-0.12320476770401001,0.6171951293945312,0.687333345413208,0.3829399049282074,-0.20787811279296875,0.027128934860229492,-0.05376201868057251,0.4615737331629394,-0.8232051808555122,0.11748695521671686,0.3089979081343164
1729873837317612800,1.40061279296875,-0.07246395200490952,-0.037038449198007584,-0.15857073664665222,0.6163883805274963,0.6876887083053589,0.3836009204387665,-0.21323591470718384,0.09429371356964111,-0.07421368360519409,0.4612582810938264,-0.8235339098581878,0.11658627890472872,0.3089342196280056
1729873837327644000,1.410643798828125,0.1941291242837906,-0.07369846105575562,-0.2107846736907959,0.6153115630149841,0.689032256603241,0.382918119430542,-0.19276517629623413,0.15883761644363403,-0.08405941724777222,0.461794913903754,-0.8234385321124457,0.11579307975610738,0.30868500247605213
1729873837337673700,1.420673828125,0.4582151770591736,-0.17468222975730896,-0.2833361029624939,0.6140793561935425,0.6918002963066101,0.3798936903476715,-0.1537063717842102,0.16318023204803467,-0.12035679817199707,0.4636036228768383,-0.8226288383526004,0.11501580613878165,0.3084233519591647
1729873837347704800,1.430704833984375,0.6458801031112671,-0.30649855732917786,-0.3623470366001129,0.6127505898475647,0.6959007978439331,0.3745115399360657,-0.11125516891479492,0.0972510576248169,-0.1417997181415558,0.46655075618965364,-0.8211336074538009,0.11399723351021815,0.3083417701089953
1729873837357736000,1.44073583984375,0.5377060770988464,-0.38974207639694214,-0.34840884804725647,0.6115063428878784,0.7004312872886658,0.3680431842803955,-0.0808057188987732,-0.024528086185455322,-0.07687494158744812,0.4698474295876839,-0.8193514053050484,0.11262711937796856,0.30858019454019897
1729873837367765800,1.450765869140625,0.11556386947631836,-0.43848109245300293,-0.2098456472158432,0.6110442876815796,0.7033882141113281,0.3631388247013092,-0.059057652950286865,-0.1249275803565979,0.08311980962753296,0.47189261976036845,-0.8180749415368983,0.11100809986555599,0.30943161941574715
1729873837377796900,1.460796875,-0.2617861330509186,-0.48942670226097107,-0.0794903114438057,0.6117537021636963,0.7039281129837036,0.3608919680118561,-0.033781230449676514,-0.19620710611343384,0.17298269271850586,0.47201631786353143,-0.8176300257770497,0.10921136947039718,0.31105425905901235
1729873837387826700,1.47082666015625,-0.4296499788761139,-0.5155349969863892,-0.06763950735330582,0.6131025552749634,0.7030414938926697,0.3603307604789734,-0.022221148014068604,-0.2378314733505249,0.1395930051803589,0.4709243564618034,-0.8177261283863749,0.10718844726783962,0.3131532878923118
1729873837397857800,1.48085791015625,-0.46871617436408997,-0.5421613454818726,-0.10651341080665588,0.6143970489501953,0.7019240260124207,0.3603043556213379,-0.010866105556488037,-0.20824110507965088,0.08972322940826416,0.46947032998774624,-0.8180176884966964,0.10487725093831567,0.3153498696776578
1729873837407887600,1.4908876953125,-0.4478667974472046,-0.591064989566803,-0.14477716386318207,0.6155548095703125,0.7010334730148315,0.360061377286911,0.016647279262542725,-0.10937398672103882,0.06897002458572388,0.4680673718239748,-0.8182710375470471,0.10228980361932363,0.3176195745772565
1729873837417918700,1.500918701171875,-0.36502131819725037,-0.6189776659011841,-0.15379542112350464,0.6166862845420837,0.7004747986793518,0.3592117726802826,0.05042797327041626,-0.015996038913726807,0.08547517657279968,0.466918934740593,-0.8183453606595738,0.0995828987362846,0.3199700587324355
1729873837427948800,1.51094873046875,-0.22493799030780792,-0.6115623712539673,-0.1484169065952301,0.6178299188613892,0.7003559470176697,0.35747405886650085,0.06864774227142334,-0.003990590572357178,0.11174902319908142,0.46625598947924646,-0.8181197356459087,0.09704190774489073,0.3222860756876696
1729873837437979600,1.520979736328125,-0.19977711141109467,-0.5803091526031494,-0.12007609009742737,0.6190059781074524,0.7004790306091309,0.35519179701805115,0.08051806688308716,-0.058801114559173584,0.1182885468006134,0.46593324180295714,-0.8176902571483634,0.0947551608872287,0.3245158046274892
1729873837448009700,1.531009765625,-0.2559386193752289,-0.5573899745941162,-0.06436008960008621,0.620373547077179,0.7002496719360352,0.3532527685165405,0.0894196629524231,-0.1158379316329956,0.1353643238544464,0.4654253834671839,-0.8173344951814925,0.09268606643085721,0.326730773840002
1729873837458040800,1.541040771484375,-0.3508085012435913,-0.5615164637565613,-0.009515487588942051,0.6221140027046204,0.6993818879127502,0.35190820693969727,0.09991669654846191,-0.16033458709716797,0.13231432437896729,0.464487268834157,-0.8171416701713434,0.09073911756709543,0.329085941683134
1729873837468071700,1.55107177734375,-0.37283310294151306,-0.5386319160461426,0.03884698450565338,0.6241666078567505,0.6979914903640747,0.35103267431259155,0.10695827007293701,-0.1636744737625122,0.07665595412254333,0.46320821622917835,-0.8170741817036532,0.08891637152940828,0.33154458125732006
1729873837478101800,1.561101806640625,-0.36881986260414124,-0.5118085741996765,0.050114817917346954,0.6263392567634583,0.6963796615600586,0.3503638207912445,0.1074560284614563,-0.11582845449447632,0.043450355529785156,0.4618310016974461,-0.8170462005448272,0.08727779980802958,0.33396155532999855
1729873837488133400,1.57113330078125,-0.2838154733181,-0.4824104905128479,0.035923898220062256,0.6283907294273376,0.6949314475059509,0.3495648503303528,0.09421980381011963,-0.03201335668563843,0.051436156034469604,0.4606035390685325,-0.8169642150475964,0.08574320084687344,0.33624696153385597
1729873837498163200,1.5811630859375,-0.16445033252239227,-0.4504442811012268,0.019182205200195312,0.6302245855331421,0.6939632296562195,0.34818392992019653,0.07080996036529541,0.030920803546905518,0.049353331327438354,0.45982946331877733,-0.8166820464503377,0.08439433494299566,0.3383266556905984
1729873837508194300,1.5911943359375,-0.04771466553211212,-0.3905247747898102,-0.005630468018352985,0.6317461729049683,0.6935631632804871,0.346218079328537,0.062132060527801514,0.07436591386795044,0.004581540822982788,0.45957647481757563,-0.8161952553123583,0.08327269518504829,0.3401182517228207
1729873837518224100,1.60122412109375,0.04975543171167374,-0.3161461353302002,-0.029606640338897705,0.6328564882278442,0.6936622858047485,0.3439847528934479,0.05340760946273804,0.11108624935150146,-0.013402968645095825,0.4597526723160812,-0.8155990816682991,0.08240460371442991,0.3415188912121656
1729873837528255200,1.611255126953125,0.0514603853225708,-0.29797831177711487,-0.060305699706077576,0.6335930228233337,0.6941523551940918,0.3416324853897095,0.043027520179748535,0.12768608331680298,0.004330158233642578,0.46020405777984985,-0.8149554989773847,0.0816319593121305,0.3426311802029749
1729873837538285300,1.621285400390625,-0.08159640431404114,-0.3244626522064209,-0.06049744412302971,0.6342242360115051,0.6944891810417175,0.3397713899612427,0.03568243980407715,0.13293391466140747,0.020702332258224487,0.4603742625919469,-0.8144827364459254,0.08064473329759977,0.34375847564024714
1729873837548316200,1.631316162109375,-0.10418027639389038,-0.3384799361228943,-0.032498832792043686,0.6350274682044983,0.69441819190979,0.33841297030448914,0.037213683128356934,0.11716616153717041,-0.0018651187419891357,0.46014695203993466,-0.8141779536360557,0.07950308989001471,0.34504818015653693
1729873837558347300,1.64134716796875,0.04592866823077202,-0.3327300250530243,0.006944445893168449,0.636095404624939,0.6943718194961548,0.3364982604980469,0.03283482789993286,0.06403589248657227,-0.07680878043174744,0.46016063882845326,-0.8136755148462306,0.0786211201391862,0.3464149254777326
1729873837568377300,1.65137744140625,0.2338027060031891,-0.28565651178359985,0.017320919781923294,0.6372604370117188,0.6947280764579773,0.3335452079772949,0.017723143100738525,0.01990211009979248,-0.16324174404144287,0.46081609529342094,-0.8128075507164897,0.07820798337116477,0.3476723759429889
1729873837578408200,1.661408203125,0.30842533707618713,-0.27407750487327576,0.00036830268800258636,0.6382486820220947,0.6956230401992798,0.3297693729400635,-0.014545559883117676,0.000010013580322265625,-0.14571771025657654,0.46207635543713027,-0.8116555394886781,0.0781023373154625,0.3487133243688748
1729873837588438300,1.671438232421875,0.26085329055786133,-0.26022428274154663,-0.018357980996370316,0.6390646696090698,0.6966099739074707,0.3260849714279175,-0.022716283798217773,0.022246956825256348,-0.13249659538269043,0.4633406905798688,-0.810536647869493,0.07792831318523984,0.34967569571020535
1729873837598469400,1.681469482421875,0.2887323796749115,-0.25338220596313477,0.0065713366493582726,0.6398334503173828,0.6975359320640564,0.32257819175720215,-0.010622084140777588,0.03889888525009155,-0.10611698031425476,0.46454005956047717,-0.8094701009186911,0.07776412087671515,0.3505900529573382
1729873837608499200,1.691499267578125,0.36367881298065186,-0.22458916902542114,0.06955455988645554,0.6408982872962952,0.6983253359794617,0.3187342882156372,0.009278833866119385,-0.00020515918731689453,-0.08648014068603516,0.46588903559986683,-0.8082650846117428,0.07794035720914431,0.3515400830619763
1729873837618530300,1.7015302734375,0.33168256282806396,-0.17012380063533783,0.09549401700496674,0.6421326398849487,0.6988922357559204,0.3149851858615875,0.021823108196258545,-0.055139124393463135,-0.055585622787475586,0.4672533526828491,-0.8070533504460761,0.07846966262256427,0.35239443083452104
1729873837628560400,1.711560302734375,0.13163791596889496,-0.20020286738872528,0.1309494823217392,0.6434810757637024,0.6989279389381409,0.31214094161987305,0.007504642009735107,-0.08967500925064087,0.08318385481834412,0.468098223142092,-0.8061274991582705,0.07892358072673931,0.3532896990284844
1729873837638591200,1.72159130859375,-0.09075833857059479,-0.1993018090724945,0.21701379120349884,0.6453609466552734,0.6978152990341187,0.31074705719947815,0.01719111204147339,-0.0882112979888916,0.09710529446601868,0.4679022187281761,-0.8056711393801953,0.07916780013430712,0.3545338291499116
1729873837648622300,1.731622314453125,-0.1008882075548172,-0.11126357316970825,0.2439226508140564,0.6475169658660889,0.6959348320960999,0.3104788064956665,0.03882354497909546,-0.08556795120239258,0.020270854234695435,0.4671018577993676,-0.8055491220753334,0.07956143732376783,0.3557761632790493
1729873837658652400,1.74165234375,-0.03497670218348503,-0.032516881823539734,0.1751805990934372,0.6492019295692444,0.6943431496620178,0.3105239272117615,0.03610110282897949,-0.0776132345199585,-0.019981086254119873,0.46647601834154423,-0.8055051632209629,0.08014605830919211,0.35656473596501564
1729873837668683300,1.751683349609375,-0.007883829064667225,-0.07238706201314926,0.1538500040769577,0.6504420638084412,0.6932453513145447,0.3103809356689453,0.024942517280578613,-0.031135916709899902,0.03275883197784424,0.4661205817241613,-0.8054121568828068,0.08063331235349357,0.3571291901238749
1729873837678713300,1.76171337890625,0.04898291453719139,-0.08994342386722565,0.205830380320549,0.6519738435745239,0.6921126246452332,0.3096938133239746,0.03375619649887085,0.02389073371887207,0.037336915731430054,0.46589488114431066,-0.805143540529988,0.0811836424757578,0.35790372235252843
1729873837688744200,1.771744140625,0.07581273466348648,-0.0014783232472836971,0.19912081956863403,0.6536035537719727,0.6909460425376892,0.3088625967502594,0.017935752868652344,0.02662903070449829,0.02702924609184265,0.4658163163561676,-0.8047993543071632,0.08203233090416337,0.3585860093771172
1729873837698774300,1.781774169921875,0.029354549944400787,0.12565965950489044,0.13649311661720276,0.6545847654342651,0.6899911165237427,0.3089190423488617,-0.015043199062347412,-0.008487880229949951,0.009516656398773193,0.4657027534441061,-0.8047196731253995,0.08298054077406236,0.35869399650298617
1729873837708805400,1.791805419921875,-0.036967478692531586,0.12332326173782349,0.1142868772149086,0.6549890637397766,0.689193606376648,0.3098415434360504,-0.032781362533569336,-0.035507023334503174,0.04742789268493652,0.46542152466944503,-0.8049224358027051,0.08378928942148588,0.3584161535554349
1729873837718835500,1.80183544921875,-0.13067473471164703,-0.01090261060744524,0.1881754994392395,0.6558356881141663,0.6879515051841736,0.3108091950416565,-0.01356273889541626,-0.029031217098236084,0.058224648237228394,0.46478666780480926,-0.8051620739792994,0.08437200679510613,0.35856491907023585
1729873837728866300,1.8118662109375,-0.11297322809696198,-0.05312356725335121,0.20968078076839447,0.6573936939239502,0.6861836314201355,0.3114260733127594,0.01857084035873413,-0.0022235512733459473,-0.06357738375663757,0.46391251724271065,-0.8052995601487171,0.08488615277696941,0.359266414186259
1729873837738897400,1.8218974609375,-0.10778439790010452,-0.021226301789283752,0.15076181292533875,0.6588029265403748,0.684628427028656,0.31186994910240173,-0.0019119977951049805,-0.01037299633026123,-0.10435032844543457,0.4631728052514109,-0.8053879798497436,0.08535325561971001,0.35991121491030914
1729873837748927200,1.83192724609375,-0.1463371068239212,0.024604570120573044,0.10993874073028564,0.6596575975418091,0.6833956241607666,0.3127656877040863,-0.03297907114028931,-0.0171358585357666,-0.07976391911506653,0.46243124116336703,-0.8056350089531519,0.08564504905246165,0.3602423372335183
1729873837758958300,1.841958251953125,-0.18511547148227692,0.0035559036768972874,0.1421201229095459,0.6603810787200928,0.6820693612098694,0.3141311705112457,-0.04343771934509277,-0.010484278202056885,-0.03347614407539368,0.4615042428116787,-0.80603494193074,0.0858676772261102,0.3604834414440707
1729873837768988400,1.851988525390625,-0.14394700527191162,-0.03335870802402496,0.17525996267795563,0.6614540219306946,0.6805238127708435,0.31522414088249207,-0.03094547986984253,0.01039421558380127,-0.0345386266708374,0.46053976237016897,-0.8063450861345228,0.08613748267993285,0.36095869175326906
1729873837779019300,1.862019287109375,-0.0011110114865005016,0.004745537880808115,0.11963344365358353,0.6624757647514343,0.6793105006217957,0.31569474935531616,-0.02415478229522705,0.040904343128204346,-0.10208693146705627,0.4599492764012007,-0.8064490430092061,0.08652928873612625,0.3613852583569866
1729873837789049300,1.87204931640625,0.31022292375564575,0.09218244254589081,0.022823277860879898,0.6627126932144165,0.6792682409286499,0.3152887225151062,-0.026649951934814453,0.06468933820724487,-0.1331901252269745,0.4603110608083549,-0.806252233707213,0.08718768742718605,0.36120567887733107
1729873837799080400,1.88208056640625,0.5883193016052246,0.1538110226392746,-0.028648968786001205,0.6621648073196411,0.6806989312171936,0.3133481740951538,-0.04041486978530884,0.08826780319213867,-0.028786897659301758,0.46201557240651764,-0.8055300125750436,0.08829206823186056,0.3603715559531876
1729873837809110500,1.892110595703125,0.470683217048645,0.1537497639656067,0.016072962433099747,0.6616690754890442,0.6825631260871887,0.31032541394233704,-0.06814789772033691,0.13057774305343628,0.18657717108726501,0.4642981788205325,-0.8044447412960491,0.08961788883389953,0.35953384483314393
1729873837819141400,1.902141357421875,0.08195863664150238,0.1762569397687912,0.09101378172636032,0.661595344543457,0.6830838918685913,0.30933481454849243,-0.06877613067626953,0.1498934030532837,0.25577446818351746,0.4652913924368319,-0.8040144416894852,0.0907093803508915,0.3589380647825292
1729873837829172500,1.91217236328125,0.05938029661774635,0.22443534433841705,0.08384828269481659,0.6616347432136536,0.6825768351554871,0.31036871671676636,-0.039167582988739014,0.05201190710067749,0.1040295660495758,0.46520134675349933,-0.8042295670172175,0.09164698019830499,0.35833433674308185
1729873837839202300,1.922202392578125,0.09834606945514679,0.1938864290714264,0.022075727581977844,0.6613038778305054,0.6825471520423889,0.3111379146575928,-0.019915878772735596,-0.11388260126113892,-0.02616468071937561,0.46539861037155794,-0.8043690313102646,0.09251716145220851,0.3575405837457896
1729873837849233400,1.9322333984375,-0.0975043922662735,0.09274676442146301,0.07979708164930344,0.6611563563346863,0.6822481155395508,0.3121062219142914,0.011512219905853271,-0.1413087248802185,-0.03677651286125183,0.4652569745807696,-0.8046078189051606,0.0930557106074223,0.3570476950523484
1729873837859263500,1.942263427734375,-0.21321767568588257,-0.06209154427051544,0.1404399275779724,0.6618896722793579,0.6809679865837097,0.3133453130722046,0.04674386978149414,-0.07613998651504517,0.02813127636909485,0.46438209003352837,-0.804967491943795,0.0932737732775491,0.3573189898636521
1729873837869294300,1.95229443359375,-0.19736182689666748,-0.1380571573972702,0.15462684631347656,0.6632809638977051,0.6792683005332947,0.3140909969806671,0.021609842777252197,-0.018776357173919678,0.044292300939559937,0.46327603754135965,-0.805204199535191,0.09322924490157425,0.35823160625036704
1729873837879324400,1.962324462890625,0.027992678806185722,-0.01991932839155197,0.09405484795570374,0.6644423007965088,0.6781193614006042,0.31411901116371155,-0.03253006935119629,0.04273635149002075,-0.0433516800403595,0.4627139297142882,-0.8051960409436015,0.09337474663473869,0.35893787187197224
1729873837889355500,1.97235546875,0.20680849254131317,0.165579155087471,0.0037672948092222214,0.6645514369010925,0.6781879663467407,0.31374040246009827,-0.08766227960586548,0.10409975051879883,-0.08887144923210144,0.4631036648320645,-0.8050087183796292,0.09397431441184564,0.35869905463356705
1729873837899385000,1.982385009765625,0.29711708426475525,0.2611387073993683,-0.09453078359365463,0.6635498404502869,0.67928147315979,0.31349462270736694,-0.09404581785202026,0.14632606506347656,-0.114153653383255,0.4640971325538977,-0.8048406637530475,0.0947566269215338,0.35758463252096667
1729873837909416400,1.99241650390625,0.4400267004966736,0.26826170086860657,-0.12105640023946762,0.6619315147399902,0.6811636686325073,0.3128300607204437,-0.05440288782119751,0.0973549485206604,-0.13158613443374634,0.4656215522962211,-0.8045381892957952,0.09556850017885951,0.3560639002691727
1729873837919446300,2.0024462890625,0.49470245838165283,0.16099277138710022,-0.0615704320371151,0.6605669856071472,0.6833392381668091,0.31096401810646057,0.007767975330352783,-0.026326417922973633,-0.05763751268386841,0.4676634675395207,-0.803837475922996,0.09657804740999457,0.35469540777124536
1729873837929477000,2.01247705078125,0.2033499926328659,-0.00233223894611001,0.05959273874759674,0.6603273153305054,0.6844526529312134,0.30901890993118286,0.056637465953826904,-0.0982709527015686,0.057482004165649414,0.4690646839235977,-0.8031347027087467,0.09738636073856456,0.3542160056046648
1729873837939508500,2.022508544921875,-0.007355858106166124,-0.051378343254327774,0.09994735568761826,0.6610370874404907,0.6841386556625366,0.3081952929496765,0.07786977291107178,-0.10909593105316162,0.09813103079795837,0.4692802392105159,-0.8028248253875061,0.09782611221352933,0.35451157663804067
1729873837949538300,2.032538330078125,-0.15452106297016144,-0.02602345496416092,0.05569574236869812,0.6617215275764465,0.6833418011665344,0.3084941506385803,0.03809231519699097,-0.11260205507278442,0.15361830592155457,0.4688170408494002,-0.8029087482798081,0.09790104689881628,0.3549134244746775
1729873837959569200,2.042569091796875,-0.23451043665409088,0.01669684611260891,0.022371873259544373,0.6619964241981506,0.6824594736099243,0.3098549246788025,0.0010437965393066406,-0.05047088861465454,0.16188585758209229,0.4679377345715801,-0.8033578575159163,0.09769143062411927,0.3551153499260722
1729873837969599200,2.05259912109375,-0.24175477027893066,0.050304874777793884,-0.0004226565361022949,0.6619892120361328,0.6816131472587585,0.31172746419906616,-0.009386003017425537,0.04443061351776123,0.10972034931182861,0.4669154701872429,-0.8039783060117931,0.0973787370206799,0.3551426332441762
1729873837979630300,2.06263037109375,-0.04383983463048935,0.12024588137865067,-0.04984027519822121,0.6613339185714722,0.6816275119781494,0.31308430433273315,-0.0032222867012023926,0.10085850954055786,-0.010609149932861328,0.4664782411140236,-0.804436819304957,0.09707496487597202,0.3547619903513091
1729873837989660200,2.07266015625,0.2800633907318115,0.15330688655376434,-0.12112750113010406,0.66019207239151,0.6827988624572754,0.31294170022010803,0.009668827056884766,0.07321316003799438,-0.1522970199584961,0.46718555474022827,-0.8043797562272267,0.09718054210521976,0.3539307008960443
1729873837999691300,2.082691162109375,0.5377916097640991,0.07144425064325333,-0.1146826520562172,0.6589556932449341,0.6849516034126282,0.31083568930625916,0.015971064567565918,0.006012141704559326,-0.16929510235786438,0.4690481689270451,-0.8036629054407892,0.09769227795547046,0.3529532996973282
1729873838009721300,2.092721435546875,0.6001508831977844,-0.04345490783452988,0.005675183609127998,0.6585239768028259,0.6871345043182373,0.3069077730178833,0.018096566200256348,-0.050736188888549805,-0.10204318165779114,0.47149060864712117,-0.802338409132384,0.0985239022378097,0.3524808016433277
1729873838019752200,2.102752197265625,0.4051624536514282,-0.07602349668741226,0.07432987540960312,0.6590927243232727,0.688381016254425,0.3028671145439148,0.0012009143829345703,-0.09083163738250732,-0.027064472436904907,0.47351383891756355,-0.800961693526296,0.09946819606086241,0.3526345708647124
1729873838029783300,2.112783203125,0.18109607696533203,0.06821383535861969,0.0225289985537529,0.6595288515090942,0.6888750195503235,0.3007880449295044,-0.03753465414047241,-0.11421364545822144,0.019570380449295044,0.47457628508021504,-0.8002242666257363,0.10017555200771476,0.3526804732032913
1729873838039813400,2.1228134765625,-0.015543213114142418,0.17019985616207123,-0.06566770374774933,0.6589558720588684,0.6892998814582825,0.30107051134109497,-0.05412781238555908,-0.13297957181930542,0.08084180951118469,0.47489490157213193,-0.8002675769619065,0.10053390004670465,0.35205086285443654
1729873838049844200,2.13284423828125,-0.23168322443962097,0.08351076394319534,-0.027782108634710312,0.6581608653068542,0.689260721206665,0.30289262533187866,-0.004062354564666748,-0.08626395463943481,0.14525800943374634,0.4743980194414833,-0.8008504199268388,0.10042372264786731,0.35142594009301564
1729873838059874300,2.142874267578125,-0.21393059194087982,-0.1008143350481987,0.057095497846603394,0.65829998254776,0.6884344220161438,0.3044654130935669,0.07795184850692749,-0.0199316143989563,0.13889405131340027,0.4734275205003652,-0.8013871432893819,0.10005671368506996,0.35161582558297133
1729873838069905400,2.152905517578125,-0.13978420197963715,-0.1460830122232437,0.11905153840780258,0.6593481302261353,0.6872828006744385,0.3047991991043091,0.10365241765975952,-0.0048487186431884766,0.05146312713623047,0.4726171871363011,-0.801524487201594,0.09979023818564701,0.3524676941044677
1729873838079935200,2.162935302734375,0.04836199805140495,-0.08692099899053574,0.1103438064455986,0.6605362892150879,0.6863133907318115,0.3044109344482422,0.06482088565826416,-0.002704322338104248,-0.016721606254577637,0.47224123132143,-0.8013887119697285,0.09990793285754872,0.3532461630283741
1729873838089966300,2.17296630859375,0.24832038581371307,-0.06715741008520126,0.027118690311908722,0.6612429618835449,0.686324417591095,0.30284741520881653,-0.003680706024169922,-0.013076186180114746,-0.07494205236434937,0.47277325770491774,-0.8008551570999062,0.10027322025593885,0.35364070097944056
1729873838099996400,2.182996337890625,0.29299384355545044,0.02552911266684532,-0.03678998351097107,0.661277174949646,0.6872124075889587,0.30075228214263916,-0.04235011339187622,0.012616753578186035,-0.12474203109741211,0.47391861281815856,-0.8001496786464515,0.10068085039320486,0.3535889310467512
1729873838110027300,2.19302734375,0.265266090631485,0.13489848375320435,-0.10471843928098679,0.6605455875396729,0.6885006427764893,0.2994103729724884,-0.031974971294403076,0.05910372734069824,-0.08645859360694885,0.47511155639823816,-0.7996762543152474,0.1011092473457658,0.3529360921917756
1729873838120058400,2.203058349609375,0.16746482253074646,0.0819268748164177,-0.1409834921360016,0.6592935919761658,0.6900076270103455,0.29869958758354187,-0.011680066585540771,0.02865082025527954,0.0631779134273529,0.4761530883514689,-0.7994341457567453,0.10126618230369484,0.3520347379285392
1729873838130088400,2.21308837890625,0.03555845096707344,-0.1003212258219719,-0.0703471451997757,0.6585476398468018,0.6910637021064758,0.2979026138782501,0.023749113082885742,-0.06433945894241333,0.14484652876853943,0.47678598483721973,-0.7992191090427181,0.1009956897542529,0.35174396802790026
1729873838140119300,2.223119384765625,-0.20620670914649963,-0.21173009276390076,0.055305056273937225,0.6589983701705933,0.6908811926841736,0.2973291575908661,0.06417673826217651,-0.1460050344467163,0.07170474529266357,0.47658744579444623,-0.7991073078566908,0.10045937578743887,0.352420150633412
1729873838150149400,2.2331494140625,-0.4237861633300781,-0.26438185572624207,0.13514450192451477,0.6603941321372986,0.6892260313034058,0.2980731129646301,0.06272000074386597,-0.1799638271331787,0.03615561127662659,0.4751918319432358,-0.799434881155381,0.09970167423548684,0.35377446421164466
1729873838160180200,2.24318017578125,-0.40704146027565,-0.3833710849285126,0.1508808583021164,0.6623882055282593,0.686977207660675,0.29883846640586853,0.045146644115448,-0.18642789125442505,-0.015528470277786255,0.4733950205017764,-0.7997893163699317,0.09877386270398023,0.35563745703850613
1729873838170210300,2.253210205078125,-0.363145112991333,-0.3644956648349762,0.1613694429397583,0.6646266579627991,0.6847779750823975,0.2989160418510437,0.03010612726211548,-0.10758370161056519,-0.11423885822296143,0.4717530311310838,-0.7999352502906371,0.09778351697568433,0.3577585115376294
1729873838180241400,2.263241455078125,-0.10147363692522049,-0.2160501629114151,0.11697054654359818,0.6665241718292236,0.6830134987831116,0.2987283766269684,0.016627192497253418,0.05239921808242798,-0.10263749957084656,0.47060018946907367,-0.7999434321313299,0.09723526255602517,0.359404351929665
1729873838190271500,2.273271484375,0.30155372619628906,-0.09645266830921173,-0.02356046810746193,0.6673102974891663,0.6830193400382996,0.2969539165496826,-0.00044018030166625977,0.16613227128982544,-0.07298532128334045,0.4710255629054466,-0.7993856801884132,0.09725994186324192,0.360080544049984
1729873838200302300,2.28330224609375,0.5289092659950256,-0.018383005633950233,-0.12467669695615768,0.6669390201568604,0.6847836971282959,0.29370683431625366,-0.010490596294403076,0.2322695255279541,-0.05013072490692139,0.4728780209123546,-0.7983300856990463,0.09758324759245449,0.3599069396594401
1729873838210333400,2.29333349609375,0.5423766374588013,0.01876889169216156,-0.19798392057418823,0.6658117771148682,0.6875046491622925,0.289883017539978,0.004766225814819336,0.22552025318145752,-0.036083489656448364,0.47539221050499747,-0.7970903090076981,0.09792114791966856,0.35925032260866735
1729873838220363300,2.30336328125,0.19538380205631256,0.04918576031923294,-0.20839236676692963,0.6642758846282959,0.6900003552436829,0.28746676445007324,0.023147881031036377,0.12465107440948486,-0.01613488793373108,0.4772941231342878,-0.7963354636357609,0.09789389432525296,0.3584089423215389
1729873838230394400,2.313394287109375,-0.10783359408378601,-0.04034199193120003,-0.18665963411331177,0.6628756523132324,0.6913872957229614,0.2873663008213043,0.0685390830039978,0.013522922992706299,0.014879882335662842,0.4777541059440485,-0.7963889473398363,0.09719974213281213,0.35786564458435555
1729873838240424400,2.323424560546875,-0.1763864904642105,-0.1967957317829132,-0.2009805142879486,0.6618767976760864,0.6922294497489929,0.28764206171035767,0.1206246018409729,-0.04852205514907837,-0.025038212537765503,0.47755859519476157,-0.7966335312645069,0.09589602745203993,0.3579342373987853
1729873838250455300,2.333455322265625,-0.17743763327598572,-0.4081745743751526,-0.19844172894954681,0.6613616943359375,0.6930078268051147,0.2869515120983124,0.13311779499053955,0.01663273572921753,-0.047876715660095215,0.47730528733609756,-0.7966385135005492,0.09403635911223143,0.358753410570264
1729873838260485400,2.3434853515625,0.12233256548643112,-0.574376106262207,-0.2063976526260376,0.6613895893096924,0.694193422794342,0.28400567173957825,0.11957043409347534,0.13736474514007568,-0.17527145147323608,0.47770164686887656,-0.7959556130864159,0.09196464833365038,0.3602752932964476
1729873838270516500,2.3535166015625,0.6514312624931335,-0.539553165435791,-0.2382565140724182,0.6614938974380493,0.6967061758041382,0.27753713726997375,0.06981426477432251,0.1478831171989441,-0.37516269087791443,0.479878864389886,-0.7940992596582422,0.09041533223634486,0.361867274408645
1729873838280546300,2.36354638671875,0.922507107257843,-0.35927432775497437,-0.2891170382499695,0.6608514189720154,0.7007370591163635,0.2687809467315674,0.0022498369216918945,0.052589356899261475,-0.43916046619415283,0.4838449179290004,-0.7914118050896486,0.08976543314066539,0.3626344169909416
1729873838290577400,2.373577392578125,0.8006142377853394,-0.2661169767379761,-0.2219260185956955,0.6598265171051025,0.7047499418258667,0.2606852650642395,-0.02615940570831299,-0.033942997455596924,-0.3344004154205322,0.48788115976165425,-0.7888713285043965,0.08958049818596014,0.3628077217506648
1729873838300608500,2.3836083984375,0.6215423941612244,-0.3361755609512329,-0.19784757494926453,0.659171998500824,0.7079173922538757,0.2536639869213104,0.0644608736038208,-0.09549057483673096,-0.30334651470184326,0.49120244273915137,-0.7866675410264329,0.08936538714859957,0.3631642293209934
1729873838310638300,2.393638427734375,0.3576258420944214,-0.4619092643260956,-0.2023477852344513,0.658700168132782,0.7105132937431335,0.24755899608135223,0.14327144622802734,-0.1629210114479065,-0.20147737860679626,0.4936932182209807,-0.7848251694679435,0.08848136012616807,0.3639886221007019
1729873838320669400,2.40366943359375,0.39413344860076904,-0.7559639811515808,-0.12476218491792679,0.6590290665626526,0.7124312520027161,0.24108624458312988,0.2087078094482422,-0.2069075107574463,-0.11396515369415283,0.4956358946319119,-0.7829247283887582,0.08701719010195189,0.3657895560995949
1729873838330699300,2.41369921875,0.3791249394416809,-0.9934875965118408,-0.13209332525730133,0.6602638363838196,0.7142183184623718,0.23225858807563782,0.2647697329521179,-0.24690264463424683,-0.18222488462924957,0.49785229323620483,-0.7803158579055428,0.08506734176401402,0.3688005861678077
1729873838340730400,2.42373046875,0.23050490021705627,-0.9498881101608276,-0.1294243186712265,0.6615411639213562,0.7158128619194031,0.22355198860168457,0.21228396892547607,-0.1990128755569458,-0.15149986743927002,0.4997025512518067,-0.7777840380987185,0.08263160363505433,0.372184751771155
1729873838350760200,2.43376025390625,0.32237809896469116,-0.9034993052482605,0.0060480255633592606,0.6631118655204773,0.7167686223983765,0.21569879353046417,0.16423511505126953,-0.16977143287658691,-0.13246199488639832,0.5011769603804036,-0.7754693502981247,0.08060199603788942,0.37546301247594377
1729873838360791300,2.443791259765625,0.3512643575668335,-1.0025075674057007,0.010871010832488537,0.6652517914772034,0.7174224853515625,0.2067500203847885,0.20114237070083618,-0.20178210735321045,-0.23992249369621277,0.5029022461281446,-0.7727551445549058,0.07889550264787039,0.3790970186137169
1729873838370821000,2.453821044921875,0.5550475716590881,-1.0435127019882202,0.04381537809967995,0.667504072189331,0.7180843353271484,0.1969606876373291,0.19336634874343872,-0.14751237630844116,-0.26371777057647705,0.5048736464379412,-0.7697476954423585,0.07725817661063757,0.3829130317354401
1729873838380852200,2.463852294921875,0.6095408201217651,-1.206422209739685,0.012080884538590908,0.6699099540710449,0.7190649509429932,0.18484273552894592,0.18217146396636963,-0.1488591432571411,-0.2386908382177353,0.5076515389865022,-0.76595718130276,0.07570315008133024,0.38712889463542377
1729873838390882300,2.47388232421875,0.44188013672828674,-1.0431389808654785,0.07301374524831772,0.6722148060798645,0.7197207808494568,0.17357879877090454,0.18583279848098755,-0.09540736675262451,-0.28959131240844727,0.5099435929233643,-0.7624436542077713,0.0739531910230247,0.3913672014051553
1729873838400913200,2.4839130859375,0.2951987683773041,-1.0855172872543335,0.051384080201387405,0.6745375394821167,0.7198936343193054,0.16356182098388672,0.19773119688034058,-0.0999748706817627,-0.16612519323825836,0.511721504829955,-0.7593070104259855,0.07234482782339623,0.39542418461467865
1729873838410944300,2.4939443359375,0.05458960309624672,-1.046386957168579,0.01965012028813362,0.6764521598815918,0.7199419736862183,0.1552291214466095,0.22792106866836548,-0.16272151470184326,-0.12953318655490875,0.5126255428326645,-0.756777358851816,0.0700185026628402,0.3995003156133246
1729873838420974300,2.503974365234375,-0.07791218161582947,-1.4352878332138062,0.07548808306455612,0.6786214709281921,0.7196186780929565,0.14704449474811554,0.25289714336395264,-0.14414864778518677,-0.02642369270324707,0.5129321350712254,-0.7543358249590951,0.06707987279429525,0.4042010423680652
1729873838431005200,2.514005126953125,-0.2310442179441452,-1.7062301635742188,0.15151654183864594,0.6817187070846558,0.7186258435249329,0.1372467279434204,0.289167582988739,-0.08604216575622559,-0.05196523666381836,0.5125971547190152,-0.7514347799947312,0.0630010502138345,0.4106347047996817
1729873838441035300,2.52403515625,0.14342300593852997,-1.6875113248825073,0.22569969296455383,0.6854149699211121,0.7171273231506348,0.12623386085033417,0.2579292058944702,-0.04073566198348999,-0.21270537376403809,0.5124100866563408,-0.7480655978289602,0.05928567300164214,0.4175154153592614
1729873838451066400,2.53406640625,0.4654811918735504,-1.7186479568481445,0.12020841985940933,0.6887366771697998,0.7162871360778809,0.11213727295398712,0.16462641954421997,-0.040795743465423584,-0.27432286739349365,0.5136909561472491,-0.7435827007197364,0.056155166697473016,0.4243266416114778
1729873838461096200,2.54409619140625,0.590874433517456,-1.5975619554519653,0.06066892296075821,0.6911086440086365,0.71626877784729,0.09658141434192657,0.08367162942886353,0.11765456199645996,-0.3810814619064331,0.5160508180211535,-0.738539147186934,0.05339134013657336,0.430582032926956
1729873838471127300,2.554127197265625,0.5167235136032104,-1.3646376132965088,0.10001233965158463,0.6929651498794556,0.7162481546401978,0.08239026367664337,0.07912963628768921,0.1832118034362793,-0.3666919469833374,0.5182931716283055,-0.7338889577200524,0.05101106328825347,0.43609308217636333
1729873838481157400,2.564157470703125,0.5107815265655518,-1.4794315099716187,0.16033720970153809,0.6950457096099854,0.7156607508659363,0.0688583254814148,0.16181164979934692,0.074057936668396,-0.3309279680252075,0.5202796179672683,-0.7293981215981967,0.04906670173692798,0.44145225265313626
1729873838491189500,2.574189453125,0.35094425082206726,-1.754701852798462,-0.0017305351793766022,0.696696937084198,0.7152987718582153,0.054418474435806274,0.24475514888763428,-0.0014467835426330566,-0.24307799339294434,0.5220689725159373,-0.7246232256172173,0.04615644280131499,0.447476161222847
1729873838501220400,2.584220458984375,0.3337552547454834,-1.943396806716919,-0.030997343361377716,0.6973422765731812,0.715664267539978,0.03922588378190994,0.22347992658615112,0.09927719831466675,-0.06234288215637207,0.5236878744316222,-0.7196227947202699,0.041904362233355245,0.4540244263991334
1729873838511250400,2.59425048828125,0.40576446056365967,-2.164264440536499,0.00920866522938013,0.6979163289070129,0.7158418297767639,0.021985482424497604,0.22971123456954956,0.23059982061386108,-0.053143858909606934,0.5254887613169675,-0.7138640580683159,0.03729407513051443,0.46137714186852985
1729873838521281500,2.604281494140625,0.8083893656730652,-2.0627787113189697,0.0402696430683136,0.6983896493911743,0.7157115340232849,0.003053464461117983,0.20610570907592773,0.37526142597198486,-0.1863114833831787,0.5278359841085153,-0.707409566390803,0.03314268529243053,0.46889514476465577
1729873838531311600,2.6143115234375,0.9362879395484924,-2.0881447792053223,-0.0021387976594269276,0.698418378829956,0.7154586315155029,-0.01820160076022148,0.14928388595581055,0.39106321334838867,-0.28560078144073486,0.531414452843421,-0.7000014376029593,0.029953074397811766,0.4761300087981872
1729873838541342500,2.624342529296875,0.9444881081581116,-2.009392023086548,0.04631608724594116,0.6979299187660217,0.7150994539260864,-0.039074379950761795,0.14031171798706055,0.34381479024887085,-0.37024253606796265,0.5348345078925543,-0.6926401011975881,0.026692685094366952,0.48320734124842196
1729873838551372500,2.63437255859375,0.8564969897270203,-2.0955910682678223,0.03265327215194702,0.6973845362663269,0.7141706943511963,-0.06012899801135063,0.15822166204452515,0.15750300884246826,-0.3841458559036255,0.5381910562710492,-0.6851077037780923,0.023726263734157135,0.4903214571676954
1729873838561403400,2.6444033203125,0.7476850748062134,-2.1335604190826416,-0.0205439031124115,0.6958320140838623,0.7137086987495422,-0.08023754507303238,0.09666389226913452,0.07433158159255981,-0.10393596440553665,0.541004951957258,-0.677855164934746,0.019839460938400062,0.4974259514459795
1729873838571433500,2.65443359375,1.012527346611023,-2.1974122524261475,-0.00285944901406765,0.6938210129737854,0.7128959894180298,-0.10194142907857895,0.07889944314956665,0.18995141983032227,-0.06965889036655426,0.5441995754778606,-0.669903694748922,0.016072506262829297,0.5047947488408024
1729873838581464600,2.664464599609375,1.632120966911316,-1.9288452863693237,-0.029435932636260986,0.691395103931427,0.7114805579185486,-0.12557253241539001,0.13141989707946777,0.3607240319252014,-0.2576366066932678,0.5487898328106332,-0.6610776230170563,0.013788088882494592,0.5114842327618011
1729873838591494700,2.67449462890625,1.6999757289886475,-1.9986567497253418,-0.02933952584862709,0.6884147524833679,0.7093770503997803,-0.1512266993522644,0.14891135692596436,0.4379770755767822,-0.21014712750911713,0.5545928645501902,-0.65132742871394,0.01261869843630625,0.517725972286338
1729873838601525500,2.684525390625,1.4640624523162842,-2.2333059310913086,0.11370445042848587,0.6853185892105103,0.7062894105911255,-0.17746439576148987,0.24652040004730225,0.32702046632766724,-0.08771799504756927,0.5599203753357198,-0.6412037486625971,0.011205017669784524,0.5246154400769724
1729873838611556600,2.694556640625,0.7147322297096252,-2.403355121612549,0.1381128579378128,0.6818584203720093,0.7032939791679382,-0.20111458003520966,0.3256642818450928,0.03542989492416382,0.009891480207443237,0.5631171024560762,-0.6319650159800906,0.00793252656220997,0.5324064792610518
1729873838621586700,2.704586669921875,0.26955196261405945,-2.4484450817108154,0.04821758344769478,0.6774979829788208,0.7014520764350891,-0.22127272188663483,0.313774049282074,-0.1908777356147766,0.0758565217256546,0.5644713269025712,-0.6239839624972481,0.0027665912750250397,0.5403781755439283
1729873838631617500,2.714617431640625,0.10619846731424332,-2.464170455932617,-0.04833212494850159,0.6718422770500183,0.701064944267273,-0.23903141915798187,0.27434003353118896,-0.19483929872512817,0.05244702100753784,0.5649556599182801,-0.6168226902510925,-0.0037497821054866673,0.5480336710740157
1729873838641647600,2.724647705078125,0.521517813205719,-2.466459274291992,0.0056213876232504845,0.6655876636505127,0.7004164457321167,-0.25770118832588196,0.2784126400947571,0.0238724946975708,0.0027268826961517334,0.5657880727387935,-0.6091379918103784,-0.010015874797744686,0.5556387707365579
1729873838651678500,2.734678466796875,1.1754140853881836,-2.6402039527893066,0.027362901717424393,0.6589402556419373,0.6978509426116943,-0.28071704506874084,0.300212025642395,0.17608100175857544,-0.05923342704772949,0.5681377317331631,-0.5995195771475688,-0.014756321598929019,0.5635408090474587
1729873838661708500,2.74470849609375,2.4788143634796143,-2.576805830001831,0.11183623969554901,0.6519396901130676,0.6916655898094177,-0.3107626736164093,0.25809454917907715,0.27053844928741455,-0.09412926435470581,0.5729857185280387,-0.5868020812424453,-0.016792429287268845,0.5718992675300648
1729873838671739600,2.75473974609375,3.143576145172119,-2.213935375213623,0.10192634910345078,0.6447342038154602,0.6812715530395508,-0.34668007493019104,0.19782567024230957,0.4303464889526367,-0.17001301050186157,0.5809401195904801,-0.5713436766319661,-0.015045651285478046,0.5795246135868107
1729873838681769700,2.764769775390625,2.603334665298462,-1.818483591079712,0.25270283222198486,0.6387907862663269,0.6690658926963806,-0.3798646926879883,0.19955766201019287,0.7333846688270569,-0.015215784311294556,0.5887811412751294,-0.5567180679960843,-0.011517242458680403,0.5858917327589465
1729873838691800600,2.774800537109375,1.141414761543274,-2.092123031616211,0.28819024562835693,0.6330376863479614,0.6601006388664246,-0.40438902378082275,0.4352453947067261,0.43621283769607544,0.17466804385185242,0.5929262575942574,-0.5456035410767205,-0.011057564758183489,0.5921427432868641
1729873838701830700,2.78483056640625,0.2372387796640396,-2.8306617736816406,0.10858398675918579,0.62436842918396,0.6557430028915405,-0.4244590401649475,0.6870940923690796,-0.413128137588501,0.2336936593055725,0.59403056556036,-0.5362159841322032,-0.015585282549624954,0.5994643308272154
1729873838711861500,2.794861572265625,-0.21064312756061554,-3.1236886978149414,0.03374383598566055,0.6115004420280457,0.6558437347412109,-0.4426470398902893,0.6879228353500366,-0.7834224104881287,0.0902453064918518,0.5933733407963071,-0.527318768344566,-0.024726580711788175,0.6076444353478004
1729873838721892600,2.804892578125,-0.116435207426548,-2.85701322555542,0.35829395055770874,0.598869800567627,0.655367910861969,-0.4602695107460022,0.4315257668495178,-0.5026884078979492,-0.05669820308685303,0.5920137127655045,-0.518388550390894,-0.0337424843222144,0.6161612212683083
1729873838731922700,2.814922607421875,0.4603828191757202,-2.2035515308380127,0.5434694290161133,0.5905783772468567,0.6517369151115417,-0.47587424516677856,0.18191313743591309,-0.22453653812408447,-0.04359591007232666,0.590330640216939,-0.5104057076258811,-0.03935590842842722,0.6240568871126851
1729873838741953500,2.82495361328125,0.32028940320014954,-2.0769107341766357,0.04052077978849411,0.5818914771080017,0.647887110710144,-0.4915737807750702,-0.060681700706481934,-0.14858895540237427,0.3546566963195801,0.5901616018975073,-0.502304917265599,-0.043621955399998684,0.6304731235335373
1729873838751983600,2.834983642578125,1.201840877532959,-1.9045624732971191,0.2877284586429596,0.5730137228965759,0.6436708569526672,-0.5072899460792542,-0.08406108617782593,0.3756619691848755,0.5005608797073364,0.5909620079445481,-0.4941202753525313,-0.04690619350100272,0.6359315115149763
1729873838762014700,2.8450146484375,2.099062919616699,-2.4337761402130127,0.4034276306629181,0.5643681883811951,0.6325759291648865,-0.5304113626480103,0.35581308603286743,0.7607040405273438,0.11352604627609253,0.5934509401992666,-0.48229120321643426,-0.04679216554826575,0.6426676152589009
1729873838772044500,2.85504443359375,1.8771048784255981,-3.1337642669677734,0.24998188018798828,0.5510947704315186,0.6195312142372131,-0.5589953660964966,0.5339120030403137,0.7476105690002441,-0.13885003328323364,0.5965686584425447,-0.4671417843327812,-0.04775834369652563,0.6508484707156484
1729873838782075600,2.86507568359375,1.3132023811340332,-3.165543794631958,0.10829263925552368,0.5338550806045532,0.609354555606842,-0.5862472057342529,0.3846019506454468,0.2549184560775757,-0.037669360637664795,0.598922351744047,-0.45189746898188404,-0.05162445290535133,0.6591021149310062
1729873838792105500,2.87510546875,0.67904132604599,-2.7314658164978027,0.15262548625469208,0.5167340636253357,0.6028419137001038,-0.6079207062721252,0.0884447693824768,-0.38253557682037354,0.05350792407989502,0.5999407075226127,-0.4390755598337177,-0.05702898245697528,0.6663569476416973
1729873838802136300,2.88513623046875,0.4100782573223114,-2.061099052429199,0.4662584960460663,0.5036911368370056,0.598086416721344,-0.6233681440353394,-0.11942905187606812,-0.5191069841384888,0.10537809133529663,0.5993516173974521,-0.4295225884936476,-0.0618568211781664,0.6726527474168476
1729873838812166400,2.89516650390625,0.5380346179008484,-1.3933662176132202,0.7112741470336914,0.49651414155960083,0.5922383666038513,-0.6346081495285034,-0.062157392501831055,-0.29194533824920654,0.04665648937225342,0.5976830274173953,-0.4225795680306437,-0.06420624749206982,0.678291319633864
1729873838822197500,2.905197509765625,0.7862963080406189,-1.5397061109542847,0.46187761425971985,0.49123960733413696,0.5846629738807678,-0.6456414461135864,0.18113896250724792,-0.09653431177139282,0.07186520099639893,0.5965604474778613,-0.4159255254319016,-0.06469339552054025,0.6833274435235607
1729873838832228400,2.915228271484375,0.609960675239563,-2.2934796810150146,0.18108002841472626,0.48050063848495483,0.5787339210510254,-0.6589281558990479,0.36308154463768005,0.020524561405181885,0.35047173500061035,0.5963702828114077,-0.4074230468951314,-0.06739723008323131,0.6883361979217285
1729873838842258400,2.925258544921875,0.8161231279373169,-2.932659864425659,0.19313377141952515,0.46395888924598694,0.573121190071106,-0.6754807829856873,0.5263060331344604,0.21465963125228882,0.42198657989501953,0.5961875111934818,-0.39624285954836974,-0.07246520030868878,0.6944788513771031
1729873838852289500,2.93528955078125,1.0345840454101562,-3.104454278945923,0.1800166368484497,0.44409632682800293,0.5658503770828247,-0.6946883201599121,0.48684242367744446,0.34972280263900757,0.1546492576599121,0.5962360291783042,-0.3828627722265339,-0.07792272977447952,0.7013178646870101
1729873838862319400,2.9453193359375,1.170724630355835,-2.881147623062134,0.2715587913990021,0.4240397810935974,0.5568129420280457,-0.7142475843429565,0.2073078751564026,0.42330479621887207,-0.07344156503677368,0.5963484450848221,-0.36887500955728997,-0.08250726698462356,0.708161217704742
1729873838872350500,2.9553505859375,0.9250442385673523,-2.4379115104675293,0.3333100378513336,0.40642738342285156,0.547821581363678,-0.731237530708313,-0.021463394165039062,0.23858588933944702,-0.14528828859329224,0.5960771821906553,-0.3563228919611983,-0.08611177854308436,0.714360400938138
1729873838882380500,2.965380615234375,0.5594097375869751,-1.9870197772979736,0.4150072932243347,0.3920462727546692,0.5408506393432617,-0.7441641688346863,-0.15199494361877441,-0.03491491079330444,-0.07065510749816895,0.5950828937118158,-0.3462999792767997,-0.08941047565567971,0.7196933031941983
1729873838892411400,2.975411376953125,0.645709753036499,-1.7504260540008545,0.4522135257720947,0.3807256817817688,0.5346726179122925,-0.754435658454895,-0.0632818341255188,-0.06642615795135498,-0.019734203815460205,0.5936192200872596,-0.3381202791268955,-0.0919610921528915,0.7244543715965873
1729873838902441500,2.98544140625,0.6299010515213013,-1.782533884048462,0.25814977288246155,0.3692036271095276,0.5285105109214783,-0.7644379734992981,0.1522044837474823,0.090004563331604,0.007861495018005371,0.5925504252984304,-0.3299820450708035,-0.09430192325087604,0.7287682963335276
1729873838912472600,2.99547265625,0.8039826154708862,-2.091444253921509,0.18027788400650024,0.35552623867988586,0.5221720337867737,-0.7752016186714172,0.354419469833374,0.2733754515647888,-0.004400432109832764,0.5920173053756684,-0.3209177346384902,-0.09701035022480498,0.7328823015991982
1729873838922503400,3.00550341796875,0.8829305768013,-2.476665735244751,0.09888581931591034,0.33827346563339233,0.5148826241493225,-0.7876973152160645,0.5035082101821899,0.2319130301475525,0.06096696853637695,0.5917342476308315,-0.30995337240152027,-0.10040050140356542,0.7373597938401811
1729873838932533500,3.015533447265625,0.7992820143699646,-2.594705581665039,0.12414883822202682,0.31849348545074463,0.5078479647636414,-0.8004076480865479,0.46142902970314026,0.15268975496292114,0.18436455726623535,0.5913239654985284,-0.2980545064013857,-0.10468856361306733,0.7419837605756088
1729873838942564600,3.025564697265625,0.5426157712936401,-2.500204086303711,0.1789441704750061,0.2985615134239197,0.5018096566200256,-0.8118178248405457,0.3534618318080902,0.13477176427841187,0.21736592054367065,0.5903637031367227,-0.2865353150274065,-0.10949251667186483,0.7465786991777976
1729873838952594400,3.035594482421875,0.19745174050331116,-2.2595722675323486,0.31016504764556885,0.2803601324558258,0.49805405735969543,-0.8205732107162476,0.2763873338699341,0.14005327224731445,0.19677865505218506,0.5886810486799805,-0.2766693952346292,-0.11474944968066145,0.7508271238752269
1729873838962625500,3.04562548828125,-0.213389590382576,-2.400344133377075,0.3448899984359741,0.2630240321159363,0.49718672037124634,-0.8268154263496399,0.3164285123348236,0.09645649790763855,0.1329677700996399,0.5859929985165814,-0.2681880938549357,-0.12110915696739197,0.7549967295494593
1729873838972655600,3.055655517578125,-0.2875535488128662,-2.684891939163208,0.13846519589424133,0.24313808977603912,0.498893141746521,-0.8318590521812439,0.36326146125793457,-0.07326444983482361,0.11524534225463867,0.583070048258039,-0.25952425504272414,-0.12929663596014615,0.758919599675107
1729873838982686500,3.0656865234375,-0.11994984745979309,-2.7775604724884033,-0.012934720143675804,0.22025367617607117,0.5004721283912659,-0.8372669816017151,0.2591469883918762,-0.2660207748413086,0.10374647378921509,0.5807815617961942,-0.2496081780450168,-0.13806619736468656,0.7624475452587142
1729873838992716500,3.075716552734375,0.40857523679733276,-2.554544687271118,0.12801921367645264,0.19799211621284485,0.4993523359298706,-0.8434727787971497,0.10671064257621765,-0.1919182538986206,0.07499444484710693,0.5788287119053936,-0.23905608653175064,-0.1453127354205451,0.7659593306424293
1729873839002747600,3.08574755859375,0.8219297528266907,-2.0744590759277344,0.25377926230430603,0.1791456639766693,0.49362999200820923,-0.8510207533836365,0.0052873194217681885,0.02757975459098816,-0.020546019077301025,0.5770910588857864,-0.2283941294334988,-0.14941804413830337,0.7697249110880965
1729873839012777500,3.095777587890625,1.1256654262542725,-1.6630136966705322,0.26697683334350586,0.16460491716861725,0.4846484363079071,-0.8590816259384155,-0.059288740158081055,0.2810834050178528,0.019573569297790527,0.5757708550178555,-0.2185698322716938,-0.15062015162334888,0.773323332606204
1729873839022808600,3.10580859375,1.2898266315460205,-1.6933393478393555,0.2738182246685028,0.1517166793346405,0.4737148880958557,-0.8675115704536438,0.016679316759109497,0.4769534766674042,0.0706976056098938,0.5747430801476187,-0.2088975587654097,-0.1503530344146911,0.7768051773668355
1729873839032839400,3.11583935546875,1.1496220827102661,-1.9422879219055176,0.14303864538669586,0.13686956465244293,0.46263620257377625,-0.8759192228317261,0.23155391216278076,0.47356680035591125,-0.027965664863586426,0.5737957567600522,-0.19843328149222952,-0.15054773138852828,0.7802039408618311
1729873839042869500,3.125869384765625,0.9468498229980469,-2.3217620849609375,-0.03161706030368805,0.11831504106521606,0.45327749848365784,-0.8834823369979858,0.31588906049728394,0.26538097858428955,0.02751004695892334,0.5729872454465745,-0.18709407196724903,-0.15249467321153481,0.7832157561135775
1729873839052900600,3.135900634765625,0.9413413405418396,-2.505868911743164,-0.10155700147151947,0.09633243083953857,0.44503989815711975,-0.8903143405914307,0.22355282306671143,0.07884013652801514,0.15867066383361816,0.5722412707891776,-0.1747758970803575,-0.1558724674504877,0.7859371750559566
1729873839062930700,3.1459306640625,0.7324392199516296,-2.2301061153411865,0.011865167878568172,0.0747213363647461,0.4375726878643036,-0.896073043346405,0.035523414611816406,0.0309637188911438,0.21484440565109253,0.5712718377875308,-0.16290956175357368,-0.1594488919664517,0.7884701653776354
1729873839072961500,3.15596142578125,0.8277652263641357,-1.882534146308899,0.13678553700447083,0.056666791439056396,0.43069732189178467,-0.900715708732605,-0.0805773138999939,0.11507907509803772,0.21136939525604248,0.5699034066598305,-0.15271888318212729,-0.16223161846498707,0.7909286947571013
1729873839082991600,3.16599169921875,0.7114485502243042,-1.7009283304214478,0.06050940603017807,0.04093114286661148,0.4233259856700897,-0.9050523638725281,-0.11811010539531708,0.14335495233535767,0.20951098203659058,0.5686111637646706,-0.14339528782717134,-0.16404760500988477,0.7932260084181257
1729873839093022500,3.1760224609375,0.4833354949951172,-1.7134928703308105,-0.000958484597504139,0.025808246806263924,0.4180224537849426,-0.9080700278282166,-0.03713027387857437,0.26543399691581726,0.18257564306259155,0.5675240273674877,-0.1350863018596251,-0.16648325446417836,0.7949538107429998
1729873839103052500,3.186052490234375,0.38136619329452515,-2.1300859451293945,-0.18412962555885315,0.00807324517518282,0.414035826921463,-0.9102247953414917,0.17764146625995636,0.3384361267089844,0.1224745512008667,0.5665140717163969,-0.12615595122876883,-0.17021244787687598,0.7963506175776909
1729873839113083600,3.196083740234375,0.29669153690338135,-2.5191235542297363,-0.3552880585193634,-0.014417619444429874,0.41105854511260986,-0.9114949107170105,0.2624187171459198,0.27546489238739014,0.11004233360290527,0.5658059672776741,-0.1156607223676646,-0.17571320125141118,0.7972522253112079
1729873839123113700,3.20611376953125,0.30099886655807495,-2.597395181655884,-0.3594503104686737,-0.03952471911907196,0.4081595242023468,-0.9120545983314514,0.19427934288978577,0.2172066867351532,0.14128738641738892,0.5651322383759548,-0.10414300334833512,-0.18200805336845766,0.7979053503653537
1729873839133144600,3.21614453125,0.23517856001853943,-2.3069283962249756,-0.24540071189403534,-0.0634189248085022,0.40556809306144714,-0.9118621945381165,0.055606409907341,0.18854814767837524,0.09377747774124146,0.5641952900510564,-0.0931965883912883,-0.1881045176788324,0.7985080046795093
1729873839143175700,3.22617578125,0.5247769355773926,-1.9875974655151367,-0.15236717462539673,-0.08360990136861801,0.4020625352859497,-0.9117867946624756,-0.07630222290754318,0.1505345106124878,0.027280569076538086,0.5630718834541399,-0.08346256835421664,-0.19271900410775986,0.7992768887499068
1729873839153205800,3.236205810546875,0.49554499983787537,-1.765679955482483,-0.21409764885902405,-0.10155264288187027,0.39702579379081726,-0.9121719002723694,-0.13033518195152283,0.11862975358963013,0.021546900272369385,0.5621823242626183,-0.0742382902854047,-0.195966104716296,0.8000232493388635
1729873839163236600,3.246236572265625,0.6082021594047546,-1.6175763607025146,-0.23671747744083405,-0.11778032779693604,0.3919309079647064,-0.9124242067337036,-0.07458724081516266,0.2771822512149811,-0.06981456279754639,0.5615896800361001,-0.06579034832078526,-0.1986441963766356,0.8005181088362037
1729873839173266700,3.2562666015625,0.7927474975585938,-1.6824195384979248,-0.42643389105796814,-0.13399986922740936,0.3849385976791382,-0.9131628274917603,0.08475972712039948,0.3031107187271118,-0.11938416957855225,0.5614655856567006,-0.05687851575766416,-0.20045803060532597,0.8008358237469828
1729873839183297500,3.266297607421875,0.9620853662490845,-1.8865635395050049,-0.548571765422821,-0.15224362909793854,0.3763582408428192,-0.9138798713684082,0.15505121648311615,0.2209775745868683,-0.0319209098815918,0.5618972399207504,-0.04679734792032673,-0.20216350161221572,0.8007569288468463
1729873839193327400,3.276327392578125,1.0742542743682861,-1.8837519884109497,-0.5481597781181335,-0.17179158329963684,0.36597520112991333,-0.9146309494972229,0.20539140701293945,0.19940873980522156,0.042881131172180176,0.562401224456851,-0.03566331942732259,-0.2035009547493739,0.8006375464708041
1729873839203358700,3.286358642578125,1.0724849700927734,-1.799850344657898,-0.3953947424888611,-0.1903521865606308,0.35520055890083313,-0.9152041673660278,0.2063433676958084,0.20714685320854187,0.14664947986602783,0.562602796829743,-0.024763217435721338,-0.20441309173796585,0.8006748625479806
1729873839213388500,3.296388427734375,0.9608012437820435,-1.7580442428588867,-0.33167701959609985,-0.20789434015750885,0.3451249897480011,-0.9152424335479736,0.20263001322746277,0.1223432719707489,0.21297192573547363,0.5623007402578765,-0.014390695396262174,-0.20535747479144897,0.800898999509536
1729873839223419400,3.30641943359375,0.6221083998680115,-1.7658252716064453,-0.28069719672203064,-0.22505412995815277,0.3370157480239868,-0.9142051339149475,0.15841896831989288,-0.06981906294822693,0.289067804813385,0.5617845563923007,-0.004741368340368115,-0.20706265866632692,0.8009374609382666
1729873839233449500,3.316449462890625,0.1732342392206192,-1.7486158609390259,-0.21129201352596283,-0.24208377301692963,0.3328428864479065,-0.9113786816596985,0.13072510063648224,-0.1308317482471466,0.2865312695503235,0.5608771073422021,0.0037409567817891136,-0.2104677345533911,0.8006911632941913
1729873839243480300,3.326480224609375,0.18208783864974976,-1.6533257961273193,-0.21734324097633362,-0.25814035534858704,0.3309521973133087,-0.9076531529426575,0.10828372836112976,-0.10934877395629883,0.20231562852859497,0.5599346163534118,0.01113885152708179,-0.21459112932898525,0.8001874168060397
1729873839253511400,3.336511474609375,0.14163602888584137,-1.6331733465194702,-0.2667422294616699,-0.2739955186843872,0.32881349325180054,-0.9037743806838989,0.08675488829612732,-0.12559697031974792,0.2301294207572937,0.5590981296203298,0.018508971785120502,-0.21856398788230388,0.7995602706390553
1729873839263541500,3.34654150390625,0.22843921184539795,-1.5012613534927368,-0.29127925634384155,-0.2889690697193146,0.3265068233013153,-0.8999390006065369,0.2066631317138672,0.027649670839309692,0.060156285762786865,0.5584552729331026,0.02552287777094545,-0.22221404941430473,0.7988099758441891
1729873839273572400,3.356572265625,0.5383036136627197,-1.7890228033065796,-0.4143649637699127,-0.30453136563301086,0.32202988862991333,-0.8964136838912964,0.368541955947876,0.11127394437789917,0.1391047239303589,0.5579722687125421,0.033402858296161006,-0.22511645946333045,0.7980438667891362
1729873839283602400,3.3666025390625,0.6386281847953796,-2.2545580863952637,-0.5631265044212341,-0.3244435489177704,0.3150472044944763,-0.8918977975845337,0.3979603350162506,0.04632669687271118,0.3425661325454712,0.5575321997810758,0.0438246344566456,-0.22832106088108492,0.7969358906740076
1729873839293633500,3.376633544921875,0.7165163159370422,-2.1546921730041504,-0.46817758679389954,-0.3460885286331177,0.3072494864463806,-0.8864651918411255,0.2626992166042328,-0.023283421993255615,0.379369854927063,0.5568965684987303,0.05527154243833124,-0.2317595026200168,0.7956751725333483
1729873839303663600,3.38666357421875,0.8511061668395996,-1.5889970064163208,-0.09380506724119186,-0.3636130094528198,0.2993219494819641,-0.8821519017219543,0.07067471742630005,-0.10385686159133911,0.30099040269851685,0.5556069180106888,0.0652696816609079,-0.2338031812276981,0.7952212702538423
1729873839313694500,3.396694580078125,1.0065932273864746,-0.9493589997291565,0.30359208583831787,-0.37436410784721375,0.29147395491600037,-0.8802809119224548,-0.027277767658233643,-0.13487297296524048,0.17868179082870483,0.5533741835404584,0.0727394352395015,-0.23359905393270877,0.7961894304861384
1729873839323724500,3.406724609375,1.057464838027954,-0.6053630113601685,0.5501915216445923,-0.3797234296798706,0.2838999032974243,-0.8804606795310974,0.028542369604110718,-0.15387976169586182,0.06434434652328491,0.5503411791845463,0.07812369947644267,-0.2316599998061075,0.7983451744855729
1729873839333755400,3.41675537109375,1.0952273607254028,-0.6666197180747986,0.5570802688598633,-0.3833991587162018,0.2766859829425812,-0.8811639547348022,0.2141028642654419,-0.18617087602615356,0.07308906316757202,0.5469027928578728,0.08279621382358476,-0.2292657907871543,0.8009240091575205
1729873839343786500,3.426786376953125,1.209075927734375,-0.9802795648574829,0.2681654095649719,-0.38934317231178284,0.26808446645736694,-0.8812165856361389,0.34181198477745056,-0.26307958364486694,0.3097596764564514,0.5437940840036434,0.08870907499687526,-0.22698547738612074,0.8030544935300967
1729873839353816600,3.436816650390625,0.912665069103241,-1.2451176643371582,0.0969529002904892,-0.39858323335647583,0.25902464985847473,-0.8797941207885742,0.32006144523620605,-0.26714232563972473,0.5084104537963867,0.541345408122767,0.09593856252764574,-0.22560749945701533,0.804265038547693
1729873839363847400,3.446847412109375,0.8352760076522827,-1.3147015571594238,0.1388750523328781,-0.4094041883945465,0.25216880440711975,-0.8768119215965271,0.33236250281333923,-0.06083884835243225,0.4053305983543396,0.5390305868302452,0.10315347417316023,-0.22572861082055576,0.8048925753745597
1729873839373877500,3.45687744140625,1.0486620664596558,-1.3390084505081177,0.05263576656579971,-0.4208225607872009,0.2444099634885788,-0.873597264289856,0.29681435227394104,0.0734458863735199,0.31741440296173096,0.5365987170344649,0.1109258675610016,-0.2256032623456008,0.8055187519058705
1729873839383908600,3.46690869140625,1.358858585357666,-1.0590049028396606,0.1478770673274994,-0.43128013610839844,0.23416857421398163,-0.8712993264198303,0.12604326009750366,0.10442395508289337,0.2906414270401001,0.5342088773928847,0.11900104331776865,-0.22402919741999403,0.8063935670677997
1729873839393938400,3.4769384765625,1.491495966911316,-0.4899646043777466,0.43232426047325134,-0.43737754225730896,0.22295160591602325,-0.8712023496627808,0.027541667222976685,0.10822515189647675,0.33517634868621826,0.5312785653157815,0.12563130759983876,-0.22048946702320218,0.8082972339330544
1729873839403969500,3.486969482421875,1.4341497421264648,-0.08681851625442505,0.5753504037857056,-0.43857860565185547,0.2121448665857315,-0.8732945919036865,0.01891610026359558,0.009595856070518494,0.329334020614624,0.5279415081129037,0.13011426694277187,-0.2154599564385006,0.8111259165632786
1729873839413999600,3.49699951171875,1.1853431463241577,-0.06515636295080185,0.6358875036239624,-0.43772125244140625,0.2034369558095932,-0.8757930994033813,0.031745851039886475,-0.1633673757314682,0.29881250858306885,0.5245397953238647,0.13308341603640184,-0.21069468242648942,0.8140975496119213
1729873839424030500,3.507030517578125,0.7045812606811523,-0.3311236798763275,0.48524925112724304,-0.4383326470851898,0.19717077910900116,-0.8769197463989258,0.08287909626960754,-0.29171425104141235,0.4810304641723633,0.5213099392779323,0.1359236838765983,-0.20752080940063206,0.816514520204618
1729873839434060500,3.517060546875,0.13422617316246033,-0.5135193467140198,0.3294559121131897,-0.44118258357048035,0.19570644199848175,-0.8758178949356079,0.11646023392677307,-0.20435817539691925,0.4027649164199829,0.5189696555302521,0.13816627372062512,-0.20736715181872534,0.8176672221813812
1729873839444091600,3.527091552734375,0.1349281221628189,-0.7786163687705994,0.09685995429754257,-0.44643720984458923,0.19567736983299255,-0.8731576204299927,0.20051124691963196,0.0019697248935699463,0.24995815753936768,0.5173090228885181,0.1408947064977093,-0.20873398956130518,0.8179060133049999
1729873839454122500,3.53712255859375,0.386702299118042,-0.9781811237335205,-0.06372519582509995,-0.45419245958328247,0.1934913694858551,-0.8696380257606506,0.2006218433380127,0.1682945191860199,0.2710357904434204,0.5161810393302897,0.14518594526683995,-0.21000479472483868,0.8175428416202807
1729873839464152600,3.547152587890625,0.783605694770813,-0.7240442633628845,-0.07865381240844727,-0.4620288908481598,0.18817037343978882,-0.8666725158691406,0.1404041051864624,0.3546763062477112,0.2546120285987854,0.5151533002794209,0.15035967635867944,-0.2098945047589822,0.8172842275581873
1729873839474183700,3.55718359375,1.1956478357315063,-0.25673866271972656,0.020686622709035873,-0.4662925601005554,0.17927470803260803,-0.8662747144699097,0.012923359870910645,0.39480671286582947,0.19282805919647217,0.5140328203271739,0.15496783060983327,-0.20699667904409488,0.8178677294982123
1729873839484213500,3.567213623046875,1.284670352935791,0.06580867618322372,0.1313612163066864,-0.4669152498245239,0.1686265766620636,-0.8680756092071533,-0.07971563935279846,0.2708417773246765,0.1283753514289856,0.5126189025030328,0.15850778355041278,-0.20208284627595738,0.819304452534218
1729873839494242800,3.577242919921875,0.9868586659431458,0.20935438573360443,0.19645312428474426,-0.46525388956069946,0.15936477482318878,-0.8707132935523987,-0.07220649719238281,-0.0015126019716262817,0.04593002796173096,0.5111777604367964,0.16064107119706275,-0.1970730454671142,0.8210079177348865
1729873839504273000,3.58727294921875,0.5416937470436096,0.036935433745384216,0.20035092532634735,-0.4636847674846649,0.15353743731975555,-0.8725953698158264,-0.005309402942657471,-0.31010788679122925,0.1462770700454712,0.5098378092533379,0.1618401832662832,-0.1936751436036114,0.8224130489922116
1729873839514304000,3.597303955078125,0.0998004898428917,-0.2513189911842346,0.1281515657901764,-0.46441832184791565,0.15170377492904663,-0.8725259900093079,0.06653010845184326,-0.3979043662548065,0.37772929668426514,0.5088132850009952,0.16290269269925295,-0.19287228985456067,0.8230261838403857
1729873839524334000,3.607333984375,0.009008800610899925,-0.3668408989906311,0.0827191025018692,-0.46707725524902344,0.15184476971626282,-0.8710809350013733,0.08542436361312866,-0.23877409100532532,0.5508447885513306,0.5080382240146082,0.16423258393468562,-0.1936160564247992,0.8230661046782481
1729873839534365000,3.617364990234375,-0.011675971560180187,-0.161146342754364,0.07960586249828339,-0.4693765342235565,0.15220195055007935,-0.8697817325592041,0.07112208008766174,0.06291644275188446,0.4272921085357666,0.5074443004513247,0.16530302456749832,-0.1943811613931305,0.8230378658946098
1729873839544395000,3.62739501953125,0.0793197825551033,-0.09236295521259308,0.008191338740289211,-0.4701743423938751,0.1522439569234848,-0.8693433403968811,0.05243441462516785,0.3199697732925415,0.2794080972671509,0.5070983783776852,0.1657299658266747,-0.19458134678495528,0.8231178156844039
1729873839554425900,3.63742578125,0.23254822194576263,-0.25832369923591614,-0.1269928514957428,-0.4718610346317291,0.15052901208400726,-0.8687279224395752,0.02947816252708435,0.29630935192108154,0.1968224048614502,0.5070680174668623,0.16695281193631317,-0.19432652597836272,0.8229496009496344
1729873839564457000,3.64745703125,0.3080596327781677,-0.14192241430282593,-0.07742902636528015,-0.4739261865615845,0.14763884246349335,-0.8680995106697083,-0.005855977535247803,0.19131989777088165,0.004635155200958252,0.5070946489529875,0.16864852319196644,-0.19366963119645939,0.8227422207965271
1729873839574487000,3.657487060546875,0.4553412199020386,0.012424815446138382,0.007243518717586994,-0.47443071007728577,0.14416958391666412,-0.8684069514274597,-0.012278944253921509,0.13041231036186218,-0.020814239978790283,0.5068515162552225,0.16986502427768035,-0.19220405364942775,0.8229854400776835
1729873839584518000,3.667517822265625,0.5420252680778503,0.15285436809062958,0.04502924531698227,-0.4737240672111511,0.13998685777187347,-0.8694763779640198,-0.030990958213806152,0.011517643928527832,-0.01208484172821045,0.506413548934688,0.17077416495096417,-0.1899946995691104,0.8235797131116948
1729873839594548000,3.6775478515625,0.5432716012001038,0.23283495008945465,0.05785369873046875,-0.47182923555374146,0.1352086067199707,-0.8712610602378845,-0.04625248908996582,-0.1461339145898819,0.1902461051940918,0.505848238120131,0.17133537941520274,-0.18711934010172374,0.8244685251390724
1729873839604579000,3.6875791015625,0.06428337097167969,0.17545928061008453,0.030154425650835037,-0.46994641423225403,0.1327522248029709,-0.8726552724838257,-0.03681328892707825,-0.22433549165725708,0.30782073736190796,0.5056235269721059,0.17119897269183554,-0.18537330892559215,0.8250289310178616
1729873839614609000,3.69760888671875,-0.2178172916173935,0.03325579687952995,0.047353118658065796,-0.46892833709716797,0.13377729058265686,-0.8730462789535522,-0.019215643405914307,-0.17653243243694305,0.289122998714447,0.5056475157770217,0.17046235563717146,-0.18552474613290446,0.8251325701521478
1729873839624640000,3.707639892578125,-0.26041361689567566,-0.11691607534885406,0.03920544683933258,-0.46933192014694214,0.13610784709453583,-0.8724690675735474,-0.029783129692077637,-0.11798040568828583,0.33696186542510986,0.5056381922085564,0.17002166524541404,-0.18670325656980208,0.824963493947316
1729873839634670000,3.717670166015625,-0.02581016719341278,0.09269387274980545,0.16805024445056915,-0.469528466463089,0.1381080150604248,-0.8720488548278809,-0.0862424373626709,0.063918337225914,0.16764217615127563,0.505367697212111,0.16963578589840117,-0.18761466900500498,0.8250018741324376
1729873839644701000,3.727700927734375,0.3255467414855957,0.3405461311340332,0.22506612539291382,-0.4671842157840729,0.13764657080173492,-0.8733798265457153,-0.0662020742893219,0.23981007933616638,0.06428253650665283,0.5045661641352331,0.16888907892557356,-0.18651154609867884,0.8258952594839554
1729873839654730800,3.737730712890625,0.4778617024421692,0.3117474913597107,0.10815921425819397,-0.46389174461364746,0.13490164279937744,-0.8755604028701782,0.019235312938690186,0.27504098415374756,0.028468728065490723,0.5038203284574155,0.16831067547563303,-0.18409594629288903,0.8270098647921277
1729873839664762000,3.74776220703125,0.35408174991607666,0.14576363563537598,-0.039002805948257446,-0.4618183970451355,0.1312125325202942,-0.8772155046463013,0.10378611087799072,0.15049521625041962,0.017230212688446045,0.5035379210629615,0.16842404233637426,-0.1817294037389897,0.8276820242550383
1729873839674793000,3.75779296875,0.03563295304775238,-0.03694864735007286,-0.08856184035539627,-0.4614506959915161,0.12914003431797028,-0.8777164220809937,0.10653123259544373,-0.06740297377109528,0.04336583614349365,0.5036908456552484,0.16877660944602454,-0.1807103668077618,0.8277402704425959
1729873839684822800,3.76782275390625,-0.2878528833389282,-0.010341590270400047,-0.00024102907627820969,-0.46188291907310486,0.12998677790164948,-0.8773640394210815,-0.007202804088592529,-0.2668733596801758,0.08824050426483154,0.5039960251989168,0.16867865251402223,-0.18128844549295217,0.8274479753510634
1729873839694854100,3.777854248046875,-0.539350152015686,0.2278488725423813,0.25852102041244507,-0.46084901690483093,0.1343158483505249,-0.8772556781768799,-0.13891300559043884,-0.2942737340927124,0.16100811958312988,0.5039289564680995,0.167077203477146,-0.1829135908529421,0.827456073657669
1729873839704883700,3.7878837890625,-0.5343781113624573,0.4988274872303009,0.36198508739471436,-0.4571339190006256,0.14071626961231232,-0.8781956434249878,-0.13647881150245667,-0.10922212898731232,0.2385472059249878,0.5033671229565874,0.16383398849916822,-0.18455515810817066,0.8280818557623798
1729873839714914800,3.797914794921875,-0.35832637548446655,0.4718475341796875,0.15814702212810516,-0.4521876573562622,0.14585070312023163,-0.8799169659614563,-0.05721181631088257,0.05324597656726837,0.17544925212860107,0.5030569006842565,0.16032475918809258,-0.18530374540236144,0.8287896501979061
1729873839724945000,3.80794482421875,-0.20848818123340607,0.08080888539552689,-0.09202900528907776,-0.4496256709098816,0.14860481023788452,-0.8807686567306519,0.06856787204742432,0.17601066827774048,0.06909263134002686,0.5034588256761858,0.15835784194185581,-0.18584530944654687,0.828802493187731
1729873839734975700,3.817975830078125,0.06985477358102798,-0.16121573746204376,-0.2609066963195801,-0.45045238733291626,0.1484280526638031,-0.8803759217262268,0.17480230331420898,0.2543734610080719,-0.03507512807846069,0.5041909114975682,0.1586098092087175,-0.18615844673170087,0.8282388091339555
1729873839745005800,3.828005859375,0.23420663177967072,-0.06621470302343369,-0.36049985885620117,-0.4520926773548126,0.14550960063934326,-0.8800222873687744,0.11246249079704285,0.19016848504543304,-0.11570525169372559,0.5052635338659097,0.159878987578039,-0.1855467028550382,0.8274780591000727
1729873839755037000,3.838036865234375,0.20838062465190887,0.2009168565273285,-0.24243395030498505,-0.45198512077331543,0.1420350819826126,-0.8806449174880981,-0.08086708188056946,0.0676664263010025,-0.08378678560256958,0.506445703518493,0.16049441679916157,-0.18417134056566012,0.8269432755764181
1729873839765066800,3.848066650390625,0.04489948973059654,0.46451959013938904,-0.017403237521648407,-0.44919103384017944,0.14025495946407318,-0.882358193397522,-0.18833649158477783,-0.05367659032344818,-0.03838765621185303,0.5071839331273078,0.15956042426004974,-0.1826509684143207,0.8270088107441297
1729873839775097900,3.858097900390625,-0.05560128390789032,0.5858659744262695,0.08008550107479095,-0.4443512260913849,0.14058393239974976,-0.8847531676292419,-0.1773223876953125,-0.07986922562122345,-0.03225421905517578,0.5074980137770877,0.15724728357793347,-0.18137447790487027,0.8275400948493032
1729873839785128700,3.868128662109375,-0.13012012839317322,0.5205976963043213,-0.06124499440193176,-0.43936821818351746,0.14146655797958374,-0.887097954750061,-0.09676462411880493,-0.00584644079208374,0.057538628578186035,0.5079760815583866,0.1546901335411774,-0.1803385155592589,0.827954950401026
1729873839795158800,3.87815869140625,-0.23635922372341156,0.4558136463165283,-0.24518153071403503,-0.4352061450481415,0.14233484864234924,-0.889008641242981,-0.02737930417060852,0.05534274876117706,0.12109488248825073,0.5092112319387172,0.15234098193282136,-0.17968833219377334,0.8277730600784885
1729873839805190000,3.88818994140625,-0.5188109278678894,0.1858002245426178,-0.32488808035850525,-0.4326612651348114,0.14438185095787048,-0.8899202942848206,0.036878734827041626,0.05526414513587952,0.26080048084259033,0.5110038669556571,0.15027439695678088,-0.18015951188325827,0.8269434093641422
1729873839815220000,3.898219970703125,-0.5042924284934998,-0.05752614513039589,-0.33149006962776184,-0.4326920211315155,0.14790654182434082,-0.889326274394989,0.10754242539405823,0.07432244718074799,0.1724989414215088,0.5128294278290778,0.1489386970250164,-0.18208271001345,0.8256325846165807
1729873839825250800,3.908250732421875,-0.28115180134773254,-0.0685126930475235,-0.34781336784362793,-0.43384984135627747,0.14977875351905823,-0.8884484171867371,0.09655424952507019,0.07409819960594177,0.07732176780700684,0.5144469899911817,0.14858493790408825,-0.1835709485341787,0.824359459999216
1729873839835281000,3.918281005859375,-0.1710873395204544,0.135595440864563,-0.26703864336013794,-0.43408817052841187,0.15052025020122528,-0.8882067203521729,0.015631109476089478,0.12493140995502472,0.02332329750061035,0.5159436874928377,0.1481546437966255,-0.18424671364694203,0.8233502492938164
1729873839845312000,3.92831201171875,-0.015541949309408665,0.23183652758598328,-0.22895994782447815,-0.43267735838890076,0.15026195347309113,-0.8889384865760803,-0.02490323781967163,0.15874376893043518,-0.0479205846786499,0.5171712259174375,0.14732965027750447,-0.183914970417699,0.8228021525414617
1729873839855341800,3.938341796875,-0.1125933974981308,0.2813156843185425,-0.2673174738883972,-0.43079066276550293,0.1495654582977295,-0.8899716734886169,-0.07490089535713196,0.024033769965171814,-0.04058551788330078,0.5184709283726889,0.1464005441349485,-0.1832513065725056,0.822297849294121
1729873839865373000,3.948373046875,-0.30704694986343384,0.31970667839050293,-0.19900284707546234,-0.42843109369277954,0.150563046336174,-0.8909419775009155,-0.11003634333610535,-0.0841110348701477,-0.011996805667877197,0.5198992600643002,0.14477454711735616,-0.18321939167312554,0.8216908703707534
1729873839875403800,3.95840380859375,-0.32970407605171204,0.3804270327091217,-0.09551002085208893,-0.4255867600440979,0.1526990830898285,-0.8919411301612854,-0.09597396850585938,-0.1697889268398285,0.0952187180519104,0.5210470281244403,0.14268796235172856,-0.1834927500563559,0.8212677607288748
1729873839885433900,3.968433837890625,-0.2580685019493103,0.5511344075202942,0.01341912243515253,-0.4215155243873596,0.1553947925567627,-0.8934075832366943,-0.10234928131103516,-0.1654808670282364,0.1776025891304016,0.5218667803214055,0.13998594242578508,-0.18357595302961846,0.8211936734373053
1729873839895465000,3.97846484375,-0.07363581657409668,0.68361496925354,0.02061178907752037,-0.4158589839935303,0.15683190524578094,-0.8958041667938232,-0.06962993741035461,-0.051241084933280945,0.24060702323913574,0.5224380603713097,0.1369962648187669,-0.1825649047445621,0.8215599454336442
1729873839905495000,3.9884951171875,-0.008649688214063644,0.6791403889656067,0.02378867194056511,-0.4096170663833618,0.15735501050949097,-0.8985840678215027,-0.0023855268955230713,0.07882051169872284,0.16681832075119019,0.5230236345961007,0.13400427275196664,-0.1809719111978589,0.8220331329877022
1729873839915526000,3.99852587890625,0.060311272740364075,0.5343014597892761,-0.034787554293870926,-0.40401703119277954,0.15706782042980194,-0.9011659026145935,0.13215112686157227,0.14182132482528687,0.030026376247406006,0.5235357291068022,0.13153518462127672,-0.179208129317547,0.8224921583969146
1729873839925556000,4.008555908203125,-0.08740795403718948,0.1752837747335434,-0.23191313445568085,-0.40094977617263794,0.15647494792938232,-0.9026377201080322,0.20542365312576294,0.011524304747581482,0.0648844838142395,0.5244037121837417,0.1301769918979215,-0.17814342874610298,0.8223866170189197
1729873839935586800,4.0185869140625,-0.4056554138660431,-0.11996784806251526,-0.29608866572380066,-0.40129655599594116,0.15761134028434753,-0.9022858142852783,0.15457719564437866,-0.14284084737300873,0.0929597020149231,0.5257319990429719,0.12972608116259024,-0.1789643149235272,0.8214309295910346
1729873839945617000,4.028616943359375,-0.5737595558166504,0.001595817506313324,-0.15260286629199982,-0.40245184302330017,0.16120702028274536,-0.9011353254318237,0.053330689668655396,-0.21871739625930786,0.07282721996307373,0.5269599933568463,0.12896442467860075,-0.18110916123769907,0.8202931426689671
1729873839955648000,4.03864794921875,-0.37675514817237854,0.38681939244270325,0.14446716010570526,-0.4007876515388489,0.16572177410125732,-0.90105801820755,-0.07513400912284851,-0.18583285808563232,0.09559237957000732,0.5274865459387517,0.12687789522680745,-0.1826827378017739,0.8199311716931599
1729873839965678000,4.048677978515625,0.12117794901132584,0.8234789371490479,0.3749437630176544,-0.39484351873397827,0.1680113822221756,-0.9032556414604187,-0.114082932472229,-0.024090483784675598,0.00034737586975097656,0.527014972628244,0.12377950008811592,-0.1817987896933201,0.8209039183645721
1729873839975709000,4.058708984375,0.45816129446029663,1.1138279438018799,0.4155127704143524,-0.3851921856403351,0.16675975918769836,-0.9076443314552307,-0.046295881271362305,0.09077808260917664,-0.08178132772445679,0.5260416625030443,0.1201678670917792,-0.1781502941918069,0.8228624145959145
1729873839985740000,4.068739990234375,0.45931532979011536,1.0683023929595947,0.32143715023994446,-0.3743842542171478,0.16373156011104584,-0.9127039313316345,0.07174137234687805,0.011118888854980469,0.02287238836288452,0.5251841412433291,0.11651413258899765,-0.1734142323040407,0.8249447357613315
1729873839995769900,4.078769775390625,-0.09696763008832932,0.5653169751167297,0.1763787567615509,-0.3662185072898865,0.16282518208026886,-0.916172444820404,0.18404382467269897,-0.17660389840602875,0.21934938430786133,0.5247674280085018,0.11332295033526589,-0.1705041985316441,0.8262599141147565
1729873840005801000,4.088801025390625,-0.5844021439552307,-0.022234253585338593,0.05804198235273361,-0.3637227714061737,0.16658218204975128,-0.9164912104606628,0.25959673523902893,-0.21362502872943878,0.13807934522628784,0.5247003820106636,0.11123158267917439,-0.1714115635383532,0.8263989991038213
1729873840015831000,4.0988310546875,-0.5455055832862854,-0.16380444169044495,-0.02687956392765045,-0.3648105263710022,0.1721601039171219,-0.9150269031524658,0.22894620895385742,-0.07981392741203308,0.0011169910430908203,0.5248726293952976,0.1101369900450258,-0.1742308874557201,0.8258463598066946
1729873840025862000,4.10886181640625,-0.042169567197561264,0.12990297377109528,-0.009166346862912178,-0.3652482330799103,0.17491251230239868,-0.914330005645752,0.06674051284790039,0.11761371791362762,-0.021598339080810547,0.5251281887503032,0.10951664954843027,-0.1756163614023562,0.8254728564405034
1729873840035892000,4.11889208984375,0.4515639841556549,0.7060374021530151,0.15272295475006104,-0.3613540232181549,0.1731291264295578,-0.9162148237228394,-0.10066691040992737,0.2592896819114685,-0.10250771045684814,0.5250854404357312,0.1083366852825387,-0.17365410329977937,0.8260707540978957
1729873840045923000,4.128923095703125,0.59392911195755,1.1394215822219849,0.308401495218277,-0.35223665833473206,0.1689050793647766,-0.9205435514450073,-0.16456329822540283,0.2192632555961609,-0.17143642902374268,0.5246272193993466,0.1056594708607406,-0.1690097773240032,0.8276702870540359
1729873840055953200,4.138953125,0.39443865418434143,1.109529733657837,0.3152428865432739,-0.34100431203842163,0.16534273326396942,-0.9254068732261658,-0.08859169483184814,0.004426553845405579,-0.08762413263320923,0.523972100777572,0.10192435425876437,-0.16403658110926284,0.8295520545315116
