time,seconds_elapsed,rotationRateX,rotationRateY,rotationRateZ,gravityX,gravityY,gravityZ,accelerationX,accelerationY,accelerationZ,quaternionW,quaternionX,quaternionY,quaternionZ
1728404105449193200,0.062193115234375,-0.21132725477218628,0.09718269854784012,0.14935991168022156,0.38340499997138977,0.3882197439670563,-0.8380250930786133,-0.04125714302062988,-0.010869860649108887,-0.0028104782104492188,0.9586514257983798,-0.20248222609146538,0.19997101904367132,-2.3988237764037803e-17
1728404105459223300,0.072223388671875,-0.1439567357301712,0.11069212108850479,0.1933039277791977,0.38448813557624817,0.3890571892261505,-0.8371399641036987,-0.03628253936767578,-0.010761260986328125,0.005825936794281006,0.9584201417098677,-0.2031456384904344,0.20040424059988363,0.0008496744055393592
1728404105469254100,0.082254150390625,-0.052561432123184204,0.10233613848686218,0.21103845536708832,0.385892778635025,0.3890877068042755,-0.8364792466163635,-0.03144633769989014,-0.010166168212890625,0.0037461519241333008,0.9582465182337966,-0.2033958164184557,0.20097393232180294,0.0017887135274357376
1728404105479285200,0.09228515625,-0.005297516472637653,0.09437833726406097,0.22574256360530853,0.3871341049671173,0.38864240050315857,-0.8361126184463501,-0.025470256805419922,0.007933557033538818,-0.028541922569274902,0.9581488528276321,-0.2033734931950331,0.20145201977060073,0.0026848987903150415
1728404105489315300,0.1023154296875,0.016036801040172577,0.05139864981174469,0.25856390595436096,0.3879415690898895,0.3880630433559418,-0.8360074758529663,-0.014513194561004639,0.030867010354995728,-0.04135763645172119,0.9581182297085313,-0.20328116065885282,0.2016755971777768,0.003648723664884277
1728404105499346200,0.11234619140625,0.0300157330930233,-0.022168776020407677,0.27161046862602234,0.3883081078529358,0.38700467348098755,-0.8363277912139893,-0.017488986253738403,0.03718969225883484,-0.03743618726730347,0.9581967727838105,-0.20295127081841624,0.20161069725591807,0.00478603829921675
1728404105509377300,0.122377197265625,0.0021335682831704617,-0.018730314448475838,0.25902968645095825,0.38856807351112366,0.3857156038284302,-0.8368024230003357,-0.01436150074005127,0.031017214059829712,-0.03352832794189453,0.9583135810861186,-0.20251457616669036,0.2014612137824491,0.006029269781301216
1728404105519407400,0.132407470703125,0.01773010566830635,-0.024548521265387535,0.28224101662635803,0.38871267437934875,0.38429948687553406,-0.8373866081237793,-0.018336057662963867,0.032128095626831055,-0.029037892818450928,0.9584571510899478,-0.202009216975875,0.20124355338098798,0.00729182191354634
1728404105529438200,0.142438232421875,-0.05056799203157425,-0.03371981158852577,0.29736191034317017,0.3884141147136688,0.3832695186138153,-0.8379970192909241,-0.037172019481658936,0.02887040376663208,-0.021316945552825928,0.9586053960600703,-0.20171444629312124,0.2007804398583752,0.008615394577930084
1728404105539469300,0.15246923828125,-0.12467843294143677,0.03165892884135246,0.34908953309059143,0.38867270946502686,0.3829399347305298,-0.8380277752876282,-0.03300553560256958,0.010675817728042603,-0.02458202838897705,0.9585986879222171,-0.20185831267752807,0.20059743215235668,0.010125479944220977
1728404105549499400,0.16249951171875,-0.1624876707792282,0.07570137828588486,0.3930615186691284,0.3899122476577759,0.38276538252830505,-0.837531566619873,-0.02664622664451599,-0.008604586124420166,-0.012886464595794678,0.9584484056781346,-0.20218235433002488,0.20088928643849682,0.011940234503392759
1728404105559530200,0.1725302734375,-0.14199624955654144,0.13677218556404114,0.37049657106399536,0.39132219552993774,0.38282427191734314,-0.8368467688560486,-0.056315451860427856,-0.03200942277908325,-0.007223606109619141,0.9582460781567733,-0.20263190647680657,0.20128815429602684,0.013707208595857084
1728404105569561300,0.182561279296875,-0.058735642582178116,0.20876291394233704,0.4090910851955414,0.3936977684497833,0.38250285387039185,-0.8358789682388306,-0.07248497009277344,-0.047892868518829346,-0.023648560047149658,0.9579677461854236,-0.2028939304212193,0.20222407700034972,0.015400830313461226
1728404105579591200,0.192591064453125,0.005673442035913467,0.2420377880334854,0.45597338676452637,0.3972959816455841,0.3809874951839447,-0.8348679542541504,-0.09292885661125183,-0.022695839405059814,-0.02815389633178711,0.957671723890901,-0.2025919557858022,0.20377078828074702,0.017288255387244825
1728404105589622300,0.202622314453125,0.035754576325416565,0.2066212147474289,0.487831711769104,0.4009960889816284,0.3788982331752777,-0.8340493440628052,-0.08129391074180603,0.004372060298919678,-0.051677584648132324,0.9574195678011211,-0.20201395971878477,0.2053428780375274,0.019299459798462166
1728404105599653000,0.212653076171875,0.001572906505316496,0.15675193071365356,0.4844857156276703,0.40436336398124695,0.37673768401145935,-0.8334020376205444,-0.05066460371017456,0.008928239345550537,-0.05716186761856079,0.9572048108515993,-0.20142190341009522,0.20670798331509366,0.021446533736563075
1728404105609683000,0.222682861328125,-0.0737188458442688,0.10964006930589676,0.5019834637641907,0.4073350131511688,0.37502750754356384,-0.8327259421348572,-0.041459739208221436,0.004641681909561157,-0.04463911056518555,0.9569747807488345,-0.20109390287177914,0.207841912266652,0.023710486113113736
1728404105619714300,0.23271435546875,-0.14094822108745575,0.08053837716579437,0.5134888887405396,0.41005611419677734,0.37389010190963745,-0.8319015502929688,-0.040884941816329956,-0.0066720545291900635,-0.024238526821136475,0.9566962350591451,-0.20111207461919428,0.20881366802277937,0.026138705788882784
1728404105629745200,0.2427451171875,-0.12910494208335876,0.07316956669092178,0.5924034118652344,0.4127579927444458,0.37274354696273804,-0.8310794830322266,-0.040123045444488525,-0.02203550934791565,-0.010259568691253662,0.956402913056252,-0.20119735586032875,0.20971378871932994,0.02886775162221855
1728404105639775000,0.25277490234375,-0.11873859167098999,0.08381688594818115,0.6555408239364624,0.41575682163238525,0.3711811602115631,-0.8302835822105408,-0.036194413900375366,-0.03443494439125061,-0.010445117950439453,0.9560979030040316,-0.2011462389835613,0.21070929493152094,0.03191558661747283
1728404105649806300,0.262806396484375,-0.22288702428340912,0.09429935365915298,0.6791303157806396,0.41900643706321716,0.36973682045936584,-0.8292938470840454,-0.025665342807769775,-0.03387564420700073,-0.023596107959747314,0.9557224424965538,-0.2012414087067515,0.21178992806166008,0.035235462522583264
1728404105659837200,0.272837158203125,-0.3068373203277588,0.07469715923070908,0.6400854587554932,0.42219454050064087,0.3692082464694977,-0.8279112577438354,-0.017592430114746094,-0.02080431580543518,-0.028625547885894775,0.9552310678578037,-0.20185449810935213,0.2128359269769726,0.03859103299072502
1728404105669867000,0.282866943359375,-0.3201065957546234,-0.010936256498098373,0.6207226514816284,0.42484256625175476,0.36916396021842957,-0.8265753388404846,-0.01659366488456726,-0.009972065687179565,-0.025917887687683105,0.9547414321320568,-0.2027078573432364,0.21359276610354766,0.04190969910072288
1728404105679898400,0.2928984375,-0.3512967526912689,-0.1572340875864029,0.5869551301002502,0.4264039397239685,0.36934152245521545,-0.8256915211677551,-0.01147162914276123,-0.0038019418716430664,-0.020331978797912598,0.9543576811960771,-0.20363612954052845,0.21374413770285228,0.04524542559812171
1728404105689929200,0.30292919921875,-0.45452338457107544,-0.24959707260131836,0.5531046986579895,0.42676109075546265,0.3702099025249481,-0.8251179456710815,0.03179606795310974,0.017576992511749268,-0.03221231698989868,0.9540423776087851,-0.20488408462939942,0.21322179442278286,0.048602693421814454
1728404105699959000,0.312958984375,-0.6186979413032532,-0.2426305115222931,0.5389993190765381,0.4267517030239105,0.37230631709098816,-0.8241789937019348,0.06694644689559937,0.02231651544570923,-0.02848207950592041,0.9536145588182183,-0.20680405819131636,0.21246784769355348,0.05204647946947315
1728404105709990100,0.322990234375,-0.7737371325492859,-0.23102132976055145,0.520252525806427,0.4267914891242981,0.3758310377597809,-0.8225570321083069,0.04711604118347168,-0.012931227684020996,-0.009443700313568115,0.9529908476304773,-0.20952777750386942,0.21170639314448064,0.05556060167144756
1728404105720021200,0.333021240234375,-0.9060051441192627,-0.22825084626674652,0.5134869813919067,0.4268650710582733,0.38054102659225464,-0.8203503489494324,0.018813669681549072,-0.04359641671180725,0.012397527694702148,0.9521951180256948,-0.21292695416471932,0.2109192461150685,0.05915768687278295
1728404105730051000,0.343051025390625,-1.0973070859909058,-0.15666617453098297,0.5214810371398926,0.42717504501342773,0.3865315616130829,-0.8173829317092896,0.009348422288894653,-0.050914496183395386,0.03604137897491455,0.9511763958415264,-0.21708361791633596,0.21019811413328807,0.06288840937529518
1728404105740082200,0.353082275390625,-1.3074171543121338,-0.22212162613868713,0.5053675770759583,0.42767056822776794,0.3941180109977722,-0.8134917616844177,0.013216972351074219,-0.06202572584152222,0.063995361328125,0.9498836805326929,-0.22219548918773246,0.20948333867974014,0.06683519497872345
1728404105750113300,0.36311328125,-1.5769693851470947,-0.14683517813682556,0.5637789368629456,0.42811647057533264,0.4036119878292084,-0.8085874915122986,0.007949233055114746,-0.07521229982376099,0.09899282455444336,0.9482859802728825,-0.22844106999801186,0.20861672121102642,0.07104641425100033
1728404105760143000,0.37314306640625,-1.8145649433135986,0.08110450953245163,0.7995733618736267,0.43078139424324036,0.41438180208206177,-0.8016951680183411,-0.0019330978393554688,-0.09419134259223938,0.14135581254959106,0.946077826507061,-0.23577814238628858,0.20871293741305,0.07605458909552726
1728404105770174200,0.38317431640625,-2.0375139713287354,0.01140468381345272,0.990537703037262,0.43500789999961853,0.42583203315734863,-0.7933695912361145,0.0005695223808288574,-0.12395215034484863,0.1572001576423645,0.9433504642001419,-0.2439619783581719,0.20927916758941262,0.08230931909219902
1728404105780205300,0.393205322265625,-2.2281248569488525,-0.021965790539979935,1.1113368272781372,0.4396214485168457,0.4381611943244934,-0.7840585112571716,0.0474238395690918,-0.1462758183479309,0.1106119155883789,0.9402233398984357,-0.2529699073837447,0.20970688607719548,0.0894944975388909
1728404105791489000,0.404489013671875,-2.3396494388580322,-0.04976056143641472,1.196449875831604,0.4451027512550354,0.4525178372859955,-0.7727296352386475,0.07458111643791199,-0.17415174841880798,0.07181721925735474,0.9363104633452439,-0.26372125017886017,0.20996731681035227,0.09842504116302274
1728404105810309000,0.42330908203125,-2.3563671112060547,-0.020924706012010574,0.8845111727714539,0.45421653985977173,0.47703245282173157,-0.7524144053459167,0.013572216033935547,-0.13358759880065918,0.06477707624435425,0.9292423242681235,-0.28218122825569897,0.21015841785846928,0.11276500391858277
1728404105820340200,0.43334033203125,-2.5316145420074463,0.17900653183460236,0.1381722390651703,0.45746317505836487,0.49259984493255615,-0.7403194308280945,-0.02441871166229248,-0.07930025458335876,0.10128140449523926,0.9253362830451152,-0.29292257107381076,0.20984911731833147,0.11795125334404927
1728404105830370300,0.443370361328125,-2.877573251724243,-0.48072031140327454,-0.8007307648658752,0.454848974943161,0.5149050354957581,-0.7266258597373962,-0.03240936994552612,-0.11936676502227783,0.1525140404701233,0.9215556067377734,-0.3060446491465827,0.2074216233553257,0.11852496434612614
1728404105840401200,0.453401123046875,-3.3196868896484375,-0.9047035574913025,-0.19116438925266266,0.44654497504234314,0.539667546749115,-0.7136921286582947,-0.08237865567207336,-0.30217981338500977,0.21544700860977173,0.9178012551368416,-0.3203926344923793,0.20125231836645888,0.12036124057904685
1728404105850432300,0.463432373046875,-3.6392791271209717,-1.1132659912109375,0.6764500737190247,0.44078826904296875,0.5633887052536011,-0.698783814907074,0.19039157032966614,-0.2740362882614136,0.32135772705078125,0.9128744339273688,-0.33562229497334556,0.19484804953456344,0.12669697415203135
1728404105860462000,0.473462158203125,-3.613898992538452,-0.9196479320526123,1.1442950963974,0.43903282284736633,0.5843627452850342,-0.6824736595153809,0.32036659121513367,-0.09335017204284668,0.27599483728408813,0.9070033962130721,-0.35059417334070125,0.1893327493249635,0.13631421008646175
1728404105870493200,0.4834931640625,-3.735970973968506,-0.6127630472183228,1.1469273567199707,0.4409458637237549,0.6039047241210938,-0.663977324962616,0.1626461148262024,-0.05649566650390625,0.15790438652038574,0.9003016781172903,-0.36555184298659427,0.1854270213898394,0.14644345472482964
1728404105880524000,0.49352392578125,-3.821010112762451,-0.5388110876083374,0.8320322036743164,0.44327786564826965,0.6244242191314697,-0.64311683177948,-0.018885135650634766,-0.06834816932678223,0.03772437572479248,0.8929683027741573,-0.3812879020865353,0.1818271923012704,0.15545476239284362
1728404105890554000,0.50355419921875,-3.8712527751922607,-0.44202250242233276,0.7049757242202759,0.44499412178993225,0.6453981995582581,-0.6208391785621643,-0.08323875069618225,-0.14529144763946533,0.04330939054489136,0.8853112908278472,-0.39733363923905746,0.1780628446559175,0.1632280837858148
1728404105900585200,0.513585205078125,-3.9041056632995605,-0.4522477090358734,0.7912144660949707,0.4471220374107361,0.6659014225006104,-0.5972077250480652,-0.08614486455917358,-0.15184813737869263,0.022928059101104736,0.8771661326273164,-0.4135271550868172,0.17433133836128056,0.17083153274787222
1728404105910616000,0.523615966796875,-3.955462694168091,-0.38797855377197266,0.9244042634963989,0.4504901170730591,0.6850234270095825,-0.5725395679473877,-0.007573246955871582,-0.13421165943145752,0.0839684009552002,0.8684850058341574,-0.4295746874311143,0.17086782000260795,0.17889537161552307
1728404105920646100,0.533646240234375,-4.11044979095459,-0.26981356739997864,0.9632278084754944,0.45530107617378235,0.7032982110977173,-0.5459601283073425,0.04210498929023743,-0.11386650800704956,0.12832719087600708,0.8590403020282716,-0.44592147193201637,0.16785106388993082,0.1871623388298966
1728404105930677200,0.54367724609375,-4.453804016113281,-0.3914808928966522,0.7882309556007385,0.45985957980155945,0.7219679355621338,-0.5170023441314697,0.04812076687812805,-0.10307151079177856,0.1679118275642395,0.8487561698581473,-0.4631188519614015,0.16437687118588903,0.19522830072989955
1728404105940708000,0.5537080078125,-5.009377956390381,-0.6352844834327698,0.6740599274635315,0.462541788816452,0.7424564361572266,-0.4845755696296692,0.039243489503860474,-0.13871198892593384,0.23376688361167908,0.8372224499515939,-0.4820593476520158,0.15915717586719527,0.20333788752378812
1728404105950738200,0.56373828125,-5.425386428833008,-0.9614953398704529,0.5656516551971436,0.46341031789779663,0.7641804814338684,-0.4486413300037384,0.05506810545921326,-0.11964929103851318,0.21197757124900818,0.8242470456003522,-0.5026153314376693,0.15184583377381564,0.2119845303060427
1728404105960769300,0.573769287109375,-5.280320644378662,-1.0830541849136353,0.5292105674743652,0.46332451701164246,0.784691572189331,-0.41181260347366333,0.06565195322036743,-0.14472264051437378,0.2247399091720581,0.8106507143506527,-0.523023988013183,0.14331646126080083,0.22079802093023268
1728404105970800000,0.583800048828125,-5.148722171783447,-1.0194823741912842,0.655716061592102,0.463702917098999,0.8026744723320007,-0.37509095668792725,0.030376732349395752,-0.127122163772583,0.12159675359725952,0.7967533239729464,-0.542519278647137,0.13463788219828102,0.2296292245503608
1728404105980830200,0.593830322265625,-4.932799339294434,-0.8601486682891846,0.8016423583030701,0.4662981629371643,0.8172653317451477,-0.3385904133319855,0.010493278503417969,-0.040074169635772705,0.05805760622024536,0.7825863412625738,-0.5608623657690965,0.12703622623009783,0.238440425077791
1728404105990861000,0.603861083984375,-4.741838455200195,-0.7804770469665527,0.9383234977722168,0.4709157347679138,0.8287106156349182,-0.30245187878608704,0.006089329719543457,0.024103105068206787,0.041114628314971924,0.7682032177466156,-0.5781490449799565,0.12048961661336718,0.24716352889123686
1728404106000892200,0.61389208984375,-4.679690837860107,-0.8087382316589355,0.957136869430542,0.4766578674316406,0.8375925421714783,-0.26690077781677246,-0.021030396223068237,0.01610618829727173,0.10099202394485474,0.7536320437651464,-0.5945353908414134,0.11435590412516965,0.25590850490220624
1728404106010922200,0.623922119140625,-4.639355659484863,-0.8813776969909668,0.9005599021911621,0.4824180006980896,0.8447641730308533,-0.23161675035953522,-0.023525118827819824,-0.020392894744873047,0.0780828595161438,0.7387936990244309,-0.6103645454178613,0.1079200782005531,0.26456046215086093
1728404106020953000,0.633953125,-4.634178161621094,-0.9547784328460693,0.8526245951652527,0.4879209101200104,0.8504454493522644,-0.19666124880313873,-0.0320950448513031,-0.02969050407409668,0.12134392559528351,0.7237276511945354,-0.6256667073675543,0.10104724671011592,0.2730363630492604
1728404106030984200,0.643984130859375,-4.679215431213379,-1.052151083946228,0.8119322657585144,0.49324706196784973,0.8547199964523315,-0.16174359619617462,-0.019934654235839844,-0.042693138122558594,0.1125493198633194,0.7082590841464649,-0.6405983761071681,0.09360512531760547,0.28149751263606154
1728404106041014300,0.65401416015625,-4.798213005065918,-1.08803129196167,0.7927644848823547,0.49852919578552246,0.8575942516326904,-0.12649382650852203,-0.013742178678512573,-0.047718822956085205,0.14260710775852203,0.6922402370838125,-0.6553005782922139,0.0856401803390961,0.28991432171208537
1728404106051045000,0.664045166015625,-4.890982151031494,-1.108964204788208,0.8449051380157471,0.5043707489967346,0.8587636947631836,-0.09019391238689423,-0.01602846384048462,-0.02375704050064087,0.13891524076461792,0.6753489085083739,-0.6700038362265599,0.07744614166766209,0.2983299423499297
1728404106061076200,0.674076171875,-4.895427703857422,-1.1918071508407593,0.8669366836547852,0.5109463930130005,0.8579235672950745,-0.0538589283823967,-0.007436871528625488,-0.0019971728324890137,0.1753036379814148,0.6578288361797744,-0.6843220616870047,0.06909306285456149,0.30690488840453345
1728404106071106300,0.684106201171875,-4.767100811004639,-1.2728482484817505,0.8508722186088562,0.5179211497306824,0.8552256226539612,-0.01861857809126377,0.014656364917755127,0.012205898761749268,0.13531780242919922,0.6400980705419256,-0.6978747041176703,0.06051122352457022,0.31556876367545383
1728404106081137200,0.69413720703125,-4.5748291015625,-1.3224929571151733,0.8405865430831909,0.5251327753067017,0.850895881652832,0.01455072220414877,0.01974332332611084,0.05829900503158569,0.07803964614868164,0.6226112546653936,-0.7103404996932311,0.05188193958567673,0.32416019370991234
1728404106091168300,0.704168212890625,-4.2328596115112305,-1.2878270149230957,0.8686368465423584,0.5327785015106201,0.8450382947921753,0.045359786599874496,0.030667603015899658,0.14199179410934448,-0.002421494573354721,0.6056032053787507,-0.7216473732423333,0.04364586400672165,0.33251306927768903
1728404106101198000,0.714197998046875,-3.8593475818634033,-1.213564395904541,0.938231885433197,0.5411583185195923,0.8377715945243835,0.07270775735378265,0.035196661949157715,0.1924712061882019,-0.046615250408649445,0.5896126954313786,-0.7314576774493651,0.03638054343592982,0.34059211876467727
1728404106111229200,0.724229248046875,-3.6583800315856934,-1.2334338426589966,0.9629076719284058,0.5502023100852966,0.8293370008468628,0.09735282510519028,0.027922749519348145,0.18418222665786743,-0.09811580181121826,0.5743280610978305,-0.7401249629047767,0.02985718262612294,0.348526741854806
1728404106121260300,0.73426025390625,-3.241795301437378,-1.2104222774505615,0.8906785249710083,0.5592515468597412,0.8203684687614441,0.11930325627326965,0.01911759376525879,0.15984082221984863,-0.03988123685121536,0.559884154560965,-0.7477221369058005,0.023732590611889124,0.3561995333054251
1728404106131290000,0.7442900390625,-2.8508572578430176,-1.1120020151138306,0.8487268090248108,0.5678269267082214,0.8116061091423035,0.13736075162887573,0.008314430713653564,0.12717550992965698,-0.04290880262851715,0.5470876764877488,-0.7538875564064295,0.018273682744898725,0.36333821153159146
1728404106141321200,0.7543212890625,-2.8270957469940186,-1.0383466482162476,0.9050797820091248,0.5764825344085693,0.8024113774299622,0.15428508818149567,-0.002065420150756836,0.11989080905914307,-0.09222759306430817,0.5347608021834647,-0.7595793686277148,0.013480536311318243,0.3699842455414424
1728404106151352000,0.76435205078125,-2.4168248176574707,-0.9301131367683411,0.9595731496810913,0.5855563879013062,0.7926651239395142,0.16972224414348602,0.012908577919006348,0.16572409868240356,0.010392531752586365,0.5229463267053011,-0.7647034360490625,0.00947513456434938,0.3763853787499518
1728404106161382100,0.774382080078125,-1.9840247631072998,-0.934161365032196,0.9767476320266724,0.5949181318283081,0.7830219268798828,0.18151861429214478,0.020819783210754395,0.1649913191795349,0.045684799551963806,0.5127084154433684,-0.7685798641460811,0.006655783024188806,0.38258430585789
1728404106171413200,0.784413330078125,-1.8148528337478638,-0.9233812093734741,0.8477976322174072,0.6038374304771423,0.7739866375923157,0.1905907690525055,0.011427462100982666,0.14236456155776978,-0.0141533762216568,0.5037100763367287,-0.7715423276200318,0.00422151071644204,0.3885623301712735
1728404106181444000,0.794444091796875,-1.9405615329742432,-0.9374831318855286,0.7198817133903503,0.6116656064987183,0.7655837535858154,0.19936630129814148,-0.0029161572456359863,0.12815403938293457,0.05704236030578613,0.4949386290149734,-0.7743911421778661,0.001228510098318144,0.39414804810369486
1728404106191474200,0.80447412109375,-1.9850963354110718,-0.922974169254303,0.7406317591667175,0.6191165447235107,0.7570562958717346,0.20871154963970184,-0.023428618907928467,0.1193627119064331,0.12251102924346924,0.4858038717718332,-0.7774002163334693,-0.0021627591716011133,0.3995483054551268
1728404106201505300,0.81450537109375,-1.818500280380249,-0.899969220161438,0.7754262089729309,0.6268113851547241,0.748226523399353,0.21740375459194183,-0.010508835315704346,0.12274503707885742,0.13922461867332458,0.4768042540456875,-0.7801758852214886,-0.00524081904064087,0.40491449289590514
1728404106211536100,0.8245361328125,-1.71417236328125,-0.8684513568878174,0.7474153637886047,0.63448166847229,0.7394803166389465,0.2249484658241272,-0.003774881362915039,0.10448324680328369,0.07119417190551758,0.4683133102874343,-0.7825671225259172,-0.007932974006878106,0.410132187618375
1728404106221566200,0.834566162109375,-1.6284782886505127,-0.8404626250267029,0.6984014511108398,0.6417697072029114,0.7310312390327454,0.23178701102733612,-0.022125422954559326,0.08993738889694214,0.02042558789253235,0.46021188472411695,-0.7847179219063143,-0.010549401664980895,0.41510433100819794
1728404106231597300,0.844597412109375,-1.4850318431854248,-0.7733718156814575,0.6781063079833984,0.6486763954162598,0.7229027152061462,0.23797132074832916,-0.03734833002090454,0.10850280523300171,0.01918502151966095,0.4525620728299125,-0.7866495297040407,-0.012968262228538264,0.41976397178077157
1728404106241628200,0.854628173828125,-1.309059500694275,-0.7082157135009766,0.680225670337677,0.6553674340248108,0.7150990962982178,0.24316023290157318,-0.023958683013916016,0.14123940467834473,-0.025569915771484375,0.44557478488905833,-0.7882627107534947,-0.014900201469362566,0.4241262071592389
1728404106251658200,0.864658203125,-1.2141752243041992,-0.6568785309791565,0.6680174469947815,0.6618821024894714,0.7075200080871582,0.24764378368854523,-0.00573885440826416,0.14485114812850952,-0.06638467311859131,0.43908969657374963,-0.7896532671927907,-0.01641978186045573,0.428226950129852
1728404106261689000,0.874689208984375,-1.1750059127807617,-0.6385466456413269,0.6389450430870056,0.6681178212165833,0.7001669406890869,0.251763254404068,0.003223121166229248,0.12838518619537354,-0.05992975831031799,0.4328964900183386,-0.7909264035147694,-0.017806139563068465,0.432109899238178
1728404106271720200,0.88472021484375,-1.2201460599899292,-0.6423473954200745,0.6043476462364197,0.6741043329238892,0.6929553747177124,0.2557269334793091,0.009245336055755615,0.09668689966201782,-0.024846196174621582,0.42677157644932967,-0.7921432403766118,-0.019301687990922373,0.435892868683619
1728404106281750300,0.894750244140625,-1.4451829195022583,-0.7032656073570251,0.5673108100891113,0.6799158453941345,0.6855066418647766,0.2603750228881836,0.01911979913711548,0.06810963153839111,-0.014647483825683594,0.4201018443364176,-0.7935568868328631,-0.02133008232984733,0.4396896383963956
1728404106291781000,0.904781005859375,-1.5071996450424194,-0.6170497536659241,0.5143511891365051,0.6853154301643372,0.6778755187988281,0.266134649515152,0.03235125541687012,0.0522269606590271,-0.00559079647064209,0.41290089509725025,-0.7952985936653397,-0.023821629618458243,0.4432218097748393
1728404106301812200,0.914812255859375,-1.4095168113708496,-0.5438613295555115,0.500082790851593,0.690342903137207,0.6704584360122681,0.27186843752861023,0.04226219654083252,0.03635925054550171,-0.02339431643486023,0.40589159583936346,-0.7970222931159311,-0.02626174996393045,0.4464503522977509
1728404106311842300,0.92484228515625,-1.3634870052337646,-0.6072800755500793,0.49922603368759155,0.6952589154243469,0.6631563901901245,0.2771987020969391,0.04444164037704468,0.04787278175354004,-0.024177372455596924,0.39913815159265725,-0.7986150697059816,-0.028518810674576286,0.4495437195353248
1728404106321873200,0.934873046875,-1.219061017036438,-0.6507412791252136,0.5162412524223328,0.7003675103187561,0.6559509038925171,0.2814497947692871,0.06110715866088867,0.09902346134185791,-0.01109457015991211,0.39266045365945274,-0.7998642257706,-0.030693905012192116,0.4528718971447665
1728404106331904300,0.944904296875,-1.0784488916397095,-0.5906283259391785,0.4945785403251648,0.7055051922798157,0.6491451263427734,0.2843824326992035,0.08270293474197388,0.12784767150878906,-0.02075633406639099,0.38684916385658924,-0.8007098619746932,-0.03247975490573927,0.45624187718212994
1728404106341934000,0.95493408203125,-1.2053061723709106,-0.5530375242233276,0.4172065556049347,0.7100979685783386,0.6426650285720825,0.2876504063606262,0.06668126583099365,0.10687720775604248,-0.039542436599731445,0.3811891120044947,-0.8016537239886286,-0.034300198464438374,0.45920555038478555
1728404106351965200,0.964965087890625,-1.1724032163619995,-0.6738283038139343,0.2878917157649994,0.7141549587249756,0.6365340948104858,0.2912164330482483,0.007555246353149414,0.04965364933013916,0.035260558128356934,0.3753123929027863,-0.8026527036923307,-0.03683555364547897,0.4620956587939316
1728404106361996300,0.974996337890625,-0.6988089084625244,-0.7225343585014343,0.20408174395561218,0.7177547812461853,0.6320780515670776,0.292071133852005,-0.022289633750915527,-0.003980517387390137,0.08051800727844238,0.37083527657015825,-0.8027967616534627,-0.03940713864943203,0.4652372345840256
1728404106372026000,0.985026123046875,-0.44792962074279785,-0.6385276317596436,0.2682631313800812,0.72123783826828,0.6287486553192139,0.29067403078079224,-0.008072495460510254,0.04741412401199341,-0.12401744723320007,0.3678999642897308,-0.8022801325693052,-0.04103172000959075,0.46830836303958995
1728404106382057200,0.99505712890625,-0.20726612210273743,-0.5480027794837952,0.288750559091568,0.7247459292411804,0.6257176995277405,0.28847989439964294,0.02220231294631958,0.23319947719573975,-0.19592013955116272,0.3657780473523166,-0.8015594562247783,-0.04174191119043066,0.4711331481191905
1728404106392087300,1.00508740234375,-0.004835192114114761,-0.6575166583061218,0.20749405026435852,0.7280615568161011,0.6235798597335815,0.2847360670566559,0.0205346941947937,0.3186503052711487,-0.120169997215271,0.36467242751700907,-0.8003765427981802,-0.04201688549668851,0.47396836786771057
1728404106402118100,1.0151181640625,0.0881647914648056,-0.6043937802314758,0.10817864537239075,0.7308520078659058,0.6225302815437317,0.27984142303466797,0.010343670845031738,0.23333507776260376,-0.09676650166511536,0.3642563832893742,-0.7988179887310575,-0.04255034241070621,0.47686112038730594
1728404106412149200,1.025149169921875,0.5962079763412476,-0.539251983165741,0.1622842252254486,0.7332599759101868,0.6224462389945984,0.27366119623184204,0.015534579753875732,0.12888121604919434,-0.07779932022094727,0.36511151376220086,-0.7968962467499285,-0.04227248287825411,0.4794402933319402
1728404106422179300,1.035179443359375,0.8996991515159607,-0.4856971502304077,0.2080804705619812,0.7358388304710388,0.6231643557548523,0.26496732234954834,0.04300040006637573,0.1012466549873352,-0.14204248785972595,0.3676802309984343,-0.7942533673485799,-0.04056175473823259,0.48200382263187447
1728404106432210200,1.045210205078125,0.9249996542930603,-0.42033857107162476,0.19512127339839935,0.738326370716095,0.6240141987800598,0.25589147210121155,0.04917973279953003,0.1371551752090454,-0.15814363956451416,0.3706927650760264,-0.7914989898762832,-0.03840678711587571,0.4843977327783636
1728404106442241300,1.0552412109375,0.8461357355117798,-0.3605937659740448,0.26628467440605164,0.7406789660453796,0.6246498823165894,0.24740085005760193,0.01778966188430786,0.16995149850845337,-0.05814613401889801,0.3736715658210821,-0.788924937183065,-0.03602591590523466,0.48648651495688083
1728404106452271000,1.06527099609375,0.6517786979675293,-0.23265357315540314,0.336154043674469,0.7433769106864929,0.6241326332092285,0.24051862955093384,-0.022093892097473145,0.11904662847518921,-0.04450428485870361,0.3757569188172392,-0.7868491005781527,-0.03358288147922959,0.48841316878588303
1728404106462302200,1.07530224609375,0.7723450660705566,-0.1345112919807434,0.27768459916114807,0.7457584142684937,0.6234690546989441,0.2347995638847351,-0.04185515642166138,-0.012766540050506592,0.0010707378387451172,0.3777276580881434,-0.7851376081201306,-0.030963200160420867,0.48981842283789695
1728404106472333300,1.085333251953125,1.0266624689102173,-0.08642595261335373,0.24317722022533417,0.7475774884223938,0.6236505508422852,0.22844712436199188,-0.05974173545837402,-0.12947934865951538,-0.028450220823287964,0.38059295714552,-0.7832244087984955,-0.027983731700047334,0.4908416569991578
1728404106482363100,1.095363037109375,1.458389401435852,-0.09073840826749802,0.3735562860965729,0.7496823072433472,0.6241724491119385,0.21996718645095825,-0.03520464897155762,-0.0470544695854187,-0.05703374743461609,0.384729846422646,-0.7806493218171049,-0.023879470677855726,0.4919344436698037
1728404106492394200,1.105394287109375,1.5018082857131958,-0.11484400928020477,0.43306195735931396,0.7525016665458679,0.6243036389350891,0.2097296267747879,0.02400296926498413,0.1411992907524109,-0.0886053740978241,0.3895975083434799,-0.7775050731830851,-0.018726335544113775,0.4933042808569619
1728404106502425000,1.115425048828125,1.2410329580307007,-0.09007970243692398,0.43800848722457886,0.7554316520690918,0.6238569021224976,0.20031368732452393,0.027832508087158203,0.22308212518692017,-0.06972897052764893,0.3938651966028645,-0.7745741183314826,-0.013848549956358938,0.4946851322174077
1728404106512455200,1.125455078125,1.02647066116333,0.009589046239852905,0.45502954721450806,0.7583298087120056,0.622681200504303,0.19288375973701477,-0.051252663135528564,0.09092658758163452,0.059084683656692505,0.39716278665759813,-0.7722398995613386,-0.009349802433711375,0.4958022833262664
1728404106522486300,1.135486328125,0.7756722569465637,-0.007029877509921789,0.4996364712715149,0.7612544298171997,0.6207743883132935,0.1874322146177292,-0.10146439075469971,-0.14677542448043823,0.0682746022939682,0.3993980918773902,-0.7705113428345538,-0.00532743326296306,0.4967545064077862
1728404106532517000,1.14551708984375,1.110840082168579,0.05263611301779747,0.50554358959198,0.7644485235214233,0.6185106039047241,0.18183274567127228,-0.11164695024490356,-0.2460283637046814,0.01993417739868164,0.4017095612464362,-0.7687103047140349,-0.0009182656878192415,0.49770781832556654
1728404106542547200,1.155547119140625,1.2235552072525024,0.12736451625823975,0.4468003809452057,0.7671975493431091,0.6170170307159424,0.17520922422409058,-0.06147843599319458,-0.2522708773612976,-0.1734696477651596,0.40505400502094907,-0.766543395583823,0.003979262094328427,0.4983239956777292
1728404106552578300,1.165578369140625,1.7646934986114502,0.1213538721203804,0.5525206923484802,0.7700337171554565,0.615699291229248,0.16722014546394348,-0.05657839775085449,-0.16965436935424805,-0.1503133624792099,0.40940800088114354,-0.7638808681351801,0.009802605234528883,0.4987735834978182
1728404106562609200,1.175609130859375,2.0136239528656006,0.08724969625473022,0.6089658737182617,0.7735437750816345,0.6142348051071167,0.15603099763393402,-0.001067519187927246,0.0193558931350708,-0.06911695003509521,0.4153317385199258,-0.760079773010334,0.017153440136700726,0.49948379405061266
1728404106572639200,1.18563916015625,1.6396833658218384,0.14128071069717407,0.5684349536895752,0.7769854664802551,0.6124720573425293,0.14550384879112244,0.0486522912979126,0.15440404415130615,-0.12156285345554352,0.42088239541074557,-0.756415248485877,0.024246516173941357,0.5001060044655689
1728404106582670300,1.19567041015625,0.9677726030349731,0.22868448495864868,0.5339896082878113,0.7801096439361572,0.6100513339042664,0.13880370557308197,-0.010120570659637451,0.14856988191604614,0.048452138900756836,0.42448160462735307,-0.7539893024794685,0.03003299558155731,0.5004134251495731
1728404106592701200,1.205701171875,0.18231533467769623,0.28298646211624146,0.5604904890060425,0.7830423712730408,0.606586754322052,0.13746672868728638,-0.04271650314331055,-0.04652822017669678,0.13667260110378265,0.4252109586543574,-0.7533742472437941,0.034067750555847945,0.5004620327141345
1728404106602731300,1.215731201171875,-0.13290759921073914,0.15778832137584686,0.6963428258895874,0.7865588665008545,0.6015934348106384,0.13932141661643982,-0.015303373336791992,-0.24238628149032593,0.1279820203781128,0.4234436477758301,-0.7538626403637809,0.036767241869716215,0.5010336949520333
1728404106612762000,1.22576220703125,-0.02813192643225193,0.23841871321201324,0.46840900182724,0.7900103330612183,0.5966259241104126,0.141142800450325,0.08129709959030151,-0.3803021311759949,-0.056166648864746094,0.4216912861789006,-0.754331532997645,0.039437751544414465,0.5016025337010959
1728404106622793200,1.235793212890625,-0.5416803956031799,0.3807191252708435,-0.009423349052667618,0.7907893657684326,0.5946409702301025,0.14510084688663483,0.1526920199394226,-0.4982970356941223,-0.37808728218078613,0.42007858722318847,-0.7556068525511371,0.04010873594361451,0.5009825755845011
1728404106632823300,1.2458232421875,-0.8478642702102661,0.31429919600486755,0.033974457532167435,0.79018634557724,0.5936431288719177,0.15229399502277374,0.021169304847717285,-0.3087158203125,-0.11608493328094482,0.41730704520362644,-0.7580383623330271,0.03904917988529671,0.4997077999901897
1728404106642854100,1.255854248046875,-0.7132524251937866,0.256248414516449,0.25249242782592773,0.7906407713890076,0.5912157893180847,0.15921995043754578,0.06946659088134766,-0.014601469039916992,0.06197141110897064,0.4137914234487336,-0.7603665476890877,0.03811410129048676,0.4991659780824601
1728404106652885200,1.26588525390625,-0.45262089371681213,0.36136922240257263,0.3339071273803711,0.7920103669166565,0.5877712368965149,0.16506017744541168,0.18522363901138306,0.15627789497375488,-0.044286832213401794,0.4107593432660651,-0.7622629802841371,0.03853876673165659,0.49874524533616704
1728404106662915300,1.275915283203125,-0.5185666084289551,0.491455078125,0.17298907041549683,0.7928298711776733,0.5849487781524658,0.1710432767868042,0.15361183881759644,0.16355586051940918,-0.1196058988571167,0.40831510936481297,-0.7641847869873168,0.03928424776243132,0.4977520915788588
1728404106672946200,1.2859462890625,-0.9892733097076416,0.5778794288635254,0.07611045986413956,0.7925915718078613,0.5826561450958252,0.1797511875629425,0.04931217432022095,0.11319035291671753,-0.04085040092468262,0.4050071129718847,-0.767044464686171,0.038966415723102485,0.49607828045615177
1728404106682977300,1.295977294921875,-1.2649072408676147,0.4759187400341034,0.12404735386371613,0.7921326756477356,0.5797893404960632,0.19071002304553986,-0.003131091594696045,0.09448128938674927,0.06694987416267395,0.40025098349714244,-0.7706778191933052,0.037559430942344325,0.4944130202644163
1728404106693007000,1.306007080078125,-1.0240463018417358,0.3934215009212494,0.24485580623149872,0.7923966646194458,0.5759575366973877,0.2009495496749878,0.033592283725738525,0.04725724458694458,0.0863124430179596,0.39514216147098374,-0.7740547956520911,0.03624842187692713,0.49334369251402527
1728404106703038200,1.3160380859375,-0.5315104126930237,0.39661917090415955,0.20020098984241486,0.7929975986480713,0.5724502801895142,0.20845972001552582,0.11606001853942871,-0.08239907026290894,-0.09113490581512451,0.39147650450176663,-0.776486049869089,0.03604539914009015,0.4924594419546992
1728404106713069300,1.3260693359375,-0.49179607629776,0.5187769532203674,-0.04517974704504013,0.7925034761428833,0.5708062648773193,0.21475248038768768,0.13382714986801147,-0.20497679710388184,-0.2433779239654541,0.38938415005178956,-0.7785057487545872,0.036125277043757835,0.49092139032685556
1728404106723099100,1.33609912109375,-1.0618236064910889,0.537579357624054,-0.18673022091388702,0.790564239025116,0.5701770782470703,0.2233968824148178,0.05433017015457153,-0.1717548966407776,-0.164528489112854,0.38663353497036124,-0.7813372668220111,0.03479246496266133,0.4886880641654542
1728404106733130200,1.346130126953125,-1.2766895294189453,0.4888334572315216,-0.03451725095510483,0.7886977195739746,0.5683414936065674,0.23440036177635193,-0.03173983097076416,0.015856385231018066,0.1010487824678421,0.38205310161398787,-0.7849561812869144,0.03231064734423506,0.4866570872786149
1728404106743161000,1.3561611328125,-0.9078959822654724,0.5382364392280579,0.107813261449337,0.7877580523490906,0.5653060078620911,0.24467560648918152,-0.01837944984436035,0.14627230167388916,0.1575307548046112,0.37749969365840863,-0.7882833870844751,0.030775097319241072,0.48492894894026145
1728404106753191200,1.366191162109375,-0.6853103041648865,0.6898725628852844,0.06863656640052795,0.7867816090583801,0.5625953078269958,0.2538919150829315,-0.00041997432708740234,0.1095542311668396,-0.0913858711719513,0.37410849306785093,-0.7912134081360156,0.030451488392779523,0.4828010300414354
1728404106763222300,1.37622216796875,-0.7692598104476929,0.8064407110214233,-0.0034184530377388,0.7850003242492676,0.5604996085166931,0.2638463079929352,-0.06560933589935303,0.022355616092681885,-0.1624821126461029,0.371073920849608,-0.7943604015365163,0.030244229997038033,0.47998026979601127
1728404106773253000,1.386253173828125,-0.9170145988464355,0.8427484631538391,0.04026324674487114,0.7828162312507629,0.5581250190734863,0.2751278281211853,-0.10566169023513794,-0.025776445865631104,-0.07067528367042542,0.3675439984133755,-0.7979197765427575,0.02979827411827559,0.4768097639160884
1728404106783283200,1.396283203125,-1.0113887786865234,0.8200828433036804,0.142192542552948,0.7809783220291138,0.5546722412109375,0.28707411885261536,-0.06703490018844604,-0.053649961948394775,-0.021494895219802856,0.36331899087183067,-0.8016689672005066,0.029392535662336374,0.4737744885385594
1728404106793314300,1.406314208984375,-1.0226407051086426,0.8556299209594727,0.20138688385486603,0.7795371413230896,0.550258994102478,0.29922786355018616,-0.0014150142669677734,-0.06852376461029053,-0.005206197500228882,0.35864957060048064,-0.8054574350445204,0.029193371946245068,0.47091051322582056
1728404106803345200,1.41634521484375,-0.8667021989822388,0.8256168365478516,0.1553589403629303,0.7779427766799927,0.5458979606628418,0.3111279308795929,0.0481681227684021,-0.0608057975769043,-0.014741182327270508,0.3542281000332956,-0.8091417105437418,0.029217504901616866,0.4679300722310926
1728404106813375200,1.426375244140625,-0.7146612405776978,0.7267923355102539,0.08489037305116653,0.7761449217796326,0.542484700679779,0.3214183747768402,0.04122281074523926,-0.05037349462509155,0.03939095139503479,0.3506456597796877,-0.8123147182218339,0.029223020826478156,0.4651220946270946
1728404106823406300,1.43640625,-0.567237138748169,0.7396764159202576,0.10398736596107483,0.7742632031440735,0.5396856665611267,0.3305392861366272,0.02372586727142334,-0.03182739019393921,0.061031728982925415,0.3476949349884589,-0.8151127449904233,0.029340303419372063,0.462426964245919
1728404106833437200,1.446437255859375,-0.2969924807548523,0.8778568506240845,0.1763012409210205,0.7723243236541748,0.5371149182319641,0.3391498923301697,0.036208391189575195,0.026620984077453613,-0.02420857548713684,0.3454597601933212,-0.8177137011389388,0.030319123910163875,0.45943723893002497
1728404106843467300,1.45646728515625,-0.020390981808304787,0.9970570206642151,0.21433544158935547,0.7701612114906311,0.5350211262702942,0.3472810983657837,0.031047284603118896,0.08138811588287354,-0.08132043480873108,0.34421375697749584,-0.8201152783932776,0.032426602076706994,0.45593458418882965
1728404106853498000,1.466498046875,0.11878582090139389,1.0293446779251099,0.17626608908176422,0.7676642537117004,0.5336881875991821,0.35477933287620544,-0.0005286931991577148,0.08217167854309082,-0.04763522744178772,0.3438426754462327,-0.8222857396362101,0.03515436057134382,0.4520868498590165
1728404106863529200,1.476529296875,0.07486043870449066,1.003045916557312,0.11318992078304291,0.7647992372512817,0.532940149307251,0.3620178997516632,-0.014112532138824463,0.03355759382247925,-0.00413823127746582,0.3437654344204633,-0.8243685126034511,0.03775579464950002,0.4481254064121538
1728404106873559300,1.486559326171875,-0.07966701686382294,0.9969820976257324,0.05808139592409134,0.7616267204284668,0.5322815775871277,0.36959609389305115,-0.006926834583282471,-0.040719687938690186,0.05026474595069885,0.3433940335549983,-0.8265655349733843,0.03984300967928764,0.4441650157752341
1728404106883590100,1.496590087890625,-0.23105548322200775,1.0016125440597534,0.028320301324129105,0.7580984830856323,0.5313674211502075,0.3780680298805237,0.02176302671432495,-0.1032668948173523,0.0709524154663086,0.342438951242958,-0.829048361408668,0.04138625412974923,0.44011541681469657
1728404106893621200,1.506621337890625,-0.28142818808555603,0.9635090231895447,0.03423811122775078,0.7544963955879211,0.5300956964492798,0.3869546353816986,0.05269360542297363,-0.12187731266021729,0.051125168800354004,0.34104878106608216,-0.8316613363196919,0.04262325200768321,0.4361289509253414
1728404106903651300,1.5166513671875,-0.1676456779241562,0.9481769800186157,0.02347707562148571,0.7509183287620544,0.5289482474327087,0.39539340138435364,0.07337689399719238,-0.09791785478591919,0.001457303762435913,0.33980298638618067,-0.8341292199961036,0.04387651104742575,0.43224694110394635
1728404106913682200,1.52668212890625,-0.03112964518368244,0.9244220852851868,-0.039135705679655075,0.7471577525138855,0.5285865068435669,0.4029291272163391,0.07500118017196655,-0.058356404304504395,-0.07976311445236206,0.33920785087394767,-0.8363105901288327,0.04526765845979081,0.42833815778015183
1728404106923713300,1.53671337890625,-0.043797239661216736,0.8384802937507629,-0.12041910737752914,0.7431084513664246,0.5290906429290771,0.4096984565258026,0.04963141679763794,-0.002281010150909424,-0.09124758839607239,0.33906791684652493,-0.8382711563099421,0.046375592481028995,0.4244804812218336
1728404106933743400,1.546743408203125,-0.04054991528391838,0.737356424331665,-0.11465709656476974,0.7392188906669617,0.5297832489013672,0.41579461097717285,0.02426987886428833,0.08799928426742554,0.03670477867126465,0.33892537994106364,-0.8400478514784158,0.04708404980225353,0.4209896845964485
1728404106943774200,1.556774169921875,0.10980124771595001,0.6773213148117065,-0.08502090722322464,0.7357386946678162,0.5306176543235779,0.42087236046791077,0.03138166666030884,0.15160268545150757,0.12853559851646423,0.3390837630938427,-0.8415090186582359,0.047945307991078635,0.417834944238737
1728404106953805300,1.566805419921875,0.18709762394428253,0.6229908466339111,-0.12330810725688934,0.7324744462966919,0.5320257544517517,0.4247702360153198,0.054039835929870605,0.11943286657333374,0.08815392851829529,0.339809447537583,-0.8426079346575964,0.04895903912607713,0.4149029043631721
1728404106963835100,1.576835205078125,0.14844903349876404,0.648030161857605,-0.20519179105758667,0.7288930416107178,0.5339274406433105,0.4285285174846649,0.05963551998138428,0.03208208084106445,0.01774531602859497,0.3406914907929926,-0.8436791031340126,0.04969739565292486,0.41190430135781125
1728404106973866200,1.5868662109375,0.11099939793348312,0.6130640506744385,-0.23341144621372223,0.7249483466148376,0.5361294746398926,0.43245264887809753,0.07368147373199463,-0.03266572952270508,-0.025271892547607422,0.3415497155790138,-0.8448171190538643,0.050103480089455615,0.40880012404140054
1728404106983897000,1.59689697265625,0.10659532994031906,0.5976778864860535,-0.18201430141925812,0.7212132811546326,0.5380529761314392,0.4362916350364685,0.08800607919692993,-0.04658275842666626,-0.008114725351333618,0.342228193287527,-0.8459319643840295,0.0504473141535808,0.40587442070659396
1728404106993927200,1.60692724609375,0.30841541290283203,0.607722818851471,-0.11112547665834427,0.7177889943122864,0.539945662021637,0.43958818912506104,0.1070859432220459,-0.012861371040344238,0.012865424156188965,0.34319320562151945,-0.8468562792990555,0.05126927870892372,0.4030190588453755
1728404107003958300,1.616958251953125,0.5936535000801086,0.6362958550453186,-0.07475601881742477,0.7145627737045288,0.5425933599472046,0.4415798485279083,0.10938137769699097,0.027017295360565186,0.002649366855621338,0.3451417807161027,-0.8473450925036391,0.05287934077190102,0.4001091548732214
1728404107013989000,1.626989013671875,0.8028435707092285,0.6774025559425354,-0.06718172132968903,0.7112817764282227,0.5461991429328918,0.442430704832077,0.08052736520767212,0.051167190074920654,0.0008371472358703613,0.3480918697169766,-0.8474519487613791,0.055141091847051064,0.3970098063523441
1728404107024019200,1.637019287109375,0.8310656547546387,0.6836607456207275,-0.0834251418709755,0.707855224609375,0.5504142045974731,0.44270244240760803,0.04284679889678955,0.06692588329315186,0.05272001028060913,0.35158243295453684,-0.8473632068947777,0.05767859777178266,0.39374947940492705
1728404107034050300,1.64705029296875,0.5798845291137695,0.6181403398513794,-0.09284873306751251,0.7044434547424316,0.5542334914207458,0.4433789551258087,0.011056482791900635,0.061992764472961426,0.14820438623428345,0.35461600138508786,-0.8474100727319327,0.05988023383124588,0.3905868691435083
1728404107044081200,1.6570810546875,0.2803182899951935,0.4833638668060303,-0.06310122460126877,0.7015599608421326,0.5566654205322266,0.44490137696266174,-0.0037450194358825684,0.05064952373504639,0.25186070799827576,0.3564031419823062,-0.8477527706689238,0.061367131440266835,0.38797694917000086
1728404107054111200,1.667111328125,0.11885406076908112,0.3541318476200104,-0.04867967590689659,0.6994008421897888,0.5578917860984802,0.44676050543785095,0.005799353122711182,0.011123597621917725,0.2998214364051819,0.3571877359233212,-0.8482361604585594,0.06225491706710552,0.38605255625742013
1728404107064142300,1.677142333984375,0.05032852664589882,0.26948514580726624,-0.058147747069597244,0.6977574229240417,0.558597981929779,0.448444664478302,0.0058100223541259766,-0.06493055820465088,0.2151447832584381,0.3575337387384131,-0.8486954973003242,0.06275570743564039,0.3846390518388521
1728404107074173200,1.687173095703125,-0.01434793695807457,0.21866588294506073,-0.09571909159421921,0.6962578296661377,0.5591927766799927,0.45003169775009155,-0.016707658767700195,-0.12466830015182495,0.09194526076316833,0.35767996790734946,-0.8491507297346563,0.06291973033724813,0.3834699352472006
1728404107084203300,1.697203369140625,-0.07437984645366669,0.14674349129199982,-0.11579905450344086,0.694821834564209,0.5597265362739563,0.45158499479293823,-0.04896301031112671,-0.1275365948677063,0.024290859699249268,0.35762827957910787,-0.8496235541171634,0.06270817412867943,0.38250435831300594
1728404107094234000,1.707234130859375,-0.028889860957860947,0.0754232406616211,-0.08756288886070251,0.6937663555145264,0.5601606369018555,0.4526682496070862,-0.07784527540206909,-0.07856273651123047,0.011824607849121094,0.3575287187346644,-0.8499691146622042,0.062342881315656476,0.38188893747788444
1728404107104265200,1.71726513671875,0.17548058927059174,0.05705488845705986,-0.0723905935883522,0.6930341720581055,0.5609754323959351,0.4527803361415863,-0.09221935272216797,-0.037522733211517334,-0.03446072340011597,0.3579173782180491,-0.85000890098522,0.06224973058224437,0.38145109041903374
1728404107114295300,1.72729541015625,0.4256768226623535,0.02563331462442875,-0.07944397628307343,0.6924344301223755,0.5629040002822876,0.45130226016044617,-0.09323698282241821,-0.022040963172912598,-0.14307475090026855,0.3593740322404984,-0.8495483565638702,0.0625997261665172,0.381050109863304
1728404107124326100,1.737326171875,0.43700486421585083,-0.005942721385508776,-0.09170038253068924,0.6919489502906799,0.5654942989349365,0.4488016963005066,-0.09934329986572266,-0.008029699325561523,-0.17792761325836182,0.3614376763546165,-0.8487737636792917,0.06311851923709547,0.38073875831673926
1728404107134356200,1.747356201171875,0.2956525385379791,0.024810077622532845,-0.11417852342128754,0.6913323402404785,0.5678427219390869,0.44678205251693726,-0.09631586074829102,0.030668020248413086,-0.10339832305908203,0.3631920805972749,-0.8481566394973427,0.0634141023581098,0.38039516185156036
1728404107144387300,1.75738720703125,0.165000781416893,-0.014715386554598808,-0.15532329678535461,0.6905487775802612,0.5697633028030396,0.4455471634864807,-0.07560431957244873,0.051879703998565674,-0.0073451995849609375,0.36439913967647464,-0.8478012703868286,0.06329762228522524,0.3800522708390053
1728404107154418200,1.767418212890625,0.10541281849145889,-0.07569021731615067,-0.20182980597019196,0.6897436380386353,0.5715646743774414,0.44448554515838623,-0.04866093397140503,0.013899743556976318,0.042117178440093994,0.3653045672240144,-0.8475313779224255,0.06271629913764562,0.3798812543942482
1728404107164448300,1.7774482421875,0.0829160287976265,-0.18091915547847748,-0.22432340681552887,0.6890515089035034,0.573468804359436,0.4431043863296509,-0.012217402458190918,-0.05351036787033081,0.01633775234222412,0.36614775487721807,-0.8471947841994245,0.06175104515589814,0.37997844536719705
1728404107174479400,1.787479248046875,0.035104166716337204,-0.3152848184108734,-0.19118835031986237,0.688977837562561,0.5751523375511169,0.4410322308540344,0.01741260290145874,-0.08957195281982422,-0.0010755062103271484,0.3668657561503014,-0.8466716426249172,0.06052473239198316,0.380648695084592
1728404107184510200,1.79751025390625,0.026795638725161552,-0.36922821402549744,-0.1741126924753189,0.6895080208778381,0.576494038105011,0.4384441673755646,0.023779332637786865,-0.06787288188934326,0.03360170125961304,0.3674221043995739,-0.8460026988846109,0.05917361344432666,0.38181003541847125
1728404107194540300,1.807540283203125,0.10170989483594894,-0.3298768699169159,-0.20638595521450043,0.6899839043617249,0.5780297517776489,0.43566474318504333,-0.0045438408851623535,-0.0175744891166687,0.03078112006187439,0.3681286509491211,-0.845272480368045,0.0578516382289405,0.38294762862273485
1728404107204571100,1.817571044921875,0.22662334144115448,-0.24242502450942993,-0.2752733826637268,0.689849317073822,0.5804055333137512,0.432709664106369,-0.056899309158325195,0.011986494064331055,0.012892812490463257,0.36937270117996185,-0.8444812107169908,0.05662432995731277,0.38367838683485567
1728404107214602200,1.827602294921875,0.2837356626987457,-0.2315412312746048,-0.3304879069328308,0.689083456993103,0.5836098790168762,0.42960870265960693,-0.08343160152435303,0.01514500379562378,-0.027371764183044434,0.3711110186953181,-0.8436430528370391,0.05541439196265243,0.3840212326148513
1728404107224632300,1.83763232421875,0.26586079597473145,-0.2845011055469513,-0.3538648784160614,0.6881572604179382,0.5871878266334534,0.4262041747570038,-0.07421988248825073,0.00022971630096435547,-0.04096555709838867,0.3730172326143436,-0.8427253796714721,0.05400024827919983,0.3843904768697379
1728404107234663200,1.8476630859375,0.23379842936992645,-0.34585845470428467,-0.33069777488708496,0.687471866607666,0.5906040668487549,0.4225744903087616,-0.036837100982666016,-0.03332263231277466,-0.025205135345458984,0.374808080303811,-0.8417463389098757,0.05244370798170897,0.3850086502055031
1728404107244694300,1.8576943359375,0.1932097226381302,-0.4209039509296417,-0.2771162986755371,0.6872920393943787,0.5936002731323242,0.41865119338035583,0.011423349380493164,-0.08499425649642944,-0.02492859959602356,0.3764061974654435,-0.8406769691915906,0.05087068214439066,0.385996043815152
1728404107254724400,1.867724365234375,0.1476413756608963,-0.4832918047904968,-0.20798304677009583,0.6877619624137878,0.5959591269493103,0.4145069718360901,0.04534655809402466,-0.11568886041641235,0.009916156530380249,0.37769516450151547,-0.8395359493275506,0.04932422455728016,0.3874181476954947
1728404107264754700,1.877754638671875,0.15635231137275696,-0.5163546800613403,-0.1534247249364853,0.6887835264205933,0.5977867245674133,0.41015660762786865,0.06452775001525879,-0.09845811128616333,0.07409638166427612,0.37878400172735743,-0.8383208321426701,0.04792174335485759,0.38915860179081546
1728404107274785800,1.887785888671875,0.1445395052433014,-0.577928900718689,-0.12799766659736633,0.6901955604553223,0.5993655920028687,0.4054519534111023,0.07187426090240479,-0.05754125118255615,0.1138809323310852,0.37983235879541943,-0.8369905049451392,0.046614095499389524,0.3911540594283617
1728404107284816000,1.89781591796875,0.08049368858337402,-0.6163673996925354,-0.1476733684539795,0.6918124556541443,0.6007480621337891,0.4006214737892151,0.06560337543487549,-0.020090103149414062,0.13726621866226196,0.3807027145495348,-0.83562816327877,0.045125508918875276,0.39338887990444094
1728404107294846700,1.9078466796875,0.07350867986679077,-0.6314405202865601,-0.1696292608976364,0.6933538317680359,0.6021462678909302,0.39582908153533936,0.05322831869125366,-0.011768460273742676,0.12675398588180542,0.381466565507552,-0.8342839964973121,0.043413809933900885,0.3956878082736257
1728404107304877800,1.9178779296875,0.029110858216881752,-0.6763566136360168,-0.15182016789913177,0.6949363946914673,0.6034975647926331,0.39096590876579285,0.03483051061630249,-0.04543787240982056,0.09684228897094727,0.3821577113565138,-0.8329183726633321,0.04159250141326268,0.3980861844442059
1728404107314908000,1.927907958984375,-0.026825979351997375,-0.6753555536270142,-0.099368155002594,0.6968363523483276,0.6043563485145569,0.3862287104129791,0.01808375120162964,-0.07852327823638916,0.08984553813934326,0.3825323936808129,-0.8315851123882316,0.03975628994395798,0.400692710981029
1728404107324938800,1.937938720703125,-0.0032258436549454927,-0.6437385082244873,-0.08115985244512558,0.698861300945282,0.6048570275306702,0.38176026940345764,0.012198269367218018,-0.07884085178375244,0.05706724524497986,0.3827360822888147,-0.8303183904707263,0.03809855811712159,0.4032777829149294
1728404107334969900,1.947969970703125,0.04961872845888138,-0.648647129535675,-0.09003270417451859,0.7008345127105713,0.6055150032043457,0.37707117199897766,-0.0032331347465515137,-0.05844169855117798,-0.0017659664154052734,0.38311626396284376,-0.8289746878034455,0.03655894312200045,0.40581568801883056
1728404107344999700,1.957999755859375,0.1342313438653946,-0.6285520195960999,-0.1096961572766304,0.7026360034942627,0.6065460443496704,0.3720279633998871,-0.023558735847473145,-0.031976282596588135,-0.017383188009262085,0.3838021374203586,-0.8275156381449251,0.03509775763639225,0.40826709964406477
1728404107355030800,1.96803076171875,0.21117359399795532,-0.6649879217147827,-0.12194057554006577,0.7043056488037109,0.6080245971679688,0.36641502380371094,-0.026403307914733887,-0.01612091064453125,-0.03192707896232605,0.38488760565988056,-0.825874720011059,0.03374109923348923,0.4106752225051904
1728404107365061600,1.9780615234375,0.16977715492248535,-0.6875598430633545,-0.09873325377702713,0.7061131596565247,0.6095306873321533,0.3603838086128235,-0.028378784656524658,-0.025241196155548096,-0.004014760255813599,0.3860508653556311,-0.8241016965277002,0.032377357738758834,0.4132466461399385
1728404107375091700,1.988091796875,0.057192228734493256,-0.6590970754623413,-0.07615098357200623,0.708030104637146,0.6105226278305054,0.354902058839798,-0.022330641746520996,-0.03630387783050537,0.032564401626586914,0.38679494860104147,-0.8224917060683548,0.030958418691701895,0.41585890404395387
1728404107385122800,1.998122802734375,-0.02329782210290432,-0.5914729833602905,-0.08280062675476074,0.7097843885421753,0.6111094355583191,0.35035908222198486,-0.008444607257843018,-0.03966784477233887,0.027387499809265137,0.3871010823402044,-0.8211651433405,0.02945077319598371,0.4182980358553793
1728404107395153700,2.008153564453125,-0.09484351426362991,-0.5310300588607788,-0.09783683717250824,0.7111854553222656,0.611538290977478,0.34675154089927673,-0.0019567012786865234,-0.04522347450256348,0.025456160306930542,0.3871239955412783,-0.8201211760977943,0.02787508456300909,0.42042762933381084
1728404107405183700,2.018183837890625,-0.15084978938102722,-0.5046168565750122,-0.08478015661239624,0.7124301791191101,0.6117417216300964,0.3438243865966797,0.013018429279327393,-0.033418476581573486,0.030305832624435425,0.3868634916754781,-0.8192827177951962,0.026230175027044302,0.42240313035664195
1728404107415214800,2.02821484375,-0.08294796943664551,-0.5216050744056702,-0.04523114860057831,0.7138018012046814,0.6117539405822754,0.34094542264938354,0.04544496536254883,0.003220975399017334,0.022457808256149292,0.38653895060820453,-0.8184511039694168,0.024708446399457337,0.42439936727600464
1728404107425245700,2.03824560546875,0.07410928606987,-0.5324853658676147,-0.00034729577600955963,0.7154737710952759,0.6118872761726379,0.3371814787387848,0.0769914984703064,0.030583977699279785,-0.007835745811462402,0.3866317251021998,-0.8173335140501291,0.023593892731097976,0.42652691120175545
1728404107435275800,2.04827587890625,0.10011392086744308,-0.5257460474967957,0.01770760491490364,0.7173386812210083,0.612117350101471,0.33277297019958496,0.09366601705551147,0.03934139013290405,-0.06095287203788757,0.3870622437445136,-0.8160057675110087,0.02282715182259362,0.4287148910466258
1728404107445307000,2.058306884765625,0.04812396317720413,-0.49977701902389526,0.02925613522529602,0.719194769859314,0.612175464630127,0.32863375544548035,0.09072655439376831,0.05136823654174805,-0.08180761337280273,0.38735902688075413,-0.8147570767277844,0.02208580830507422,0.4308551006705666
1728404107455336700,2.068336669921875,0.07117301970720291,-0.4680880606174469,0.05793464928865433,0.7210654020309448,0.6120351552963257,0.3247738480567932,0.07265114784240723,0.040278077125549316,-0.04446980357170105,0.38754752502198075,-0.8135888119805195,0.021451396964821682,0.43292049357098195
1728404107465367800,2.078367919921875,0.060014110058546066,-0.4469510614871979,0.09569774568080902,0.7230126261711121,0.6117146611213684,0.3210267722606659,0.047876715660095215,-0.019475221633911133,-0.028836220502853394,0.3877241555840617,-0.8124475058353356,0.021034146874166076,0.43492148744047493
1728404107475398700,2.088398681640625,-0.01797722652554512,-0.4152906537055969,0.12537281215190887,0.7251036167144775,0.6109681725502014,0.31771543622016907,0.02137172222137451,-0.06337594985961914,-0.026074141263961792,0.3876143265575957,-0.8114367424264339,0.020691317763073293,0.4369182901682158
1728404107485428700,2.0984287109375,-0.014731097966432571,-0.28846293687820435,0.11643018573522568,0.7269708514213562,0.6099951267242432,0.31530874967575073,-0.00512319803237915,-0.060739755630493164,-0.01823529601097107,0.38726980465960087,-0.8107014197412911,0.020434700910706725,0.4385975830399128
1728404107495459800,2.1084599609375,0.13262760639190674,-0.21395380795001984,0.10064616054296494,0.7284074425697327,0.6093735098838806,0.31318771839141846,-0.02627420425415039,-0.04737710952758789,-0.07389938831329346,0.3872747516645289,-0.8100450194540314,0.020516611558177394,0.4398004447861037
1728404107505490700,2.11849072265625,0.22312021255493164,-0.19953173398971558,0.10424356162548065,0.729677677154541,0.6092133522033691,0.3105310797691345,-0.04751819372177124,-0.040228426456451416,-0.0981593132019043,0.3878326372139534,-0.8092137316264285,0.02094472292963488,0.44081776640665093
1728404107515520800,2.128520751953125,0.20222064852714539,-0.15133097767829895,0.12445482611656189,0.7309466600418091,0.6090181469917297,0.30791833996772766,-0.05597412586212158,-0.02095973491668701,-0.10345056653022766,0.38846030383806124,-0.8083903045568639,0.021547414205751823,0.4417457817140899
1728404107525551900,2.1385517578125,0.20936430990695953,-0.05477114021778107,0.12511421740055084,0.7320578098297119,0.6086937189102173,0.30591443181037903,-0.04954737424850464,0.004358649253845215,-0.13448187708854675,0.38900367277157066,-0.8077495912910679,0.022311622519059885,0.4424014708761454
1728404107535582700,2.148582763671875,0.24913635849952698,0.03538927063345909,0.1133078932762146,0.7328213453292847,0.6085138916969299,0.30444011092185974,-0.04761010408401489,0.004858851432800293,-0.15108931064605713,0.38966900303185104,-0.8072655249533646,0.02329023109157012,0.44264889681921205
1728404107545612800,2.15861279296875,0.2591565251350403,0.1116478219628334,0.12452459335327148,0.7333317995071411,0.6084082126617432,0.3034207224845886,-0.04480940103530884,-0.006220102310180664,-0.14929163455963135,0.390429040100495,-0.8069142158248964,0.024491064552513833,0.4425549426073277
1728404107555644000,2.168643798828125,0.23075787723064423,0.0973656177520752,0.12773238122463226,0.7337931990623474,0.6082099080085754,0.3027019798755646,-0.027646899223327637,-0.0037482380867004395,-0.1418132483959198,0.39112890993796123,-0.8066516146650335,0.02577145479742327,0.442342946925753
1728404107565674800,2.1786748046875,0.18465857207775116,0.09883435070514679,0.11078907549381256,0.7342559695243835,0.6079226136207581,0.3021567463874817,-0.012560904026031494,0.007937431335449219,-0.09866544604301453,0.3916683076729081,-0.8064455022264013,0.026907619531457736,0.442173861855407
1728404107575704800,2.188704833984375,0.1688583791255951,0.1094052866101265,0.09416429698467255,0.7345830798149109,0.6076803803443909,0.30184799432754517,-0.004404246807098389,0.02420121431350708,-0.07668927311897278,0.39212922261180033,-0.8063153135773484,0.027921445677384398,0.44193966477792496
1728404107585735700,2.198735595703125,0.189937561750412,0.14439229667186737,0.08894609659910202,0.7347798943519592,0.607535719871521,0.30166083574295044,-0.011864125728607178,0.02617710828781128,-0.059290140867233276,0.3926211438256478,-0.8062220317638856,0.028921418754450118,0.4416088417218403
1728404107595766800,2.208766845703125,0.2345925122499466,0.23009538650512695,0.08086979389190674,0.7347574234008789,0.6075200438499451,0.3017469346523285,-0.02459806203842163,0.019738316535949707,-0.05666026473045349,0.39324899855904033,-0.8062051505967224,0.030111809041662822,0.44100100975177736
1728404107605796900,2.218796875,0.28146013617515564,0.2779614329338074,0.06290651112794876,0.7344406843185425,0.6077507138252258,0.3020535111427307,-0.02795863151550293,0.01669996976852417,-0.08859822154045105,0.39409131383222673,-0.8062474055869044,0.03149408633969623,0.4400743377077574
1728404107615827700,2.22882763671875,0.29411736130714417,0.3471573293209076,0.048837561160326004,0.733847975730896,0.6082041263580322,0.30258068442344666,-0.03667384386062622,0.022395849227905273,-0.06014907360076904,0.3950853698588994,-0.8063513343273659,0.032982831275432056,0.43888184033749084
1728404107625858800,2.23885888671875,0.26656293869018555,0.3708442747592926,0.024346865713596344,0.7329936027526855,0.6087799072265625,0.3034921884536743,-0.02870887517929077,0.0354766845703125,-0.038538575172424316,0.3960875770887341,-0.8065713320010851,0.034478659706321246,0.4374569542255888
1728404107635889000,2.248888916015625,0.26666879653930664,0.39006078243255615,0.0014724419452250004,0.7319150567054749,0.6094847321510315,0.30467864871025085,0.0026584267616271973,0.043469369411468506,-0.06253692507743835,0.3970495496545867,-0.8068790856324136,0.035853298714199934,0.4359042227685397
1728404107645919700,2.258919677734375,0.35568761825561523,0.37594524025917053,0.02185467816889286,0.7308114767074585,0.6103317737579346,0.3056298494338989,0.056831955909729004,0.037373244762420654,-0.1342279016971588,0.39819565451749883,-0.807106010163142,0.03734710807493031,0.43431008450037467
1728404107655950800,2.268950927734375,0.3925215005874634,0.3146606385707855,0.039265625178813934,0.7299517393112183,0.6112602949142456,0.30582883954048157,0.12368595600128174,0.01335817575454712,-0.21659544110298157,0.39960659018653727,-0.8070889220336437,0.039011343030507205,0.4328973803955236
1728404107665981000,2.27898095703125,0.35193997621536255,0.19077971577644348,0.0635179728269577,0.7294929623603821,0.612012505531311,0.305418998003006,0.17874068021774292,-0.006925225257873535,-0.2332754135131836,0.40094082771858003,-0.8068867994649705,0.0405363387698355,0.4318992700512345
1728404107676011800,2.28901171875,0.3973085880279541,0.3681136965751648,0.07931157946586609,0.7291245460510254,0.6126284003257751,0.30506327748298645,0.2136092185974121,-0.017077982425689697,-0.18447306752204895,0.402255946711702,-0.8066913815820037,0.04219772974887969,0.43088098188508595
1728404107686043000,2.29904296875,0.27763864398002625,0.07780517637729645,0.070266954600811,0.7288715243339539,0.6131457090377808,0.30462825298309326,0.21656304597854614,-0.03892707824707031,-0.11499205231666565,0.4034774181762771,-0.8064727594280185,0.04377000216668946,0.4299904046125716
1728404107696072700,2.30907275390625,0.07568114995956421,0.18590304255485535,-0.018658924847841263,0.7287737727165222,0.6134416460990906,0.30426666140556335,0.12132394313812256,-0.05670952796936035,0.22126126289367676,0.40408787093341125,-0.8063225203052646,0.044467176114164154,0.4296273933932912
1728404107706103800,2.319103759765625,-0.04351048171520233,0.1564849615097046,-0.07638027518987656,0.7278832197189331,0.6138648986816406,0.3055421710014343,0.04759901762008667,-0.0685616135597229,0.26954638957977295,0.40421979397998137,-0.8067064819437866,0.044673626558673296,0.42876021808955767
1728404107716135000,2.329135009765625,-0.003899423638358712,0.41548019647598267,-0.0872875228524208,0.7265992164611816,0.6143293380737305,0.3076576888561249,-0.03226315975189209,-0.07444286346435547,0.24736550450325012,0.40417034220305176,-0.8073561761644071,0.044775542498719054,0.4275716991300241
1728404107726164700,2.339164794921875,0.14754390716552734,0.5027876496315002,-0.04023372754454613,0.72466641664505,0.6150411367416382,0.31077849864959717,-0.1011616587638855,-0.08047997951507568,0.3174716532230377,0.4045151276094301,-0.8082707965530271,0.04568991885856534,0.4254155142040113
1728404107736195800,2.34919580078125,0.13281509280204773,0.48538270592689514,0.0012245015241205692,0.7230994701385498,0.6155814528465271,0.31334707140922546,-0.14000016450881958,-0.051082611083984375,0.27207157015800476,0.4050136946904652,-0.8089949934309787,0.04691087638635987,0.42342684631448335
1728404107746226700,2.359226806640625,0.16644760966300964,0.5496348738670349,0.0052221729420125484,0.7214887142181396,0.6159947514533997,0.31623485684394836,-0.15172547101974487,0.017794251441955566,0.2982823848724365,0.40546255251866886,-0.8098052269622382,0.04830036491000264,0.421286933193296
1728404107756256800,2.3692568359375,0.2447870820760727,0.5271319150924683,0.027900055050849915,0.7198785543441772,0.6165220737457275,0.31886571645736694,-0.11155635118484497,0.058526694774627686,0.06588459014892578,0.4061314530349539,-0.8105194479117155,0.049910807886178785,0.41907559483500467
1728404107766288000,2.379287841796875,0.31099221110343933,0.461484432220459,0.06449428200721741,0.7185657620429993,0.6170826554298401,0.32073774933815,-0.05035275220870972,0.04047966003417969,-0.05688270926475525,0.4070508314502555,-0.810983354400085,0.05171917630685637,0.41706225595823754
1728404107776318700,2.389318603515625,0.28899815678596497,0.20799662172794342,0.1478205919265747,0.7181331515312195,0.6173134446144104,0.32126128673553467,0.024496793746948242,-0.015613675117492676,-0.12852755188941956,0.4079932784898091,-0.8110305449542888,0.05347986243466413,0.4158254798477417
1728404107786348800,2.399348876953125,0.23718929290771484,0.11401074379682541,0.2069193422794342,0.7187751531600952,0.6168274879455566,0.3207583725452423,0.08022081851959229,-0.06523764133453369,-0.1636081039905548,0.40862553810298585,-0.8107682685561822,0.05508179399133825,0.4155068352715889
1728404107796380000,2.4093798828125,0.21508511900901794,0.10522481054067612,0.17942433059215546,0.7196999192237854,0.6161381602287292,0.3200087249279022,0.0841178297996521,-0.1139410138130188,-0.130494624376297,0.4091288601171405,-0.8104345163046829,0.0565708143238153,0.4154625656139271
1728404107806410800,2.41941064453125,0.037653613835573196,0.1323014348745346,0.1306474655866623,0.7202642560005188,0.6154343485832214,0.3200933039188385,0.003429591655731201,-0.147203266620636,0.007634967565536499,0.4093184202351413,-0.8103764735394259,0.057763508440499746,0.41522486969676475
1728404107816440800,2.42944091796875,-0.2787112891674042,0.09874406456947327,0.04602712765336037,0.7204817533493042,0.6143982410430908,0.3215911388397217,-0.1189955472946167,-0.1175721287727356,0.26037904620170593,0.40862406520456307,-0.8108132142738662,0.058116290373676355,0.41500698452320994
1728404107826471700,2.4394716796875,-0.47410741448402405,0.2195141613483429,-0.021814504638314247,0.7200865149497986,0.6130203604698181,0.3250865340232849,-0.20324087142944336,-0.053938448429107666,0.3668690323829651,0.40693975161426194,-0.811924344695814,0.05763784364719257,0.41455600556901756
1728404107836501800,2.449501708984375,-0.39898356795310974,0.4861931800842285,-0.04808152839541435,0.7186824679374695,0.6118192672729492,0.33041274547576904,-0.19442105293273926,-0.01004326343536377,0.08767804503440857,0.4050902821433678,-0.8135877183902859,0.05728346413470054,0.4131530673519436
1728404107846532900,2.459532958984375,-0.20665591955184937,0.6174178123474121,-0.027622327208518982,0.7165802121162415,0.6110482811927795,0.33635199069976807,-0.12963563203811646,0.004369139671325684,-0.16400399804115295,0.4037377744746421,-0.8153863882823783,0.05762836610814121,0.4108768019968892
1728404107856563700,2.469563720703125,0.008231675252318382,0.4703676700592041,0.013690492138266563,0.7146321535110474,0.6107475161552429,0.3410109579563141,-0.05130201578140259,0.02237015962600708,-0.1614302396774292,0.40318570131197234,-0.8167472022386159,0.05856177640790686,0.4085778272791871
1728404107866593800,2.47959375,0.10522453486919403,0.20772194862365723,0.043733611702919006,0.7136926054954529,0.6107432246208191,0.3429810702800751,0.043448686599731445,0.06287139654159546,-0.0993134081363678,0.4032895626330671,-0.8172826974123185,0.05949394167564198,0.40726792161532277
1728404107876625000,2.489625,0.16264241933822632,0.08195693790912628,0.04548357427120209,0.7135090231895447,0.6108681559562683,0.3431404232978821,0.10962647199630737,0.09047162532806396,-0.04390022158622742,0.40369898396625914,-0.8172774242226923,0.06023142788998385,0.4067641270468527
1728404107886655700,2.49965576171875,0.17690205574035645,0.08549414575099945,0.031083066016435623,0.7134956121444702,0.6111684441566467,0.3426322638988495,0.10982280969619751,0.06508570909500122,0.02276986837387085,0.40430461638020027,-0.8170711049838899,0.06091748768062218,0.4064745173370552
1728404107896685800,2.509685791015625,0.11484307050704956,0.12878510355949402,-0.0014221477322280407,0.7132440805435181,0.6115486025810242,0.3424782156944275,0.06033080816268921,0.00392991304397583,0.08727025985717773,0.4048346509730434,-0.8169810032082908,0.061491058108355603,0.40604166428625543
1728404107906717000,2.519717041015625,0.0554543137550354,0.14479337632656097,-0.021386533975601196,0.7126984596252441,0.6119186282157898,0.34295302629470825,0.013833582401275635,-0.044032275676727295,0.09073221683502197,0.4051616886691474,-0.8170952713023452,0.06190180177403777,0.40542271198625474
1728404107916747800,2.529747802734375,0.02922743745148182,0.1861925721168518,-0.0028091222047805786,0.7120678424835205,0.6121428608894348,0.34386107325553894,-0.002183198928833008,-0.07333981990814209,0.041301220655441284,0.4052949129578217,-0.8173464915525196,0.062251449258273306,0.4047288607334283
1728404107926777900,2.53977783203125,0.017037881538271904,0.19165311753749847,0.02931765466928482,0.7114775776863098,0.6121305227279663,0.345102459192276,0.00980532169342041,-0.09462875127792358,-0.015176922082901001,0.4053099890166232,-0.8176872538602799,0.06275975758454945,0.4039461811348604
1728404107936808700,2.54980859375,-0.04350702092051506,0.1339782178401947,0.046612754464149475,0.711177408695221,0.6118009686470032,0.3463042080402374,0.029728472232818604,-0.1057736873626709,-0.03011152148246765,0.40513106996191534,-0.8180186772957576,0.06322621994305133,0.4033817330113009
1728404107946839800,2.55983984375,-0.0967707708477974,0.047590598464012146,0.04346969351172447,0.7111386060714722,0.6111979484558105,0.34744665026664734,0.04903912544250488,-0.11214393377304077,-0.01863500475883484,0.4047043681251466,-0.8183478933413929,0.06348270686455904,0.4031018871722017
1728404107956870000,2.569869873046875,-0.18899750709533691,-0.03779172897338867,0.04260176792740822,0.7114351987838745,0.6103753447532654,0.3482840061187744,0.06149876117706299,-0.12314707040786743,-0.009523659944534302,0.4040389403062999,-0.8186106679192304,0.06339220712156893,0.40324989775526865
1728404107966900700,2.579900634765625,-0.3086775839328766,-0.06216684728860855,0.058530934154987335,0.7119361758232117,0.6091195344924927,0.3494572639465332,0.052742838859558105,-0.12236422300338745,0.0367884635925293,0.4029125300254377,-0.8189999895632608,0.06298924547356496,0.4036494862958686
1728404107976931800,2.589931884765625,-0.2901490330696106,-0.03830114006996155,0.06725038588047028,0.712533175945282,0.6075618267059326,0.3509492874145508,0.02997487783432007,-0.08522289991378784,0.0749540627002716,0.40151621800386245,-0.8194925142414623,0.06250333043525343,0.4041165378455053
1728404107986962000,2.5999619140625,-0.13400869071483612,0.08178851753473282,0.05813571810722351,0.7128445506095886,0.6063369512557983,0.3524320721626282,0.005096793174743652,-0.03518521785736084,0.06579601764678955,0.40048622642484505,-0.819954737568353,0.06237203268055875,0.4042212514663297
1728404107996992800,2.60999267578125,0.0024628015235066414,0.14208658039569855,0.05445123836398125,0.712773323059082,0.6057112216949463,0.3536502420902252,0.0006972551345825195,0.0034807324409484863,-0.035061925649642944,0.4000824400223563,-0.8202993095052099,0.06272290060712736,0.4038676167633266
1728404108007023900,2.62002392578125,0.08488976955413818,0.13620525598526,0.055329278111457825,0.7128053307533264,0.6052536368370056,0.35436809062957764,0.007638454437255859,0.036790430545806885,-0.04087626934051514,0.4000224844626888,-0.820466506446226,0.06339371833816512,0.4034823419803784
1728404108017054000,2.630053955078125,0.14847999811172485,0.09972495585680008,0.04669451341032982,0.7129274010658264,0.6050629019737244,0.35444822907447815,0.03183889389038086,0.05872488021850586,0.0010052919387817383,0.40029669067040025,-0.820428165559281,0.06420078577486481,0.40316062409012726
1728404108027084800,2.640084716796875,0.05661265552043915,-0.01291237398982048,0.031077206134796143,0.7132847905158997,0.604885995388031,0.3540312647819519,0.05610918998718262,0.05189812183380127,0.004550367593765259,0.4005574696229505,-0.8202556023742034,0.06477945037674013,0.4031603255051837
1728404108037116000,2.650115966796875,-0.029118826612830162,0.005578007083386183,0.034826669842004776,0.7138662338256836,0.604264497756958,0.3539204001426697,0.05763345956802368,0.03315615653991699,0.030448555946350098,0.4003638663349981,-0.8201997028944376,0.06505877172234041,0.4034211872165275
1728404108047145700,2.660145751953125,-0.06797941029071808,-0.030515015125274658,0.0433378666639328,0.7144715785980225,0.6032963395118713,0.3543507158756256,0.06040048599243164,0.0070400238037109375,-0.02360108494758606,0.39985085307657725,-0.82031261933561,0.06528837240292676,0.4036633954178037
1728404108057176800,2.6701767578125,-0.11399989575147629,-0.057323623448610306,0.0554421991109848,0.7150941491127014,0.6022053360939026,0.3549489378929138,0.04267245531082153,-0.01901453733444214,-0.05148214101791382,0.39915041169545257,-0.8204907694066839,0.06534034770997119,0.40398560588751314
1728404108067208000,2.6802080078125,-0.1194886714220047,-0.07758788019418716,0.035842131823301315,0.7156196236610413,0.6012560129165649,0.3554993271827698,0.01042407751083374,-0.009062469005584717,-0.028610259294509888,0.39844999197616404,-0.8206686945098428,0.06521160968789944,0.4043364214275059
1728404108077237800,2.69023779296875,-0.12437916547060013,-0.042650774121284485,-0.01586739905178547,0.7159590125083923,0.6007797122001648,0.355621337890625,-0.02244699001312256,0.02997279167175293,-0.0286712646484375,0.39798652551764857,-0.8207335229516818,0.06486261810676787,0.40471731324895543
1728404108087268900,2.700268798828125,0.0026759873144328594,0.0018921918235719204,-0.0709274560213089,0.7157164216041565,0.6010015606880188,0.35573527216911316,-0.05746734142303467,0.06791335344314575,-0.015983015298843384,0.3979044725918455,-0.8207980588944881,0.06448396826624961,0.4047277669040299
1728404108097299700,2.7102998046875,0.0804087296128273,-0.012340592220425606,-0.08997544646263123,0.7151811718940735,0.6018876433372498,0.3553132712841034,-0.07847756147384644,0.08349138498306274,-0.00036332011222839355,0.3983343785264685,-0.820693071041192,0.0641835149083922,0.4045654739730124
1728404108107329800,2.720329833984375,0.14495763182640076,0.0001885141246020794,-0.05245230719447136,0.7147940397262573,0.6028305292129517,0.3544926047325134,-0.08527737855911255,0.07554471492767334,0.028777718544006348,0.3989717159625017,-0.8204502813408343,0.06409087195697334,0.40444447128022776
1728404108117361000,2.73036083984375,0.19634105265140533,0.020073913037776947,-0.019519392400979996,0.7145987153053284,0.6036310791969299,0.353522926568985,-0.0776052474975586,0.06601619720458984,0.05809822678565979,0.3997281990067513,-0.8201346769917691,0.06434733941935337,0.40429691143145774
1728404108127390700,2.740390625,0.1411592960357666,0.07043135911226273,-0.039856091141700745,0.7145036458969116,0.6043059229850769,0.35256022214889526,-0.0740007758140564,0.047290027141571045,0.04877635836601257,0.4004813194647016,-0.8198100227765103,0.06474291151265879,0.40414669223662736
1728404108137421800,2.750421875,0.09874792397022247,0.09214767813682556,-0.07073704153299332,0.7141525745391846,0.6049845218658447,0.352108359336853,-0.06504356861114502,0.02958279848098755,0.0024143755435943604,0.4010712149978864,-0.8196524426537561,0.06499272934738605,0.40384136601225706
1728404108147453000,2.760452880859375,0.0630706250667572,0.045058730989694595,-0.0612063854932785,0.7135744690895081,0.6057286262512207,0.35200071334838867,-0.04174518585205078,0.0028070807456970215,-0.04056882858276367,0.4015364664591867,-0.8196156325630523,0.06504286684850145,0.40344539853119715
1728404108157482800,2.770482666015625,0.06590256094932556,-0.04082070663571358,-0.001060490496456623,0.7132799625396729,0.6063829660415649,0.351470947265625,0.0014570951461791992,-0.03948843479156494,-0.07629391551017761,0.4019683588615609,-0.8194597760167097,0.06497041090405406,0.40334368507610874
1728404108167513900,2.780513916015625,0.04901571944355965,-0.12762804329395294,0.04451951012015343,0.713397204875946,0.6068462133407593,0.3504311144351959,0.040570080280303955,-0.06772273778915405,-0.09393087029457092,0.4023739350041817,-0.8191502165807858,0.06487281775844292,0.40358345080036895
1728404108177545000,2.790544921875,-0.05714220553636551,-0.14081229269504547,0.03670766204595566,0.7137237191200256,0.6070129871368408,0.3494761288166046,0.047491490840911865,-0.07373368740081787,-0.07292583584785461,0.4024981586770057,-0.8188821549549549,0.06457619914887416,0.40405088941105577
1728404108187574500,2.800574462890625,-0.09267862886190414,-0.09020130336284637,-0.006929032038897276,0.713685154914856,0.6070895195007324,0.34942197799682617,0.010603725910186768,-0.0618777871131897,-0.00991395115852356,0.4022864070148113,-0.8189077912999487,0.06403914694814325,0.40429521911894206
1728404108197606000,2.81060595703125,-0.05213652551174164,-0.07127224653959274,-0.0421256348490715,0.7132483720779419,0.6074449419975281,0.3496962785720825,-0.03308779001235962,-0.057914912700653076,0.04333961009979248,0.4021489559140469,-0.8190370073196603,0.06345482618214345,0.4042624377910274
1728404108207636700,2.82063671875,-0.07382717728614807,-0.02805127389729023,-0.013716097921133041,0.7128121852874756,0.6077572703361511,0.3500429689884186,-0.05474632978439331,-0.05516022443771362,0.04976785182952881,0.40201129109335926,-0.8191820898485506,0.06294597195870652,0.4041849929829692
1728404108217666600,2.83066650390625,-0.020093707367777824,0.0554623156785965,0.05155771225690842,0.7125734090805054,0.6077179312705994,0.3505972623825073,-0.04172062873840332,-0.03198850154876709,0.031391292810440063,0.4018404547649871,-0.8193585444508672,0.06285070706160005,0.4040120798448027
1728404108227698000,2.840697998046875,0.025590956211090088,0.06516926735639572,0.07234874367713928,0.7126979231834412,0.6074433922767639,0.3508197069168091,-0.015462756156921387,-0.03175973892211914,0.020274072885513306,0.4018194707842323,-0.8193990453056934,0.06320649107798168,0.40389523932651283
1728404108237728800,2.850728759765625,0.022380515933036804,0.06509348005056381,0.04887271299958229,0.7130717635154724,0.6070115566253662,0.3508075773715973,0.00041407346725463867,-0.053209006786346436,0.022559791803359985,0.4018242834469254,-0.819356498330941,0.06370806800430416,0.40389799052700875
1728404108247758600,2.860758544921875,-0.04329489916563034,0.004301234148442745,0.030004482716321945,0.7136603593826294,0.6064677834510803,0.35055097937583923,0.013741493225097656,-0.05850934982299805,0.024754196405410767,0.4017344160221473,-0.8192511702422842,0.06405479756383385,0.40414610458352374
1728404108257790000,2.8707900390625,-0.07909171283245087,0.04548100382089615,0.04524974897503853,0.7143984436988831,0.605565071105957,0.3506082594394684,0.021594107151031494,-0.04324817657470703,0.04874482750892639,0.4013225967149677,-0.8192512107066137,0.06427741137249064,0.4045196720722061
1728404108267822000,2.880822021484375,-0.007956283167004585,0.07579496502876282,0.07035829871892929,0.7147847414016724,0.6046843528747559,0.35133957862854004,0.03925883769989014,-0.02958071231842041,-0.0035765469074249268,0.4008809967153461,-0.8194438666960411,0.06466485942524178,0.404505372081018
1728404108277852200,2.89085205078125,0.07181218266487122,0.12261024862527847,0.09734224528074265,0.7149192094802856,0.6039773225784302,0.35228127241134644,0.04800504446029663,-0.038181424140930176,-0.07983550429344177,0.4006345915601653,-0.8196786234649795,0.06532674339409494,0.40416749699226234
1728404108287883000,2.900883056640625,0.09701687097549438,0.06632141023874283,0.11570873856544495,0.7150933742523193,0.6034379005432129,0.352851539850235,0.05579596757888794,-0.057692110538482666,-0.1232372522354126,0.40063847645243467,-0.819785230802583,0.06616601228470437,0.4038106807748825
1728404108297914000,2.9109140625,0.025867726653814316,0.03565915673971176,0.12886688113212585,0.7155764102935791,0.602761447429657,0.3530285358428955,0.058334171772003174,-0.06447714567184448,-0.09533807635307312,0.40057434758706495,-0.8197814909960568,0.06687736035191405,0.4037647452582023
1728404108307944000,2.92094384765625,-0.0013772103702649474,0.05432232469320297,0.11543629318475723,0.7161692976951599,0.6018246412277222,0.35342398285865784,0.05612379312515259,-0.04822063446044922,-0.04519644379615784,0.4002850268540981,-0.8198501338865503,0.06751106280232577,0.40380669368789346
1728404108317975000,2.93097509765625,0.013526239432394505,0.1156688779592514,0.08074835687875748,0.716545045375824,0.6009305119514465,0.35418277978897095,0.03220367431640625,-0.02062368392944336,-0.011256754398345947,0.3999567067944934,-0.8200284206136179,0.06815256448402154,0.4036621498679247
1728404108328006100,2.941006103515625,0.04549109563231468,0.18805651366710663,0.024069894105196,0.7164583802223206,0.6003884673118591,0.3552756905555725,-0.007703006267547607,0.011305749416351318,0.012613683938980103,0.39978403121738504,-0.8203047229843612,0.06883315350048752,0.40315603108660464
1728404108338036000,2.951035888671875,-0.011050144210457802,0.19405826926231384,-0.01798621006309986,0.715865969657898,0.600178062915802,0.35682249069213867,-0.034469425678253174,0.051402747631073,0.010319262742996216,0.3996334650866842,-0.8207323971363164,0.06935108335413472,0.40234548005097176
1728404108348067000,2.961067138671875,0.09580866247415543,0.2938365340232849,-0.004447764717042446,0.7151364684104919,0.6001616716384888,0.35831013321876526,-0.03454858064651489,0.08707892894744873,0.007641464471817017,0.3996195275191403,-0.8211384745525423,0.0699046984723064,0.40143404529819965
1728404108358098000,2.971097900390625,0.2881392240524292,0.25361865758895874,0.01817738637328148,0.7145402431488037,0.600684404373169,0.35862353444099426,0.0052931904792785645,0.07025986909866333,-0.06591412425041199,0.400393735407506,-0.821139130366385,0.07100915525667993,0.4004662486211452
1728404108368128000,2.9811279296875,0.2319185584783554,0.10656662285327911,0.05946410447359085,0.7147132158279419,0.6011934876441956,0.3574236333370209,0.039620399475097656,0.014086723327636719,-0.08432182669639587,0.40149465396945105,-0.8206678814971466,0.07222215750813626,0.400112876397623
1728404108378159000,2.9911591796875,0.036880627274513245,0.059182219207286835,0.05946063995361328,0.7153603434562683,0.6009185314178467,0.3565899431705475,0.05150061845779419,-0.001629650592803955,0.053413718938827515,0.4018987184945529,-0.8203410040963114,0.07304523660075819,0.40022792488365694
1728404108388190000,3.00118994140625,-0.059631794691085815,0.09999729692935944,-0.020734060555696487,0.7154608964920044,0.6005172729492188,0.35706430673599243,0.04724973440170288,0.00968170166015625,0.12482348084449768,0.4017262659878445,-0.8204597341640169,0.07333471927010383,0.4001049162073257
1728404108398220000,3.011219970703125,-0.0806148424744606,0.1417209357023239,-0.1101885735988617,0.7146914601325989,0.6006837487220764,0.35832321643829346,0.008666813373565674,0.005822658538818359,0.12338152527809143,0.40150189826572835,-0.8208580276452043,0.0731690458273099,0.39954316138296125
1728404108408251100,3.021251220703125,0.016010768711566925,0.19008447229862213,-0.10604416579008102,0.713376522064209,0.6013690829277039,0.3597908318042755,-0.010190427303314209,0.012812435626983643,0.06289294362068176,0.4015018362606603,-0.821324550736451,0.07294790018353696,0.39862385184108495
1728404108418282000,3.031281982421875,0.09513960778713226,0.17946431040763855,-0.03677348047494888,0.7121202349662781,0.6022735834121704,0.36076486110687256,0.012595951557159424,0.02973008155822754,-0.033570677042007446,0.4019035057711443,-0.8216064158873769,0.0731117378048331,0.39760674297476145
1728404108428312000,3.04131201171875,0.11318705230951309,0.17671220004558563,0.03636091575026512,0.7113684415817261,0.6028046607971191,0.36136090755462646,0.030010461807250977,0.03331899642944336,-0.04646524786949158,0.4023173103641671,-0.821745388448706,0.07358650401434835,0.396812808549639
1728404108438343200,3.05134326171875,0.2333354949951172,0.1983058601617813,0.04759732633829117,0.7109224200248718,0.6032648086547852,0.3614705502986908,0.03915393352508545,0.007040977478027344,-0.055180907249450684,0.4029834455861797,-0.8216983869246945,0.07447841220567651,0.3960670255373024
1728404108448373000,3.061373046875,0.1987982839345932,0.089364193379879,0.05230339616537094,0.7108231782913208,0.6037790775299072,0.36080628633499146,0.038612306118011475,-0.0559123158454895,-0.11556708812713623,0.4038611547336771,-0.8214080940974295,0.07544460167565542,0.3955919653041642
1728404108458404000,3.071404052734375,0.05415482819080353,0.06629621982574463,0.07122436165809631,0.7109964489936829,0.6036393642425537,0.3606985807418823,0.01605433225631714,-0.08490163087844849,-0.03884497284889221,0.40413540399810394,-0.8213117784430282,0.07613310793890474,0.39537984945846955
1728404108468435000,3.08143505859375,0.024056576192378998,0.05581028386950493,0.04119269177317619,0.7111180424690247,0.6031728386878967,0.3612395226955414,-0.00019568204879760742,-0.05641990900039673,0.03695395588874817,0.40400281477890443,-0.8214320322204766,0.07661052999691027,0.3951734607528335
1728404108478465000,3.091465087890625,0.005347205325961113,0.13259129226207733,-0.03170468658208847,0.7107223868370056,0.6030975580215454,0.36214226484298706,-0.03159952163696289,-0.024713218212127686,0.04406198859214783,0.4039056892665719,-0.8216840651597669,0.07685330252194092,0.3947012365542699
1728404108488496000,3.10149609375,0.06667287647724152,0.2841874659061432,-0.07232294976711273,0.7095392942428589,0.6035775542259216,0.36365923285484314,-0.06044566631317139,0.005812644958496094,0.00047644972801208496,0.4039903823125224,-0.822124512826708,0.07707722609351099,0.39365229546693353
1728404108498527000,3.11152685546875,0.21853065490722656,0.34448665380477905,-0.06261119991540909,0.7079508304595947,0.6046726107597351,0.364933580160141,-0.05336403846740723,0.023089170455932617,-0.04877150058746338,0.4046518223681307,-0.8224533351274207,0.07770011394733052,0.39216076718968934
1728404108508557000,3.12155712890625,0.24590182304382324,0.31074148416519165,-0.02260999009013176,0.7065219879150391,0.6059278249740601,0.3656204342842102,-0.009881973266601562,-0.0005811452865600586,-0.06735682487487793,0.40567863818448197,-0.8225694619418044,0.07867458424396476,0.39065929991277965
1728404108518588200,3.131588134765625,0.12272882461547852,0.15744833648204803,-0.022477898746728897,0.7056618928909302,0.606747567653656,0.36592134833335876,0.04757291078567505,-0.03295618295669556,-0.05394023656845093,0.406451059422583,-0.8225844383491148,0.07947018286232325,0.3896623919088736
1728404108528619000,3.141618896484375,-0.06680461764335632,0.03883833438158035,-0.05332103371620178,0.705403745174408,0.6069968938827515,0.3660062849521637,0.07534277439117432,-0.05374366044998169,0.04785791039466858,0.4066484103728967,-0.8225947245172015,0.07963075194156727,0.38940215225868996
1728404108538649000,3.151649169921875,-0.18648527562618256,0.0006981370970606804,-0.08459373563528061,0.7051170468330383,0.6068077087402344,0.36687132716178894,0.06481105089187622,-0.06628036499023438,0.12046387791633606,0.4061701387623658,-0.8228998328404877,0.07919301888906079,0.38934591266773433
1728404108548680200,3.16168017578125,-0.17792853713035583,0.021323787048459053,-0.06107163056731224,0.7046878933906555,0.6064934730529785,0.3682129681110382,0.030404329299926758,-0.06257867813110352,0.10812070965766907,0.4054421929127641,-0.8233674293750053,0.07856568420709685,0.38924312196809185
1728404108558711000,3.1717109375,0.016459912061691284,0.12482950836420059,-0.008051288314163685,0.7041510939598083,0.6063545346260071,0.36946624517440796,0.0019646286964416504,-0.045533061027526855,0.01806125044822693,0.4050542409853639,-0.8237622050611367,0.07841524474038666,0.38884174284755285
1728404108568741000,3.1817412109375,0.14170756936073303,0.1488506942987442,0.024598799645900726,0.7036043405532837,0.6067219376564026,0.36990484595298767,-0.012777864933013916,-0.026582777500152588,-0.07982003688812256,0.40539739527203056,-0.823849885738089,0.07889103575398287,0.3882017150425159
1728404108578772000,3.19177197265625,0.08857638388872147,0.18328072130680084,0.011087251827120781,0.703047513961792,0.6072016954421997,0.3701762855052948,-0.028044402599334717,-0.003884434700012207,-0.0752696692943573,0.40589459574153436,-0.8238741110876188,0.07949586265032367,0.3875068006589214
1728404108588803000,3.201802978515625,0.04799273610115051,0.1906672716140747,-0.05368109047412872,0.7022877335548401,0.6076470613479614,0.3708871304988861,-0.028474748134613037,0.019000887870788574,-0.03363737463951111,0.4062061968729185,-0.8240479799461248,0.07992807528894322,0.3867209065264859
1728404108598833200,3.211833251953125,-0.023530516773462296,0.12267320603132248,-0.10316342115402222,0.7014076113700867,0.608169674873352,0.37169530987739563,-0.02849489450454712,0.007156312465667725,0.018761903047561646,0.4063768239248142,-0.8242851332120378,0.08001048521814018,0.38601859703019337
1728404108608864000,3.221864013671875,-0.03925195336341858,0.1050071269273758,-0.07090827822685242,0.7006635665893555,0.6083462834358215,0.37280815839767456,-0.028712093830108643,-0.020165622234344482,0.06807944178581238,0.40619716234951786,-0.8246355324708697,0.07987690287526324,0.3854866953884216
1728404108618895000,3.23189501953125,0.01053544133901596,0.10401877015829086,0.003853308502584696,0.7001985311508179,0.6081265211105347,0.37403741478919983,-0.007785201072692871,-0.04181194305419922,0.02934393286705017,0.4059267529959524,-0.8249900433496937,0.0800633307959064,0.3849736218953953
1728404108628925200,3.24192529296875,-0.018428565934300423,0.09796514362096786,0.051910050213336945,0.7000998258590698,0.6075609922409058,0.37513965368270874,0.008335232734680176,-0.05880928039550781,-0.03811877965927124,0.4056048352969002,-0.8252820647190143,0.08049436829152788,0.3845970109695752
1728404108638956000,3.2519560546875,-0.04579274356365204,0.08317489922046661,0.02966173365712166,0.7001141905784607,0.6069595813751221,0.3760852813720703,0.007222235202789307,-0.05231785774230957,-0.026384353637695312,0.40526474611166086,-0.825532333165305,0.08086409743025039,0.38434076372818493
1728404108648987100,3.261987060546875,-0.11378458142280579,0.011818165890872478,-0.04452008381485939,0.7000208497047424,0.6067571043968201,0.3765851557254791,0.0005101561546325684,-0.03247743844985962,-0.006391704082489014,0.40502941648914487,-0.8256895927286444,0.0808039295461425,0.38426358502548486
1728404108659017000,3.272016845703125,-0.1280750334262848,0.011933214962482452,-0.07451979070901871,0.6996594667434692,0.6068283319473267,0.3771418035030365,-0.013288617134094238,-0.0028550028800964355,0.018945783376693726,0.4047059056600779,-0.8259116859775155,0.08025449771985009,0.3842423724084705
1728404108669048000,3.282048095703125,0.025580037385225296,0.02414540760219097,-0.050452541559934616,0.6991228461265564,0.6072509288787842,0.3774563670158386,-0.013225078582763672,0.03026115894317627,-0.000014960765838623047,0.4047065998700583,-0.8260425602363594,0.07988663434181893,0.3840368250361129
1728404108679079200,3.2920791015625,0.0702524334192276,0.02890506014227867,-0.008137574419379234,0.6987451314926147,0.607748806476593,0.3773548901081085,-0.01049739122390747,0.04079544544219971,-0.04648327827453613,0.4049926689660162,-0.8260132763392953,0.07987180749546732,0.3838014259966726
1728404108689109000,3.30210888671875,0.13408547639846802,0.11589295417070389,0.021517788991332054,0.6984145045280457,0.6079524159431458,0.37763944268226624,-0.016636312007904053,0.04593253135681152,-0.047118693590164185,0.405223084047141,-0.826063250702225,0.0802448297721664,0.3833728090941549
1728404108699140000,3.31214013671875,0.2028512805700302,0.14239530265331268,-0.012767214328050613,0.6980295181274414,0.6083514094352722,0.3777078092098236,-0.023438453674316406,0.03321951627731323,-0.04421168565750122,0.4057521702213902,-0.8260159053323493,0.08094210149018244,0.38276783523639696
1728404108709171000,3.3221708984375,0.10347597301006317,0.11013482511043549,-0.05933178588747978,0.69776850938797,0.608853816986084,0.37738072872161865,-0.033522844314575195,-0.006619930267333984,-0.026153922080993652,0.40635944430339266,-0.8258598267987275,0.08152242656786592,0.38233707994919125
1728404108719201000,3.332200927734375,0.016045788303017616,0.11991646140813828,-0.051291171461343765,0.6974144577980042,0.6090787649154663,0.37767189741134644,-0.02390676736831665,-0.01406240463256836,0.014936745166778564,0.40653052903342063,-0.8259257244250892,0.0817474967162965,0.3819645786146198
1728404108729232100,3.342232177734375,0.020920971408486366,0.07079978287220001,-0.04668975993990898,0.6969552636146545,0.6092167496681213,0.37829649448394775,0.010610044002532959,-0.006387829780578613,0.039840102195739746,0.40655073522678337,-0.826100738099226,0.08188908085468691,0.3815340506980925
1728404108739262200,3.35226220703125,0.026123322546482086,0.014286383986473083,-0.05954777076840401,0.6963895559310913,0.6096134185791016,0.3786998987197876,0.03783309459686279,-0.0014742612838745117,0.020973652601242065,0.40664299244872487,-0.8262328605597336,0.08178761704520345,0.3811714809282339
1728404108749293000,3.36229296875,0.11649210751056671,-0.008639171719551086,-0.07345452904701233,0.6956951022148132,0.6106935143470764,0.37823566794395447,0.044417381286621094,0.01786184310913086,0.00685042142868042,0.4072052692643743,-0.8261178448769351,0.08153001360790171,0.3808755463879797
1728404108759324200,3.37232421875,0.18218596279621124,-0.013430305756628513,-0.07635124772787094,0.6951615214347839,0.6123775243759155,0.37648966908454895,0.036970555782318115,0.03126871585845947,-0.012781083583831787,0.40837761824600166,-0.8256081502171585,0.0813389274975608,0.3807662917751679
1728404108769354000,3.38235400390625,0.16511403024196625,0.00685366103425622,-0.07652302086353302,0.6945502758026123,0.6141946315765381,0.37465283274650574,0.00833052396774292,0.02003687620162964,-0.0024452507495880127,0.40964242009546387,-0.8250704258704674,0.08114934147702757,0.38061348387543525
1728404108779385000,3.392385009765625,0.19035327434539795,0.034186482429504395,-0.07644206285476685,0.693794310092926,0.6159699559211731,0.3731355369091034,-0.0127183198928833,0.0017209649085998535,-0.01655295491218567,0.4108660269521382,-0.8246201054972493,0.08105215197556061,0.3802909753192782
1728404108789416200,3.402416259765625,0.19934651255607605,0.09305405616760254,-0.08738259226083755,0.692986249923706,0.6174591183662415,0.3721751272678375,-0.02814549207687378,-0.02123725414276123,-0.015348315238952637,0.41191378667951706,-0.824319482000578,0.08114771509003212,0.37978875104293597
1728404108799446000,3.412446044921875,0.25919997692108154,0.12022949010133743,-0.1383056938648224,0.6917487382888794,0.618812620639801,0.3722286820411682,-0.041434526443481445,-0.03986382484436035,0.007287770509719849,0.4127627528073791,-0.8243104481823299,0.08140411713872552,0.37883031843782716
1728404108809477000,3.42247705078125,0.276419997215271,0.19241873919963837,-0.16914910078048706,0.6902716159820557,0.6203155517578125,0.37246939539909363,-0.03151923418045044,-0.03083813190460205,-0.000811159610748291,0.41368963802674424,-0.8243507925749061,0.0817341591744441,0.3776586696110736
1728404108819508000,3.432508056640625,0.3944253921508789,0.19440725445747375,-0.16182513535022736,0.6889193058013916,0.6220159530639648,0.37213778495788574,-0.007110774517059326,-0.005621850490570068,0.0014431774616241455,0.41495335137859196,-0.8241917802698396,0.08232134022789332,0.3764902206829108
1728404108829538000,3.4425380859375,0.4708714485168457,0.12220896035432816,-0.1698087602853775,0.687703013420105,0.6243882179260254,0.37041065096855164,0.020915210247039795,0.002061307430267334,0.05025887489318848,0.4168835771387878,-0.8236034153903751,0.08296229514997251,0.3755034240767549
1728404108839569200,3.452569091796875,0.44700291752815247,0.00924890860915184,-0.18406891822814941,0.6866401433944702,0.6272344589233398,0.36756232380867004,0.03871685266494751,-0.013632893562316895,0.050024956464767456,0.41915435188809613,-0.8227052011052909,0.08329055223025099,0.37487120193960805
1728404108849600000,3.46260009765625,0.4465102255344391,0.034255724400281906,-0.20444130897521973,0.6854354739189148,0.6301217675209045,0.3648626506328583,0.03777015209197998,-0.014139831066131592,0.04428645968437195,0.42130818673857845,-0.8218762341197865,0.08337138777444483,0.3742566839833409
1728404108859630000,3.472630126953125,0.4912177622318268,0.008989143185317516,-0.23301436007022858,0.6839731931686401,0.6333140134811401,0.3620690107345581,0.021318495273590088,-0.015806138515472412,-0.009056955575942993,0.4236358617420077,-0.8210210638732475,0.08342015424140747,0.3734944854508836
1728404108869661200,3.4826611328125,0.42737141251564026,0.02667705900967121,-0.26723089814186096,0.6823298335075378,0.6367112398147583,0.35920044779777527,-0.011293947696685791,-0.0267716646194458,-0.03646180033683777,0.426011301716563,-0.8201606534012076,0.08328704530484042,0.37271197361804714
1728404108879692000,3.492692138671875,0.3701424300670624,0.057855699211359024,-0.26150351762771606,0.6804728507995605,0.6399396657943726,0.35697901248931885,-0.024329662322998047,-0.012528777122497559,-0.04788172245025635,0.4280992973562291,-0.8195116869682585,0.08300661459306061,0.37180842188542357
1728404108889721900,3.502721923828125,0.3317103385925293,0.07849252969026566,-0.271857351064682,0.6785257458686829,0.6430166363716125,0.35515138506889343,-0.022702932357788086,0.008655726909637451,-0.01111149787902832,0.4300262891041024,-0.8189824051400851,0.08272555358162102,0.3708122476317334
1728404108899753200,3.512753173828125,0.23558193445205688,0.07315167039632797,-0.30371755361557007,0.6764335036277771,0.6459432244300842,0.3538293242454529,-0.015025973320007324,0.0068582892417907715,0.005057334899902344,0.43168526449805217,-0.8186258060133145,0.08225848849969326,0.3697745146639117
1728404108909784000,3.5227841796875,0.18842454254627228,0.05203014239668846,-0.37927088141441345,0.6739976406097412,0.6489945650100708,0.3528929650783539,0.00024253129959106445,0.0150221586227417,-0.02347099781036377,0.43316531369556877,-0.8184241491768882,0.08141495358858869,0.3686752063085942
1728404108919814000,3.53281396484375,0.18390436470508575,-0.0360725000500679,-0.44144052267074585,0.6712499856948853,0.6524304747581482,0.3517928719520569,0.021392345428466797,0.029622197151184082,-0.06248626112937927,0.434680679656572,-0.8182176972693413,0.08010145442123667,0.3676361812187861
1728404108929845000,3.542844970703125,0.12735401093959808,-0.17500801384449005,-0.44329169392585754,0.6687008142471313,0.6559795141220093,0.35004255175590515,0.04364043474197388,0.032573163509368896,-0.09268790483474731,0.43619045976844895,-0.8178542132953426,0.07833110458267477,0.3670374467862559
1728404108939876000,3.5528759765625,0.01596449501812458,-0.23123592138290405,-0.40015727281570435,0.6666655540466309,0.6590534448623657,0.34814584255218506,0.07225656509399414,0.024891197681427002,-0.13499581813812256,0.437343751275125,-0.8174690396630088,0.07627115266031319,0.36695711370564144
1728404108949906000,3.562906005859375,-0.13722479343414307,-0.3444918990135193,-0.412545770406723,0.6650151014328003,0.6615357398986816,0.34659141302108765,0.10028952360153198,0.01943349838256836,-0.19650590419769287,0.43797014563165126,-0.8172102656750333,0.07391267394610773,0.367268996523787
1728404108959937000,3.57293701171875,-0.34452617168426514,-0.361532062292099,-0.44286611676216125,0.6633680462837219,0.663548469543457,0.34589940309524536,0.11338073015213013,-0.015156745910644531,-0.19080910086631775,0.43787508403736847,-0.8172643884563036,0.0709127882072754,0.3678528952072053
1728404108969968000,3.582968017578125,-0.44951197504997253,-0.47410067915916443,-0.41405391693115234,0.6619190573692322,0.6649970412254333,0.34589287638664246,0.13361310958862305,-0.07204055786132812,-0.20065966248512268,0.43713179735762725,-0.8175535342207798,0.06747333006499001,0.3687401319097351
1728404108979998000,3.592998046875,-0.2262570559978485,-0.6477617621421814,-0.31375953555107117,0.6614559888839722,0.6661638021469116,0.34453076124191284,0.15823078155517578,-0.13201481103897095,-0.14963024854660034,0.43651551668597643,-0.8174108601879184,0.06406926542297103,0.3703899653682073
1728404108990029000,3.603029052734375,0.09662351757287979,-0.7791434526443481,-0.2503044009208679,0.6620140671730042,0.6678285598754883,0.34020933508872986,0.18802261352539062,-0.16947650909423828,-0.20066773891448975,0.43704798033630204,-0.8163001323875662,0.061308733996722306,0.3726719688604568
1728404109000060200,3.61306005859375,0.2067786604166031,-0.9224211573600769,-0.2102041244506836,0.6633840799331665,0.6698837876319885,0.33343246579170227,0.18904811143875122,-0.1570359468460083,-0.36507919430732727,0.4383803353320826,-0.814408717108156,0.0587764790771224,0.37564135788957786
1728404109010090000,3.623090087890625,0.3506609797477722,-0.7828797698020935,-0.1483338326215744,0.6650038957595825,0.6720064878463745,0.32584816217422485,0.13295447826385498,-0.09144014120101929,-0.37948277592658997,0.44007494471386244,-0.8122308849135316,0.056613395763704125,0.37869503176994807
1728404109020121000,3.63312109375,0.5334625244140625,-0.6540907621383667,-0.008670739829540253,0.6667681336402893,0.6739891767501831,0.31805500388145447,0.0900372862815857,-0.0771874189376831,-0.40280234813690186,0.4422652195725315,-0.8098994505605186,0.055591187802846546,0.38127945312041656
1728404109030151000,3.64315087890625,0.5720887184143066,-0.5495758056640625,0.10528112947940826,0.6690061092376709,0.675402045249939,0.31026265025138855,0.0657045841217041,-0.12425458431243896,-0.32404136657714844,0.4446105408969829,-0.8074921806410966,0.05556707469956054,0.3836536915325834
1728404109040181800,3.653181640625,0.40248996019363403,-0.7837110757827759,0.17682455480098724,0.6719529032707214,0.67600017786026,0.30249491333961487,0.12634122371673584,-0.16484606266021729,-0.2513474225997925,0.44656124115928986,-0.8050761164760071,0.05567677151467123,0.3864396866298414
1728404109050213000,3.663213134765625,0.1483122855424881,-1.0389834642410278,0.19285225868225098,0.6759979724884033,0.6755107641220093,0.2944687008857727,0.20811152458190918,-0.20145082473754883,-0.15446928143501282,0.4475275697481262,-0.8026322249200858,0.054916895276664615,0.3904928596401132
1728404109060243000,3.673242919921875,-0.13419663906097412,-1.204256534576416,0.16467814147472382,0.6805245280265808,0.6743215322494507,0.2866649925708771,0.2949851155281067,-0.2702840566635132,-0.1321849822998047,0.4475429271142818,-0.8003174970809934,0.05314502671718645,0.39544005032648466
1728404109070273800,3.683273681640625,-0.2612920105457306,-1.2182239294052124,0.15772676467895508,0.6850491762161255,0.6725848913192749,0.27988797426223755,0.317010760307312,-0.3189625144004822,-0.15989282727241516,0.4466286957669838,-0.7983626738379141,0.05060662983669276,0.4007229057364436
1728404109080305200,3.69330517578125,-0.08622658252716064,-1.2796045541763306,0.1441984325647354,0.6895290613174438,0.6710476279258728,0.27247923612594604,0.2891392111778259,-0.24837923049926758,-0.13275444507598877,0.4459311725605481,-0.7961958924016606,0.04808034878354769,0.4060859851732808
1728404109090335000,3.7033349609375,0.2671879231929779,-1.283180832862854,0.19962520897388458,0.694105327129364,0.670055627822876,0.2631419003009796,0.2554950714111328,-0.1569635272026062,-0.22836706042289734,0.4461360465255352,-0.7933824752690697,0.04599122283526469,0.4115723713306761
1728404109100365800,3.71336572265625,0.9751980304718018,-1.3121289014816284,0.28653642535209656,0.6990984082221985,0.6699070334434509,0.24997270107269287,0.21211081743240356,-0.03901714086532593,-0.285571426153183,0.44836216588696537,-0.7892584329501092,0.045359408550824265,0.4171152853801664
1728404109110397200,3.723397216796875,1.263213872909546,-1.3556952476501465,0.32732006907463074,0.7044293284416199,0.6705410480499268,0.23271045088768005,0.1595081090927124,0.03166836500167847,-0.31658804416656494,0.4526083910989524,-0.7837336757254177,0.04600812531534099,0.4228362434993039
1728404109120427000,3.733427001953125,0.967069149017334,-1.4444520473480225,0.3548622131347656,0.709843635559082,0.6706767082214355,0.21520815789699554,0.0912274718284607,0.11811107397079468,-0.3061811029911041,0.45667886423048587,-0.7780926990407582,0.04664581627404185,0.42876596685273977
1728404109130457900,3.743457763671875,0.3065505921840668,-1.4862782955169678,0.3596431314945221,0.7153266072273254,0.6694729924201965,0.20028361678123474,0.057546257972717285,0.1319490671157837,-0.15206590294837952,0.45876985644657065,-0.7733185343105207,0.04604621366267672,0.4351876793408494
1728404109140489200,3.7534892578125,-0.3200414180755615,-1.4789327383041382,0.4085099995136261,0.7207755446434021,0.6666633486747742,0.1898491233587265,0.1036110520362854,-0.11937636137008667,-0.0670311450958252,0.45814733287512976,-0.7700539053755523,0.04406296862103282,0.44178782831515645
1728404109150518800,3.763518798828125,-0.5744068622589111,-1.5467991828918457,0.44032013416290283,0.7264456152915955,0.6626787185668945,0.182026207447052,0.18152862787246704,-0.3350726366043091,-0.02421976625919342,0.45572287899160147,-0.7676667312535174,0.04124184858793755,0.4486685870509785
1728404109160550000,3.7735498046875,-0.24431082606315613,-1.4945231676101685,0.4179264008998871,0.7320488691329956,0.658670961856842,0.17394502460956573,0.22182375192642212,-0.2841898798942566,-0.04308570921421051,0.4532551976716907,-0.7651794416667208,0.0383788538504779,0.45561733864307047
1728404109170581000,3.7835810546875,0.7006982564926147,-1.5759592056274414,0.34228864312171936,0.7371472716331482,0.6562055349349976,0.1612706184387207,0.2176561951637268,-0.019029080867767334,-0.1918034702539444,0.4534790425811368,-0.7611021845609865,0.03686159833998699,0.46230015927261187
1728404109180610800,3.79361083984375,1.3087131977081299,-1.782069444656372,0.2851851284503937,0.7417900562286377,0.65541672706604,0.14204394817352295,0.1727607250213623,0.23653572797775269,-0.30075061321258545,0.4569662330380573,-0.7547706884814053,0.03664941828931712,0.469212024934905
1728404109190642000,3.803641845703125,1.6199227571487427,-1.823831558227539,0.2617408037185669,0.7459354400634766,0.655364453792572,0.1186499074101448,0.1309872269630432,0.4756016731262207,-0.2726263999938965,0.4623032800154496,-0.746962968276626,0.03703074279520087,0.47639347568992435
1728404109200673000,3.813673095703125,1.4544744491577148,-1.8977620601654053,0.28488579392433167,0.7497283816337585,0.6549525856971741,0.09457607567310333,0.09679877758026123,0.4522862434387207,-0.18506072461605072,0.46773153890566793,-0.7388417433228622,0.037428827719492776,0.48367265681654575
1728404109210702800,3.823702880859375,0.9069211483001709,-1.8992935419082642,0.322632372379303,0.7533385157585144,0.6536688208580017,0.07209914177656174,0.07117021083831787,0.23221063613891602,-0.14279305934906006,0.47183849413650303,-0.7312178959696282,0.03701295306471901,0.4912422314574921
1728404109220734000,3.83373388671875,0.23134444653987885,-1.724826455116272,0.3047820031642914,0.7565930485725403,0.65159672498703,0.054667457938194275,0.08282339572906494,0.09547346830368042,-0.18984510004520416,0.47339551794182383,-0.7253222357106808,0.03523327895416425,0.49856080963173127
1728404109230765000,3.84376513671875,0.09833260625600815,-1.4739444255828857,0.2939240336418152,0.7592825293540955,0.6494044065475464,0.04199787601828575,0.11052948236465454,0.0067996978759765625,-0.15859031677246094,0.473331848842891,-0.7210538876176688,0.032866837077532726,0.5049335920816167
1728404109240795000,3.853794921875,0.37820860743522644,-1.7481558322906494,0.18393492698669434,0.7614996433258057,0.6475570797920227,0.028071274980902672,0.13521355390548706,-0.057957589626312256,-0.10383117198944092,0.4738044950467362,-0.7163122975337305,0.030534075127803838,0.511344917498675
1728404109250826000,3.863825927734375,0.8426420092582703,-1.7338520288467407,0.08553805202245712,0.7626590728759766,0.6467076539993286,0.01095838937908411,0.1848658323287964,0.07111144065856934,-0.07757830619812012,0.47581902343286386,-0.7104058288477586,0.028332896420366065,0.5178001087374416
1728404109260857000,3.873857177734375,1.765434980392456,-1.84811270236969,0.11964328587055206,0.7633172273635864,0.6459290385246277,-0.01106330193579197,0.22829043865203857,0.33038920164108276,-0.13371211290359497,0.48039022898949274,-0.7026345211169861,0.0278042974262508,0.5241725027716599
1728404109270887000,3.883886962890625,2.4456496238708496,-1.9103260040283203,0.16683876514434814,0.7637507319450378,0.6443060636520386,-0.03942946344614029,0.23335015773773193,0.38413625955581665,-0.13462752103805542,0.48773880843391926,-0.6924060572278768,0.02931076092928718,0.5308725306434564
1728404109280917800,3.893917724609375,2.029346466064453,-2.199505567550659,0.19300511479377747,0.7638574838638306,0.641584575176239,-0.06993607431650162,0.22974908351898193,0.3518388867378235,-0.2659556269645691,0.49548744988856674,-0.6812219332494167,0.031122981740069902,0.5380151334064336
1728404109290949000,3.90394921875,1.334841251373291,-1.992478370666504,0.28674307465553284,0.7635064125061035,0.6384754776954651,-0.09699053317308426,0.20107799768447876,0.2566050887107849,-0.13738447427749634,0.5009077164116235,-0.6712195755007941,0.031128987026138245,0.5455151566729954
1728404109300979000,3.91397900390625,0.6646913886070251,-1.8473843336105347,0.5556973218917847,0.764179527759552,0.6341173648834229,-0.11800429224967957,0.23365384340286255,-0.15744805335998535,0.020195409655570984,0.5033840886280496,-0.663374855506717,0.030523052101957333,0.5528170777513315
1728404109311009800,3.924009765625,0.25481733679771423,-1.7469605207443237,0.6962626576423645,0.7659102082252502,0.6287176609039307,-0.13452139496803284,0.24733459949493408,-0.41953492164611816,0.05432121455669403,0.503254343013583,-0.657180233789715,0.02921368137198045,0.5603534007001015
1728404109321041200,3.934041259765625,0.5800454020500183,-1.7740031480789185,0.6342163681983948,0.7677162885665894,0.6228737831115723,-0.15046660602092743,0.22296077013015747,-0.23052453994750977,0.09106414020061493,0.5028496929747069,-0.6511329141847239,0.028153605285444902,0.5677813214375622
1728404109331071000,3.944071044921875,0.6948961019515991,-1.8877043724060059,0.4490201473236084,0.7682343125343323,0.617594301700592,-0.16850365698337555,0.2298736572265625,-0.16057837009429932,0.040284037590026855,0.5036216374803248,-0.644211275660555,0.027203059548274094,0.5749932198895128
1728404109341101800,3.954101806640625,1.207383155822754,-1.964031457901001,0.399101585149765,0.7673823833465576,0.6127249598503113,-0.1889248937368393,0.26763659715652466,-0.04302281141281128,-0.003930926322937012,0.5056167374396123,-0.6362722360588988,0.026366607939501987,0.5820775616018119
1728404109351133000,3.9641328125,1.444004774093628,-2.1456167697906494,0.36540645360946655,0.7655699849128723,0.6070200800895691,-0.21314184367656708,0.30550557374954224,0.19522607326507568,0.009253829717636108,0.5090978808698822,-0.6266852867176543,0.02635588831248956,0.5893983513465423
1728404109361163000,3.9741630859375,1.3960680961608887,-2.296569585800171,0.41672849655151367,0.7629200220108032,0.6007468700408936,-0.2388647049665451,0.30049556493759155,0.21494215726852417,-0.0389673113822937,0.5127273190905188,-0.6163450964271843,0.026198650513196833,0.5971123091155761
1728404109371193900,3.98419384765625,0.8317474722862244,-2.34086537361145,0.5702887773513794,0.7600195407867432,0.5940837264060974,-0.26350516080856323,0.24820494651794434,0.1703358292579651,0.028092563152313232,0.5150685455307348,-0.6063108271119799,0.025191391951349715,0.605356960050505
1728404109381224000,3.994223876953125,0.23901775479316711,-2.198923349380493,0.6798949241638184,0.7574685215950012,0.5878592729568481,-0.284012109041214,0.22148960828781128,-0.06967085599899292,0.1084749698638916,0.5149492469083776,-0.597893911055202,0.022733526696063093,0.6138675325157247
1728404109391254800,4.0042548828125,0.14351040124893188,-1.9797587394714355,0.7593143582344055,0.7556425333023071,0.5818503499031067,-0.30075663328170776,0.22580277919769287,-0.2305930256843567,0.14247721433639526,0.5134041496404714,-0.5909481013821023,0.020050611281763876,0.6219280731783389
1728404109401286000,4.014285888671875,0.376079797744751,-2.0054898262023926,0.7108696103096008,0.7538880109786987,0.57535320520401,-0.31720882654190063,0.1977415680885315,-0.14734423160552979,0.024453729391098022,0.5119850024418116,-0.5840135531310974,0.017993091002057343,0.6296631669226677
1728404109411316000,4.02431591796875,0.5896802544593811,-2.1218338012695312,0.5361638069152832,0.7507608532905579,0.5689621567726135,-0.3356190025806427,0.21173304319381714,0.09464246034622192,-0.0994853675365448,0.5115733779620654,-0.5761350328358873,0.016091164819704563,0.6372613847400953
1728404109421346800,4.034346923828125,0.9611736536026001,-2.137765884399414,0.3554172217845917,0.7459340691566467,0.5629123449325562,-0.3559662103652954,0.28310340642929077,0.2594294548034668,-0.1119750440120697,0.5124655481506057,-0.5672835084454683,0.01436350832012425,0.644485918407081
1728404109431378000,4.0443779296875,1.2536548376083374,-2.277656078338623,0.29159456491470337,0.7396568059921265,0.5563202500343323,-0.37870246171951294,0.32856523990631104,0.32925403118133545,-0.11574330925941467,0.5147611076719201,-0.5572000066344511,0.013300987736201088,0.6514385573405029
1728404109441408000,4.054407958984375,1.3815432786941528,-2.429069757461548,0.3355620205402374,0.732193648815155,0.5485734343528748,-0.4036827087402344,0.29020631313323975,0.38599687814712524,-0.08363723754882812,0.5175552601539645,-0.5458956188969837,0.01251489463405285,0.6587700119406839
1728404109451438800,4.06443896484375,0.9891382455825806,-2.421006679534912,0.49792879819869995,0.7244061827659607,0.5402310490608215,-0.42823630571365356,0.26009100675582886,0.34300869703292847,-0.05018782615661621,0.5195584751215686,-0.5345570007700149,0.01143059756098985,0.6664662909598313
1728404109461470000,4.074469970703125,0.5647264122962952,-2.382484197616577,0.5835662484169006,0.7168261408805847,0.5326526761054993,-0.44993501901626587,0.24521005153656006,0.09224045276641846,0.09673982858657837,0.5199180226663075,-0.5243523292844107,0.009334250360276969,0.6742794963138299
1728404109471500000,4.0845,0.2883768379688263,-2.2462592124938965,0.5434321165084839,0.7092579007148743,0.5267056822776794,-0.4685448408126831,0.26916617155075073,-0.08517742156982422,0.0857781171798706,0.5190807855127576,-0.5154507669800951,0.006171674091651345,0.6817825897541656
1728404109481531000,4.09453076171875,0.3545665144920349,-2.364067554473877,0.4213040769100189,0.7008223533630371,0.5216788053512573,-0.4865175783634186,0.2330155372619629,-0.044597506523132324,0.09905111789703369,0.5182909057285334,-0.50668983217158,0.002574022017086285,0.68893645119146
1728404109491562000,4.10456201171875,0.5441955924034119,-2.4992218017578125,0.2703864872455597,0.6905246376991272,0.516940176486969,-0.5059136748313904,0.1910366415977478,0.14790046215057373,0.05124753713607788,0.5181869140462159,-0.4970326463284306,-0.0013135711811377566,0.6960166264543881
1728404109501591800,4.114591796875,0.6558049917221069,-2.3772695064544678,0.2105710655450821,0.6790428757667542,0.5122394561767578,-0.5258435606956482,0.23828500509262085,0.25530803203582764,-0.07666492462158203,0.5188363123873826,-0.4868811823244647,-0.004992592893114132,0.7026596598186867
1728404109511623000,4.124622802734375,0.9226406812667847,-2.358980417251587,0.29452911019325256,0.6676868200302124,0.5061872601509094,-0.5458652973175049,0.2722393870353699,0.21720147132873535,-0.08510094881057739,0.5197816156025556,-0.4764540283144434,-0.007674395574345628,0.7090556488806994
