time,seconds_elapsed,rotationRateX,rotationRateY,rotationRateZ,gravityX,gravityY,gravityZ,accelerationX,accelerationY,accelerationZ,quaternionW,quaternionX,quaternionY,quaternionZ
1728066476247903200,0.0929033203125,-0.06701873987913132,-0.023844530805945396,-0.11115474998950958,0.0391802117228508,-0.08819188922643661,-0.995332658290863,-0.0010180622339248657,0.0027733594179153442,0.003160417079925537,0.9988324534848251,0.04414748753107048,0.019613005626265792,-7.179715958723467e-18
1728066476257934300,0.102934326171875,-0.05410686507821083,-0.008512499742209911,-0.11156141012907028,0.03831169381737709,-0.08734770864248276,-0.9954409003257751,0.005557246506214142,0.004294306039810181,0.0018953680992126465,0.9988594076473757,0.04373426953131176,0.019153644548271998,-0.0005498682540525545
1728066476267965400,0.11296533203125,-0.05127406120300293,0.004510357975959778,-0.11445680260658264,0.037650588899850845,-0.08687571436166763,-0.9955074191093445,0.009270109236240387,0.006675697863101959,-0.0031040310859680176,0.9988755821258859,0.04350737197486708,0.018798767566698966,-0.0010955319385724358
1728066476277995300,0.122995361328125,-0.046853214502334595,-0.002183656208217144,-0.11322615295648575,0.03705214709043503,-0.08657533675432205,-0.9955560564994812,-0.0032845288515090942,0.004773147404193878,-0.00044614076614379883,0.998886981181447,0.04336629077312082,0.01847538359485666,-0.0016430644286218954
1728066476288026400,0.1330263671875,-0.058463796973228455,-0.0021948423236608505,-0.1320538967847824,0.037096939980983734,-0.08601650595664978,-0.9956028461456299,-0.015292216092348099,0.0043211430311203,-0.002123594284057617,0.9988976198060353,0.043097138436210276,0.01847230518919819,-0.002239803726191686
1728066476298056200,0.14305615234375,-0.06275847554206848,0.007377251051366329,-0.14169400930404663,0.03820423036813736,-0.08481171727180481,-0.9956642985343933,-0.016948819160461426,0.0010869279503822327,-0.0005972981452941895,0.9989112088234368,0.04250798352367926,0.018997854422389573,-0.002939361609279705
1728066476308087300,0.15308740234375,-0.07772570848464966,0.0286516472697258,-0.14679795503616333,0.039408326148986816,-0.08332569152116776,-0.9957428574562073,-0.01938888058066368,-0.0028862804174423218,0.0005798935890197754,0.99892844412882,0.041779528559237784,0.019571620546477157,-0.0036744032261051204
1728066476318117000,0.1631171875,-0.09789016097784042,0.04446565732359886,-0.15859203040599823,0.040240783244371414,-0.0820908322930336,-0.9958121180534363,-0.027148820459842682,-0.005006156861782074,0.0023276209831237793,0.9989426295148996,0.041177628307387096,0.019958551703860385,-0.004442778779486022
1728066476328148200,0.173148193359375,-0.11631204932928085,0.04661083593964577,-0.16680096089839935,0.0407545231282711,-0.08111080527305603,-0.9958715438842773,-0.029600434005260468,-0.0017900094389915466,0.005499839782714844,0.99895368449633,0.040703591593797314,0.020185440410014348,-0.0052315131777246416
1728066476338179300,0.183179443359375,-0.13240952789783478,0.038472212851047516,-0.1682385355234146,0.04143289104104042,-0.07987652719020844,-0.9959433078765869,-0.025746937841176987,-0.0001861676573753357,0.008653879165649414,0.9989668601188982,0.04010409413228442,0.020494189124554692,-0.006069947967764675
1728066476348209200,0.193209228515625,-0.10794387012720108,0.021639171987771988,-0.17012538015842438,0.04207027330994606,-0.07855736464262009,-0.9960215091705322,-0.015413254499435425,0.001958422362804413,0.008213281631469727,0.9989810703247086,0.039462214231099656,0.020784192384967842,-0.006895779973958641
1728066476358240000,0.203239990234375,-0.07975117862224579,0.01437193714082241,-0.18849852681159973,0.04206258803606033,-0.07767882943153381,-0.9960907101631165,-0.0099886953830719,0.00631365180015564,0.007138073444366455,0.9989919639576886,0.03904010983578438,0.02074863114514369,-0.007776050657288115
1728066476368270000,0.21327001953125,-0.07300485670566559,0.021083369851112366,-0.1912200152873993,0.04161851480603218,-0.07698744535446167,-0.9961630702018738,-0.009987130761146545,0.015616782009601593,-0.0029519200325012207,0.9990023406440083,0.03871094389758686,0.02049231577002897,-0.008715514904211514
1728066476378301200,0.22330126953125,-0.06747127324342728,0.025949178263545036,-0.1737600713968277,0.04128330200910568,-0.07646501064300537,-0.9962172508239746,-0.012444272637367249,0.019778788089752197,-0.01579141616821289,0.9990077764977329,0.038465470322570576,0.020292532172535106,-0.009599593074046365
1728066476388332000,0.23333203125,-0.08420178294181824,0.0176616869866848,-0.16864359378814697,0.040882159024477005,-0.0760011076927185,-0.9962692856788635,-0.00882352888584137,0.015759587287902832,-0.009422242641448975,0.9990126423131955,0.0382472813937188,0.020062516852593203,-0.010415700289596664
1728066476398362000,0.243362060546875,-0.11232056468725204,0.011121816001832485,-0.15604977309703827,0.04017207399010658,-0.07537230104207993,-0.9963459372520447,0.0008739829063415527,0.011056683957576752,-0.006400644779205322,0.9990232857122339,0.037943629514161054,0.0196802923022269,-0.011199970513231771
1728066476408393200,0.253393310546875,-0.1245838925242424,0.007596323266625404,-0.15104302763938904,0.039363402873277664,-0.07438746094703674,-0.9964522123336792,0.005009070038795471,0.00962933897972107,0.003959536552429199,0.9990412535876086,0.0374595551813861,0.01925283407982204,-0.011941568253497004
1728066476418423300,0.26342333984375,-0.1277513951063156,0.009376432746648788,-0.15025553107261658,0.038757096976041794,-0.07329457253217697,-0.9965569972991943,0.0058747753500938416,0.0038977786898612976,0.01703423261642456,0.9990585311626722,0.03692191629741364,0.01892848313702743,-0.0126723035802762
1728066476428454100,0.2734541015625,-0.13297225534915924,0.01661224290728569,-0.1556183397769928,0.03861376643180847,-0.07206859439611435,-0.9966519474983215,0.006155434995889664,0.0019546374678611755,0.015298187732696533,0.9990727023968227,0.036320508445468254,0.018837445239496656,-0.013405825052043019
1728066476438485200,0.2834853515625,-0.1438456028699875,-0.000013287179172039032,-0.1674494445323944,0.03860475867986679,-0.07061325013637543,-0.9967564344406128,-0.0003968365490436554,0.004939600825309753,0.011526942253112793,0.999087838389368,0.03560632396759873,0.018813808743572014,-0.014203415704672533
1728066476448515000,0.29351513671875,-0.14220988750457764,-0.00529859634116292,-0.18418528139591217,0.03845135495066643,-0.06878560036420822,-0.9968901872634888,-0.0035545900464057922,0.004866704344749451,0.01426994800567627,0.9991085138800545,0.034705958620125425,0.0187191183614575,-0.015076584966541575
1728066476458546200,0.303546142578125,-0.13296866416931152,0.01286591961979866,-0.21395541727542877,0.03829571604728699,-0.0669160932302475,-0.9970234036445618,0.002979222685098648,0.006109997630119324,0.019133388996124268,0.9991266311655994,0.033786452690602556,0.0186218170218582,-0.0160509692661706
1728066476468576300,0.313576171875,-0.1413336545228958,0.03273123875260353,-0.230935201048851,0.03846665471792221,-0.06524094194173813,-0.9971278309822083,0.0003668777644634247,0.011652253568172455,0.018886864185333252,0.9991343090047162,0.03296960460901837,0.018683779916108003,-0.017158894800242065
1728066476478607000,0.323607177734375,-0.15427294373512268,0.040369126945734024,-0.24510188400745392,0.03903470188379288,-0.06364305317401886,-0.9972090125083923,-0.01446814090013504,0.006865277886390686,0.018403470516204834,0.9991337506517463,0.03219676745994682,0.018943391800541887,-0.018336298764373933
1728066476488637200,0.33363720703125,-0.1813431680202484,0.05025478079915047,-0.25506824254989624,0.03981214016675949,-0.061910051852464676,-0.997287392616272,-0.017870087176561356,0.001760084182024002,0.025104165077209473,0.9991300387170664,0.03136009834763628,0.019309302412538802,-0.019565153174725212
1728066476498668300,0.343668212890625,-0.1918793022632599,0.05316854640841484,-0.2464316040277481,0.040651556104421616,-0.06020814925432205,-0.9973577260971069,-0.0023978576064109802,0.004361160099506378,0.025464415550231934,0.9991227871389312,0.03054074180808506,0.0197078928014211,-0.020797566624931946
1728066476508699100,0.35369921875,-0.2000751793384552,0.053803976625204086,-0.247991681098938,0.041476160287857056,-0.0584634467959404,-0.9974275827407837,0.006085395812988281,0.0008464343845844269,0.03003561496734619,0.9991145232465276,0.029700237267919382,0.02010253546639333,-0.0219979724622579
1728066476518729200,0.363729248046875,-0.22184918820858002,0.05591410771012306,-0.2640300691127777,0.04208013042807579,-0.05646557733416557,-0.9975173473358154,0.010181128978729248,-0.0037759430706501007,0.027897655963897705,0.9991087304659607,0.028732403107898426,0.02039030610767463,-0.02324666637777454
1728066476528760300,0.37376025390625,-0.2487705498933792,0.060695547610521317,-0.26157835125923157,0.04266542196273804,-0.05417247489094734,-0.9976196885108948,0.009244885295629501,-0.0005148425698280334,0.020950376987457275,0.9991037162975939,0.027618048637847906,0.020673867842378405,-0.024526464692649085
1728066476538790100,0.3837900390625,-0.2756962478160858,0.06990310549736023,-0.2695997953414917,0.04346322640776634,-0.05157611146569252,-0.9977228045463562,0.0028013288974761963,0.0017563439905643463,0.027279138565063477,0.9990971012797867,0.0263558017300087,0.02107023515926265,-0.02581603866964429
1728066476548821200,0.3938212890625,-0.31238314509391785,0.06469369679689407,-0.2986242473125458,0.04430899769067764,-0.04850523918867111,-0.997839629650116,-0.003262944519519806,-0.0008109919726848602,0.027060210704803467,0.9990894250156043,0.0248600838116251,0.021497778291365833,-0.027204100021894946
1728066476558852000,0.40385205078125,-0.32492896914482117,0.05108760669827461,-0.3098481297492981,0.04503782093524933,-0.04514558985829353,-0.9979646801948547,-0.00390021875500679,0.00016285479068756104,0.027108967304229736,0.9990788504383803,0.02322194608504491,0.021872570740250112,-0.028700788374587144
1728066476568882200,0.413882080078125,-0.327777236700058,0.049056679010391235,-0.2969698905944824,0.0456867516040802,-0.04173240438103676,-0.9980837106704712,0.0018595419824123383,0.005950719118118286,0.03092062473297119,0.9990651902428497,0.021556672663584128,0.022213648214612438,-0.030175972738402435
1728066476578913300,0.423913330078125,-0.3489290475845337,0.048895664513111115,-0.31173205375671387,0.04633517935872078,-0.038199447095394135,-0.9981952905654907,0.008092831820249557,0.008551795035600662,0.022639870643615723,0.9990477231183738,0.01983251520958474,0.022561521578484532,-0.031642615388266945
1728066476588943400,0.433943359375,-0.3489290475845337,0.04918381944298744,-0.35162782669067383,0.04695612192153931,-0.03449028730392456,-0.9983013272285461,0.006724204868078232,0.00784861296415329,0.021281063556671143,0.9990217003211712,0.018024455396962052,0.022900977784741552,-0.03325965812339559
1728066476598974200,0.44397412109375,-0.30433040857315063,0.06298474967479706,-0.38260915875434875,0.04763096570968628,-0.03104196861386299,-0.9983825087547302,0.003989428281784058,0.02127651497721672,0.027465760707855225,0.9989800772726469,0.0163535915791793,0.023265690667810052,-0.03507000387936542
1728066476609005300,0.45400537109375,-0.31302669644355774,0.07419159263372421,-0.4099512994289398,0.04843392223119736,-0.027789602056145668,-0.9984397292137146,-0.0006282292306423187,0.021884625777602196,0.0211905837059021,0.9989247316078632,0.014787460046383694,0.02369528241219896,-0.03700141398040646
1728066476619035100,0.46403515625,-0.3613865077495575,0.09301450103521347,-0.46295273303985596,0.04940182715654373,-0.024202685803174973,-0.9984856843948364,-0.00512092188000679,0.010790383443236351,0.0304681658744812,0.9988546673662674,0.013064223578355948,0.024217288823920068,-0.039142198966312776
1728066476629066200,0.474066162109375,-0.40973833203315735,0.10340002924203873,-0.5035936236381531,0.050503041595220566,-0.020088793709874153,-0.9985218644142151,-0.015102747827768326,-0.0030738748610019684,0.05436903238296509,0.9987678583393115,0.011088552651264844,0.02482175638616078,-0.04151570852909471
1728066476639096300,0.484096435546875,-0.47085806727409363,0.0973958745598793,-0.493955135345459,0.051608167588710785,-0.015404646284878254,-0.9985485672950745,-0.020587150007486343,-0.022986292839050293,0.06576359272003174,0.9986695496200538,0.008833089735337639,0.02544955277068743,-0.04396992107781519
1728066476649127200,0.494127197265625,-0.5218586921691895,0.08309896290302277,-0.4263835549354553,0.05259353667497635,-0.010204178281128407,-0.9985638856887817,-0.011989995837211609,-0.02830883488059044,0.08108341693878174,0.9985720547929995,0.006314623079181254,0.026042130240661546,-0.046214226204976984
1728066476659158300,0.504158203125,-0.6128699779510498,0.038551148027181625,-0.364025354385376,0.05318564176559448,-0.004246378317475319,-0.9985756278038025,0.0007693395018577576,-0.028300447389483452,0.09145587682723999,0.9984843769410889,0.0034023682932883804,0.026469174118641543,-0.04813230494416975
1728066476669188400,0.514188232421875,-0.6649467945098877,0.048901788890361786,-0.30367839336395264,0.0536360926926136,0.002344142645597458,-0.9985578060150146,0.02535856142640114,-0.022806009277701378,0.09961676597595215,0.9984021763856795,0.00016327092553988055,0.026852835342313648,-0.04971845173232683
1728066476679219200,0.52421923828125,-0.6699112057685852,0.0700644925236702,-0.13962526619434357,0.054201822727918625,0.009247994050383568,-0.9984871745109558,0.036389511078596115,-0.008637472987174988,0.10790795087814331,0.9983278009365147,-0.0032407703013993656,0.027311358444311335,-0.05084499099889131
1728066476689249300,0.534249267578125,-0.533428430557251,-0.05071891471743584,-0.11508184671401978,0.054142341017723083,0.015141306445002556,-0.9984184503555298,0.03536561504006386,-0.0016828859224915504,0.10089647769927979,0.9982875286625154,-0.006173944355497711,0.027434847185961567,-0.05129539948092906
1728066476699280400,0.5442802734375,-0.7967920899391174,0.07305330783128738,-0.17345353960990906,0.05423465743660927,0.021900765597820282,-0.9982880353927612,0.08060716092586517,-0.021992148831486702,0.07438361644744873,0.998220898527771,-0.009530265275528377,0.027661656613409375,-0.05195180641954291
1728066476709310200,0.554310302734375,-0.803703784942627,0.18706989288330078,-0.176767036318779,0.055520035326480865,0.030184371396899223,-0.998001217842102,-0.039757803082466125,-0.014147214591503143,0.11845409870147705,0.9981081715776398,-0.013613417625070475,0.02853184797018166,-0.052731321078863344
1728066476719341300,0.56434130859375,-0.8110671639442444,0.26647743582725525,-0.14166897535324097,0.05773229897022247,0.038247015327215195,-0.997599184513092,-0.08541183918714523,0.026862405240535736,0.16135650873184204,0.9979701067528176,-0.017563308215314672,0.02986526896244895,-0.05343503798962688
1728066476729372200,0.5743720703125,-0.9327917098999023,0.3015158474445343,-0.07838375121355057,0.06055878847837448,0.04704625904560089,-0.9970552921295166,-0.05588970333337784,-0.02579060196876526,0.11608916521072388,0.9978096465796069,-0.021872209916578015,0.03152702857381179,-0.05388479604920992
1728066476739402200,0.58440234375,-1.028783917427063,0.31589439511299133,-0.0101543627679348,0.06362002342939377,0.056906044483184814,-0.9963504672050476,-0.03249219059944153,-0.039343010634183884,0.1768009066581726,0.9976283161959836,-0.02671745551626105,0.033331047314195734,-0.053971662705886304
1728066476749433300,0.594433349609375,-1.1156810522079468,0.3209317624568939,0.038130342960357666,0.06683088839054108,0.06762620061635971,-0.9954699277877808,-0.008649230003356934,-0.04685882478952408,0.21594417095184326,0.9974186080728858,-0.03200162150378991,0.03522704476480948,-0.05376803915061197
1728066476759464200,0.604464111328125,-1.1439356803894043,0.3357064425945282,0.07761862874031067,0.07010674476623535,0.07883962243795395,-0.9944190979003906,-0.012962684035301208,-0.06449619680643082,0.23506546020507812,0.9971780045194472,-0.03754345394968571,0.03716095213731286,-0.05334379655195904
1728066476769494300,0.614494384765625,-1.1650532484054565,0.427328497171402,0.10930092632770538,0.07403279095888138,0.09024237841367722,-0.9931643605232239,-0.024487599730491638,-0.05412466078996658,0.23486357927322388,0.9968956579577788,-0.04317655947010353,0.03941575291918422,-0.05273692959062457
1728066476779525400,0.624525390625,-1.2067257165908813,0.5008166432380676,0.18728575110435486,0.07877358794212341,0.10197645425796509,-0.9916630387306213,-0.026390261948108673,-0.027299776673316956,0.19860273599624634,0.9965654424312392,-0.048974895247414635,0.04207082988354238,-0.05185394927141238
1728066476789555200,0.63455517578125,-1.2302864789962769,0.5082631707191467,0.2790779769420624,0.08407942950725555,0.11389626562595367,-0.9899284243583679,-0.01887872815132141,-0.016606055200099945,0.20999068021774292,0.9961973182686173,-0.05488290276061113,0.044985034119328846,-0.05054860760379942
1728066476799586300,0.64458642578125,-1.2297099828720093,0.5079281330108643,0.35770487785339355,0.08945966511964798,0.12585322558879852,-0.9880070686340332,-0.0020116493105888367,-0.01377725601196289,0.2030034065246582,0.9958004861610009,-0.0608428074363039,0.04790226951264082,-0.04883518200275041
1728066476809616400,0.654616455078125,-1.2845975160598755,0.7145114541053772,0.8039526343345642,0.09657468646764755,0.13788442313671112,-0.9857288002967834,0.0025920793414115906,0.0030611753463745117,0.16685062646865845,0.9953709522203602,-0.06688698262651491,0.051592099456074285,-0.04583750893630918
1728066476819647200,0.664647216796875,-1.191097378730774,0.6311389207839966,1.0521087646484375,0.10466338694095612,0.14920954406261444,-0.9832507967948914,0.05884969234466553,0.05408346652984619,0.11470526456832886,0.9949609767921922,-0.07269398609379145,0.05558954822000861,-0.040962619984947365
1728066476829678300,0.67467822265625,-1.2125378847122192,0.3087001144886017,1.0093876123428345,0.11087716370820999,0.15983164310455322,-0.9808976054191589,0.21973492205142975,0.0836377739906311,0.08627480268478394,0.9945731570262516,-0.07825153148365124,0.05854825261059661,-0.03567904261023393
1728066476839708400,0.68470849609375,-1.2912535667419434,0.34120869636535645,1.1709165573120117,0.1155712902545929,0.17091095447540283,-0.9784849286079407,0.15896475315093994,0.0370665043592453,0.11337262392044067,0.9941527927372429,-0.08412468036762279,0.06066781316842856,-0.030043854301724876
1728066476849739300,0.6947392578125,-1.3903982639312744,0.6760961413383484,1.2875795364379883,0.12264649569988251,0.1826152205467224,-0.9755047559738159,-0.02373911440372467,0.00010894238948822021,0.14557921886444092,0.9935754635722306,-0.09037651579789015,0.06387261293835714,-0.023667787362873484
1728066476859769300,0.704769287109375,-1.31834077835083,1.2696677446365356,0.9896681904792786,0.13405923545360565,0.19451618194580078,-0.9716951847076416,-0.16295947134494781,-0.004422023892402649,0.11285430192947388,0.9927408600299451,-0.09673484792082537,0.06924424711272847,-0.017697609945570625
1728066476869800400,0.714800537109375,-0.894308865070343,1.1089634895324707,0.3895498812198639,0.14793485403060913,0.20454928278923035,-0.9676129817962646,-0.242280051112175,-0.03502395749092102,0.10033392906188965,0.9917662503915494,-0.102022315266987,0.07605891010342748,-0.014361875858651977
1728066476879831300,0.724831298828125,-1.1937052011489868,0.7075709700584412,0.12290621548891068,0.15690742433071136,0.21389174461364746,-0.964173436164856,-0.18068070709705353,-0.10860593616962433,0.07602035999298096,0.99091302361753,-0.10684077240061146,0.08061227356886078,-0.013347328152393725
1728066476889861400,0.734861328125,-1.6062166690826416,0.4808078706264496,0.4457513689994812,0.16323694586753845,0.2271914929151535,-0.9600717425346375,-0.015135243535041809,-0.17714250087738037,0.20033669471740723,0.9898968764555159,-0.1137528446794662,0.08381182791204261,-0.011837914390173957
1728066476899892200,0.744892333984375,-1.8006281852722168,0.39485418796539307,0.8271154761314392,0.16880425810813904,0.24250037968158722,-0.9553526639938354,0.0968206524848938,-0.13268272578716278,0.3068541884422302,0.988741771275027,-0.12192078431981761,0.08636548114286736,-0.008128493984709502
1728066476909922000,0.754922119140625,-1.96332585811615,0.48952820897102356,0.8463714718818665,0.1752009242773056,0.2590799033641815,-0.9498327374458313,0.13693277537822723,-0.1518562138080597,0.20979678630828857,0.9873729827840424,-0.13089610708772342,0.08916184440044066,-0.0033273317014886044
1728066476919953400,0.764953369140625,-1.914710521697998,0.5690929293632507,0.6911949515342712,0.18231594562530518,0.2762405574321747,-0.9436376690864563,0.03123071789741516,-0.12089067697525024,0.11456668376922607,0.9858082414193802,-0.14020249899041612,0.09232780592831799,0.001001838831170077
1728066476929984300,0.774984375,-1.7390718460083008,0.6299123764038086,0.6636962294578552,0.18989983201026917,0.2922770380973816,-0.937289834022522,-0.05806399881839752,-0.028559237718582153,0.05403488874435425,0.9841863556036144,-0.14894545129696257,0.09576190742483087,0.004715521295821545
1728066476940014000,0.78501416015625,-1.5601390600204468,0.7093894481658936,0.8134676218032837,0.19834937155246735,0.30629420280456543,-0.9310431480407715,-0.03289841115474701,0.04899159073829651,0.01061779260635376,0.9825717189386876,-0.15673765490710317,0.0995576292376209,0.00862700927153331
1728066476950045400,0.79504541015625,-1.4568403959274292,0.7930793166160583,0.9877160787582397,0.20819203555583954,0.3184518814086914,-0.9247943162918091,0.0260760635137558,0.09487837553024292,0.027150273323059082,0.9809289895131392,-0.16372514394369683,0.10390826531544105,0.013250161949795473
1728066476960075300,0.8050751953125,-1.4492725133895874,0.8639891743659973,1.0550355911254883,0.21920667588710785,0.3296336829662323,-0.9183082580566406,0.03061014413833618,0.08487150073051453,0.0764961838722229,0.9791915115178395,-0.1703611497919693,0.10873337045403388,0.01838766315246848
1728066476970106000,0.815106201171875,-1.5360002517700195,0.9327466487884521,0.9977338910102844,0.2309267222881317,0.34096863865852356,-0.9112700819969177,-0.028305351734161377,0.015217423439025879,0.13372802734375,0.9772835662625055,-0.17718449912949386,0.11388854024712239,0.023489430185877902
1728066476980137500,0.825137451171875,-1.6697092056274414,0.9985091090202332,0.9261725544929504,0.24310682713985443,0.35328441858291626,-0.9033765196800232,-0.1077461689710617,-0.07771053910255432,0.17766857147216797,0.9751361306572609,-0.18460170140370438,0.11930609741799077,0.028243104233634506
1728066476990167000,0.8351669921875,-1.7945083379745483,1.0234184265136719,0.8796594142913818,0.255474328994751,0.3666496276855469,-0.8945953845977783,-0.15618547797203064,-0.14667874574661255,0.1984437108039856,0.9727409164220232,-0.19266539864882473,0.12482926221128994,0.032754362979130536
1728066477000198100,0.8451982421875,-1.9407356977462769,1.079584002494812,0.8853058218955994,0.26818302273750305,0.38104957342147827,-0.8848045468330383,-0.15285718441009521,-0.17327046394348145,0.1825493574142456,0.9700610755175487,-0.20140962756405828,0.1305062490745126,0.037200213839872445
1728066477010228200,0.855228271484375,-1.955758810043335,1.0767884254455566,0.9476328492164612,0.2812775671482086,0.3958137035369873,-0.8741936087608337,-0.11893939971923828,-0.14234980940818787,0.13725519180297852,0.9671330511420674,-0.2105293789571519,0.1363106090121777,0.041838770243110474
1728066477020259000,0.865259033203125,-1.927057147026062,1.0740853548049927,1.006966233253479,0.29462990164756775,0.4099014699459076,-0.8632346391677856,-0.06702986359596252,-0.09494465589523315,0.09988325834274292,0.9640693932566466,-0.2194859960446607,0.142156883592096,0.046772226361015044
1728066477030290200,0.875290283203125,-1.885664463043213,1.0567346811294556,1.038161277770996,0.308074027299881,0.4232484996318817,-0.8520276546478271,-0.021727681159973145,-0.05529788136482239,0.032646000385284424,0.9608951165202494,-0.22823047989595138,0.14797639485019035,0.051909006561162534
1728066477040318700,0.885318603515625,-1.804362177848816,1.083249807357788,1.0646636486053467,0.3216438293457031,0.435616672039032,-0.840704083442688,-0.019855588674545288,-0.020836859941482544,0.005956828594207764,0.9576483849108871,-0.23661423724789002,0.15382346785212272,0.05711033029095662
1728066477050349800,0.895349853515625,-1.7452000379562378,1.1547410488128662,1.1022433042526245,0.33580800890922546,0.4469076097011566,-0.8291601538658142,-0.04334285855293274,-0.00934639573097229,-0.021761417388916016,0.9543029678123293,-0.24460323563352335,0.1599661721278102,0.06233689364171938
1728066477060379600,0.905379638671875,-1.7253408432006836,1.2574467658996582,1.1462475061416626,0.3508659899234772,0.4573433995246887,-0.8171474933624268,-0.07095882296562195,-0.012747913599014282,-0.018988311290740967,0.9507897253150935,-0.25235328833854404,0.16656552126108792,0.06762031390982838
1728066477070410800,0.91541064453125,-1.728279709815979,1.3458175659179688,1.1904085874557495,0.36690154671669006,0.46715810894966125,-0.8044542074203491,-0.09946081042289734,-0.022165894508361816,0.019328534603118896,0.9470479219738673,-0.26002371604687285,0.17366795527993337,0.072989096384907
1728066477080440800,0.92544091796875,-1.7943778038024902,1.4268537759780884,1.2096490859985352,0.3836950957775116,0.47670555114746094,-0.7909045219421387,-0.11765816807746887,-0.0468500554561615,0.05921512842178345,0.9430288972033867,-0.2678167947803558,0.18116819611855023,0.07841443393082792
1728066477090471700,0.9354716796875,-1.9028669595718384,1.453245997428894,1.2101566791534424,0.400910884141922,0.4864656627178192,-0.7762870788574219,-0.12535247206687927,-0.08143621683120728,0.09998714923858643,0.9386735000876995,-0.27600289630813946,0.1888884590627972,0.08387901269369391
1728066477100502800,0.945502685546875,-2.0805716514587402,1.470727562904358,1.1909371614456177,0.41809380054473877,0.4968375563621521,-0.760493278503418,-0.12785643339157104,-0.11371970176696777,0.13834673166275024,0.9339467127674288,-0.28480215675018444,0.19657337761984647,0.08938781484920562
1728066477110532900,0.955532958984375,-2.2706120014190674,1.460809350013733,1.1904839277267456,0.4351736903190613,0.5082157254219055,-0.7431961894035339,-0.12328413128852844,-0.12798184156417847,0.1423357129096985,0.928748090099246,-0.2944854797420403,0.2041572879130952,0.09500012453140155
1728066477120563700,0.965563720703125,-2.3345088958740234,1.4381643533706665,1.222801685333252,0.4520430564880371,0.5198190212249756,-0.7248759865760803,-0.11486968398094177,-0.12119835615158081,0.13112610578536987,0.9231856978404747,-0.3046409009070487,0.2115559397786342,0.10082727334124718
1728066477130593800,0.97559375,-2.4258458614349365,1.4390219449996948,1.2477991580963135,0.46887150406837463,0.5311933159828186,-0.7056862711906433,-0.09110972285270691,-0.11346858739852905,0.08657628297805786,0.917291117478388,-0.31504314180371923,0.21887137323251568,0.10686468412319311
1728066477140624600,0.985624755859375,-2.4515960216522217,1.4669926166534424,1.268984079360962,0.48580068349838257,0.5422406792640686,-0.6855455040931702,-0.07924559712409973,-0.08887147903442383,0.07440060377120972,0.9110431214968916,-0.32565655870211785,0.2262190491172208,0.11301795834996159
1728066477150655700,0.99565576171875,-2.3420803546905518,1.4672526121139526,1.3002655506134033,0.502801239490509,0.5521281957626343,-0.6650904417037964,-0.07924789190292358,-0.05263161659240723,0.07535362243652344,0.9046169648791536,-0.33596262072561134,0.2336319764862396,0.11921908277845598
1728066477160685600,1.005685546875,-2.212462902069092,1.4375609159469604,1.2516825199127197,0.5196096301078796,0.5604689121246338,-0.6448878645896912,-0.07208472490310669,-0.02970707416534424,0.03558927774429321,0.8981953471038877,-0.345612936685769,0.24105553476630492,0.12525532564179243
1728066477170716700,1.015716552734375,-2.0348448753356934,1.4724669456481934,1.2100932598114014,0.5358083248138428,0.5675172805786133,-0.6251667737960815,-0.07386380434036255,0.0010405778884887695,0.014342308044433594,0.891893812774944,-0.3545784680889935,0.24837615739459432,0.1308004051325149
1728066477180746500,1.02574658203125,-1.8247243165969849,1.5496437549591064,1.2345067262649536,0.5520951151847839,0.572837769985199,-0.6058447360992432,-0.08476430177688599,0.060417354106903076,-0.007772088050842285,0.8856888008913972,-0.36267750371555096,0.25601302434708145,0.13593261622419894
1728066477190777600,1.035777587890625,-1.6286053657531738,1.5587995052337646,1.2485504150390625,0.5687050223350525,0.5760700106620789,-0.5871269106864929,-0.04645782709121704,0.14203929901123047,-0.050904035568237305,0.8796163664374076,-0.36973873941729285,0.2640640302982378,0.14084937016030127
1728066477200808700,1.04580859375,-1.2889221906661987,1.635418176651001,1.3382877111434937,0.5855017900466919,0.5770629644393921,-0.569373369216919,-0.013648271560668945,0.18363362550735474,-0.058983445167541504,0.8737978024263553,-0.37557316807823293,0.272503387705397,0.14547907252459552
1728066477210838500,1.055838623046875,-1.1194196939468384,1.6233433485031128,1.3563807010650635,0.6024866104125977,0.5757170915603638,-0.5527744889259338,-0.004067480564117432,0.17536640167236328,-0.08527165651321411,0.8682788342248056,-0.38010281401600793,0.28130872101879356,0.149930197054952
1728066477220869600,1.06586962890625,-1.1030774116516113,1.6105353832244873,1.295355200767517,0.618998110294342,0.5736364722251892,-0.5364536046981812,0.018727600574493408,0.13165539503097534,-0.10406440496444702,0.8628183797407225,-0.3842489246005204,0.29004475799848445,0.15417899928643075
1728066477230899500,1.0758994140625,-1.1017818450927734,1.547121286392212,1.2123268842697144,0.6345833539962769,0.5716121196746826,-0.5201572775840759,-0.01057523488998413,0.09089410305023193,-0.0351862907409668,0.8573633487750674,-0.38840012284108777,0.298440466211344,0.15813525471496337
1728066477240930600,1.0859306640625,-1.1504223346710205,1.4855846166610718,1.1461819410324097,0.6491051316261292,0.5698056817054749,-0.5039682388305664,-0.027416348457336426,0.0406070351600647,-0.019743800163269043,0.8519215136313367,-0.3926441436241767,0.3063436862024893,0.16190689649335172
1728066477250961700,1.095961669921875,-1.2545274496078491,1.4372642040252686,1.1136972904205322,0.662806510925293,0.568362295627594,-0.48749539256095886,-0.03107750415802002,0.004101753234863281,-0.018577486276626587,0.8463429567652124,-0.3972086403688715,0.31381139715895146,0.1656841900365617
1728066477260991500,1.105991455078125,-1.3557710647583008,1.3854964971542358,1.1135138273239136,0.6759341359138489,0.5671698451042175,-0.47056496143341064,-0.026123464107513428,-0.007340073585510254,-0.0015113651752471924,0.8405398296629347,-0.402151135868837,0.3209236458308157,0.16963262714506128
1728066477271022600,1.116022705078125,-1.4643443822860718,1.296741247177124,1.1048049926757812,0.6884753704071045,0.5661152005195618,-0.4533379375934601,-0.014082729816436768,-0.015349090099334717,0.0005029439926147461,0.8345315461552164,-0.40743234841223264,0.327612437526084,0.17385648977474855
1728066477281052700,1.126052734375,-1.5956926345825195,1.1818915605545044,1.056628704071045,0.7001467943191528,0.5653874278068542,-0.4360407590866089,-0.007596254348754883,-0.026248514652252197,-0.009485304355621338,0.8283779713086327,-0.4131002814924055,0.33365816807664656,0.17835458118453773
1728066477291083500,1.13608349609375,-1.6895562410354614,1.0611380338668823,0.9684193730354309,0.7107028365135193,0.5652896761894226,-0.4187471568584442,-0.012216627597808838,-0.02872943878173828,-0.026534736156463623,0.822122859020869,-0.41923853825383456,0.3389180897126595,0.182996312860178
1728066477301114600,1.146114501953125,-1.7305543422698975,0.9712899327278137,0.8881067037582397,0.7201555967330933,0.565679132938385,-0.4017251431941986,-0.02482783794403076,-0.018590331077575684,-0.05928856134414673,0.8158900603602425,-0.42563144684518583,0.3434753158748373,0.18757941634485548
1728066477311144700,1.156144775390625,-1.772904634475708,0.8608614206314087,0.767937958240509,0.7285852432250977,0.5664483904838562,-0.38509708642959595,-0.029351353645324707,0.00448983907699585,-0.08505663275718689,0.8097316693178029,-0.43216889746660353,0.3473924388320127,0.19204982949987626
1728066477321175600,1.166175537109375,-1.7326716184616089,0.8773996829986572,0.6714372038841248,0.735779345035553,0.5680533647537231,-0.368706077337265,-0.040650010108947754,0.03440958261489868,-0.04427289962768555,0.8036622229123829,-0.43899563324349866,0.3506134485154134,0.1961634273164033
1728066477331205600,1.17620556640625,-1.6145614385604858,0.8862861394882202,0.7391222715377808,0.7429970502853394,0.5688341856002808,-0.3526800572872162,-0.08989036083221436,0.06806784868240356,0.003971010446548462,0.7977125490136467,-0.44530549663821106,0.35406636509262146,0.19998708033677812
1728066477341236500,1.186236572265625,-1.6285710334777832,0.9464099407196045,0.8049907684326172,0.750578761100769,0.5686132311820984,-0.3366164267063141,-0.04702651500701904,0.06813621520996094,-0.04845431447029114,0.7916596757847641,-0.45129320597002887,0.3578075374317304,0.20391971913453474
1728066477351267600,1.196267578125,-1.6823581457138062,0.9803178310394287,0.7329487800598145,0.7580384016036987,0.5683822631835938,-0.3198738992214203,-0.02119159698486328,0.0674973726272583,-0.017604589462280273,0.7853465857790934,-0.4575236274393252,0.3615731956291147,0.207768375064861
1728066477361297700,1.206297607421875,-1.6676863431930542,0.9650469422340393,0.71295166015625,0.7652466297149658,0.5680364370346069,-0.3028731346130371,-0.02644670009613037,0.06366223096847534,0.0055709779262542725,0.7789427626670321,-0.463768471673994,0.3653522172557915,0.21138746601194186
1728066477371328500,1.21632861328125,-1.8066061735153198,0.8964151740074158,0.6972941160202026,0.7720261216163635,0.5677096843719482,-0.2857993245124817,0.009361088275909424,0.030312836170196533,-0.030683130025863647,0.7724111047402086,-0.4702061959555599,0.36879055894832385,0.21512929609242937
1728066477381358600,1.226358642578125,-1.943381905555725,0.7654495239257812,0.6860286593437195,0.7782955169677734,0.5675477981567383,-0.26859942078590393,0.05964088439941406,0.006869494915008545,-0.023865729570388794,0.7656395244935791,-0.47707983116067265,0.3716115187649318,0.21930774280302096
1728066477391389700,1.2363896484375,-2.143465280532837,0.5461171865463257,0.5596912503242493,0.7835496068000793,0.5679983496665955,-0.2518492639064789,0.09137409925460815,0.006739377975463867,-0.00010380148887634277,0.7587995208438006,-0.48445365997187384,0.3733363321573672,0.22393757873881212
1728066477401419500,1.24641943359375,-2.1960995197296143,0.40571749210357666,0.5646663308143616,0.7879050374031067,0.5689361691474915,-0.2356206774711609,0.09538030624389648,0.00703740119934082,0.0030005723237991333,0.7519400909013136,-0.49218940568407044,0.3740845531921095,0.22890243017015702
1728066477411450600,1.25645068359375,-2.3217968940734863,0.2711964249610901,0.5976396799087524,0.7920002937316895,0.5694613456726074,-0.2201118916273117,0.0795968770980835,0.011791825294494629,0.017810940742492676,0.7450304430059241,-0.4999395431256501,0.37417176569416766,0.23448993252282344
1728066477421481700,1.266481689453125,-2.464484691619873,0.24908271431922913,0.6071634292602539,0.7960225939750671,0.5697475671768188,-0.20429283380508423,0.09612810611724854,0.016022145748138428,0.004921630024909973,0.7377438164432802,-0.5080472542817983,0.37382023477833054,0.24058341227937027
1728066477431511600,1.276511474609375,-2.5887980461120605,0.19364343583583832,0.561959981918335,0.7998355627059937,0.5699885487556458,-0.1880851686000824,0.0539393424987793,0.028629064559936523,0.03581787645816803,0.7301205865643016,-0.516504161152822,0.37306951882513006,0.24691390336862476
1728066477441542700,1.286542724609375,-2.7741122245788574,0.15571442246437073,0.45558616518974304,0.8030757904052734,0.5707069635391235,-0.17135566473007202,0.01845729351043701,0.00663989782333374,0.034606531262397766,0.7221553987065539,-0.5255207268670468,0.3716855285414131,0.25331671789688687
1728066477451572700,1.29657275390625,-2.906825304031372,0.1258004605770111,0.4419441223144531,0.8058591485023499,0.5717650055885315,-0.15386924147605896,-0.02496016025543213,-0.02078533172607422,0.0549619197845459,0.7137435779478556,-0.5351293162082758,0.3697323246525326,0.2598166196918637
1728066477461603600,1.306603515625,-3.003993034362793,0.09296678006649017,0.4716101288795471,0.8086512088775635,0.572354793548584,-0.13598939776420593,-0.04514729976654053,-0.03306335210800171,0.04817521572113037,0.704918678157881,-0.5449552000437334,0.3674630996293035,0.2666164302998619
1728066477471634700,1.316634765625,-2.9830451011657715,0.03961673378944397,0.4038769006729126,0.8112344145774841,0.5726554989814758,-0.1181708499789238,-0.02964884042739868,-0.033287763595581055,0.0012276247143745422,0.6958887384464615,-0.5548434563108481,0.36477844315037256,0.27354020601724377
1728066477481664800,1.326664794921875,-2.6565961837768555,0.021671662107110023,0.39068278670310974,0.8135570287704468,0.5725281238555908,-0.10166741907596588,-0.045582354068756104,-0.020632922649383545,-0.046541087329387665,0.6873559137660312,-0.563955148679211,0.3621061739214255,0.2799561427310649
1728066477491695600,1.336695556640625,-2.3517887592315674,0.029617201536893845,0.3566204309463501,0.8156795501708984,0.5719144940376282,-0.08706649392843246,-0.05624973773956299,0.0156252384185791,-0.1482391357421875,0.6796286055491343,-0.5719508971284887,0.35963721230317197,0.2857239136676708
1728066477501725700,1.3467255859375,-1.8884958028793335,0.05968322604894638,0.3896276354789734,0.8178488612174988,0.5705886483192444,-0.07451028376817703,-0.05451279878616333,0.08686691522598267,-0.14463627338409424,0.6728740116513271,-0.5785591472812551,0.35779068262940755,0.2906814170086172
1728066477511756500,1.356756591796875,-1.4124327898025513,0.12716826796531677,0.4611353874206543,0.820345401763916,0.5682370662689209,-0.06434529274702072,-0.05882495641708374,0.16368138790130615,-0.12667930126190186,0.6672836591623899,-0.5834671814159236,0.3569221214865219,0.29479703642342103
1728066477521787600,1.36678759765625,-1.0605173110961914,0.22412507236003876,0.5319728255271912,0.8232935070991516,0.5648536682128906,-0.05592909827828407,-0.04846757650375366,0.20046615600585938,-0.12258332967758179,0.662623917968835,-0.5869252325491021,0.35714733939078896,0.29815106424485527
1728066477531817700,1.376817626953125,-0.8634297847747803,0.2925240695476532,0.5499350428581238,0.826500654220581,0.5608526468276978,-0.04838651046156883,-0.04445713758468628,0.1890559196472168,-0.07269180566072464,0.6585244259858717,-0.5895025561232535,0.3581807943370795,0.3008969546083109
1728066477541848600,1.3868486328125,-0.8063346743583679,0.279971182346344,0.5079830288887024,0.82962566614151,0.5567901134490967,-0.04130329191684723,-0.04263848066329956,0.13725590705871582,-0.029772039502859116,0.6547326912971461,-0.5917150280578874,0.3594741718729984,0.30327663006135835
1728066477551878700,1.396878662109375,-0.8474519848823547,0.20345589518547058,0.44370153546333313,0.8323773741722107,0.5531252026557922,-0.03464335948228836,-0.03979027271270752,0.07182902097702026,-0.009896870702505112,0.6511056673785138,-0.5939304512255401,0.3604510221995199,0.30558623880726776
1728066477561909800,1.40690966796875,-0.9343776702880859,0.08590737730264664,0.377286821603775,0.8346956968307495,0.5499728918075562,-0.0285075344145298,-0.03272444009780884,0.023009955883026123,-0.003917273133993149,0.6475521994125276,-0.5963122951218948,0.3607740000738377,0.3081067472449025
1728066477571940600,1.416940673828125,-1.0258615016937256,0.02495507337152958,0.3273986279964447,0.8366507291793823,0.5472670197486877,-0.022677352651953697,-0.032680511474609375,-0.004435598850250244,-0.005749640986323357,0.643969622238641,-0.5989329106408562,0.3604728733017107,0.31087249777859605
1728066477581970700,1.426970703125,-1.1178038120269775,0.08431826531887054,0.27838340401649475,0.8383191227912903,0.5449330806732178,-0.016399571672081947,-0.048066556453704834,-0.023036658763885498,0.007030846551060677,0.6401770943136003,-0.6019169201618717,0.35985585326430736,0.31364473676047955
1728066477592001800,1.437001708984375,-1.2065441608428955,0.24783343076705933,0.22322909533977509,0.8397010564804077,0.5429792404174805,-0.008677717298269272,-0.06443274021148682,-0.03643321990966797,0.013942123390734196,0.6359684818347575,-0.6054451292351068,0.35930117820967894,0.31604235666196767
1728066477602031600,1.447031494140625,-1.3312395811080933,0.3611248731613159,0.14999350905418396,0.8407542705535889,0.5414162278175354,0.0008460184326395392,-0.06388360261917114,-0.042133331298828125,0.004296302795410156,0.6312427633973637,-0.6096215765544505,0.3588656330938171,0.31797724215413237
1728066477612062700,1.457062744140625,-1.466115117073059,0.3714669942855835,0.1172022596001625,0.8414455652236938,0.5402160882949829,0.011643467471003532,-0.03384387493133545,-0.037194907665252686,0.027297137305140495,0.6260527130164294,-0.614404788427421,0.35822966060812944,0.31974383622599695
1728066477622092800,1.4670927734375,-1.6036783456802368,0.20889092981815338,0.015675636008381844,0.8418349027633667,0.5392658710479736,0.022496860474348068,0.023933351039886475,-0.03233838081359863,0.050287723541259766,0.6206387679662385,-0.6195343777867001,0.35696720481514205,0.3218058156409904
1728066477632123600,1.47712353515625,-1.6534397602081299,0.09455929696559906,0.023643283173441887,0.8418295383453369,0.5387516617774963,0.03270183876156807,0.10336071252822876,-0.023935377597808838,0.05242704972624779,0.6152432923902882,-0.6248428075586551,0.35485544347016684,0.3242292730817404
1728066477642154800,1.48715478515625,-1.6742222309112549,-0.08274448662996292,0.10769530385732651,0.8421436548233032,0.5376361608505249,0.04173143580555916,0.14516103267669678,-0.004661738872528076,0.06425631046295166,0.6098936382000062,-0.6298696826508358,0.3523207349356082,0.32735923411202233
1728066477652184800,1.497184814453125,-1.6636161804199219,-0.2044200599193573,0.24066054821014404,0.843149721622467,0.5353933572769165,0.049525436013936996,0.21829748153686523,0.03104346990585327,0.03923512250185013,0.6045617308398417,-0.6344113402880772,0.3496926788312258,0.3312740924901681
1728066477662215700,1.507215576171875,-1.6499252319335938,-0.2948606014251709,0.29966074228286743,0.8447480797767639,0.5321977734565735,0.05626944079995155,0.2366880178451538,0.060377299785614014,0.020665526390075684,0.5992522060200086,-0.6385166256586237,0.34703204250843006,0.33580069027871773
1728066477672245800,1.517245849609375,-1.636873722076416,-0.3648085296154022,0.3144362270832062,0.8465963006019592,0.5285859107971191,0.06222286820411682,0.20598536729812622,0.07465511560440063,0.022402524948120117,0.5940197378068164,-0.642334879334151,0.34426347136081886,0.34063051915639003
1728066477682276600,1.527276611328125,-1.6944568157196045,-0.3967705965042114,0.3091447949409485,0.8485134840011597,0.5248198509216309,0.06774139404296875,0.13996601104736328,0.07048654556274414,0.032142750918865204,0.5887640112303848,-0.6460641367299523,0.3412796903714444,0.3456677581703379
1728066477692307700,1.5373076171875,-1.7669438123703003,-0.3658049404621124,0.2920273244380951,0.8503648042678833,0.5210245251655579,0.07357598841190338,0.08106225728988647,0.04899817705154419,0.02337849885225296,0.5832613119733098,-0.6499723664697945,0.3381181998131147,0.35073972464089115
1728066477702337800,1.547337890625,-1.893214464187622,-0.3231064975261688,0.26040175557136536,0.852084755897522,0.5172321796417236,0.0801410973072052,0.023632466793060303,0.013697445392608643,0.023786671459674835,0.577380582415486,-0.6542010098134552,0.3348008178835011,0.355754393684119
1728066477712368600,1.55736865234375,-2.047376871109009,-0.29838624596595764,0.19648456573486328,0.8535451292991638,0.5135831236839294,0.08771153539419174,-0.02271932363510132,-0.020556271076202393,0.04796982556581497,0.5709831027220083,-0.6589388832803837,0.3311424421258485,0.3607251533114741
1728066477722398700,1.567398681640625,-2.2351932525634766,-0.3221406638622284,0.11141707748174667,0.8546367287635803,0.5102605223655701,0.09607435017824173,-0.04836243391036987,-0.04854476451873779,0.05672729015350342,0.5641057718760148,-0.664207748977546,0.3269024968411638,0.36571508273291276
1728066477732429800,1.577429931640625,-2.3830294609069824,-0.36297279596328735,0.05253298580646515,0.8554011583328247,0.5072115659713745,0.10500232875347137,-0.05756479501724243,-0.05428481101989746,0.03865934908390045,0.556750395700565,-0.6699610284573578,0.3219524596859646,0.3708475803733053
1728066477742460700,1.587460693359375,-2.431504249572754,-0.3847000300884247,-0.04267289116978645,0.8558743596076965,0.5044593214988708,0.11401712149381638,-0.05590182542800903,-0.055316805839538574,0.026165619492530823,0.5491944984315045,-0.6759227694902243,0.31644426292329414,0.37600114856279604
1728066477752490800,1.59749072265625,-2.433785915374756,-0.3046185076236725,-0.11679878830909729,0.8558515906333923,0.5023086071014404,0.12330596148967743,-0.045991361141204834,-0.049519240856170654,-0.005385875701904297,0.5416235157139118,-0.6820515880108896,0.31057786671815635,0.38077692645057576
1728066477762521900,1.60752197265625,-2.4054598808288574,-0.2372693121433258,-0.10241265594959259,0.8556331992149353,0.5001470446586609,0.13320927321910858,-0.05534029006958008,-0.02507990598678589,-0.007446169853210449,0.533917136427503,-0.6882516322279435,0.3048185136865349,0.3851335196876343
1728066477772551700,1.6175517578125,-2.3364510536193848,-0.24293199181556702,-0.025292303413152695,0.855625569820404,0.49742189049720764,0.1430964469909668,-0.014835715293884277,0.012969404458999634,0.015564575791358948,0.5261721530462736,-0.6942072578887576,0.2993735195178088,0.38935169393909275
1728066477782582800,1.627582763671875,-2.257596254348755,-0.3852118253707886,0.06726239621639252,0.8562058806419373,0.49380433559417725,0.1518847793340683,0.04186546802520752,0.05197209119796753,0.04173411428928375,0.5185395881025265,-0.6995926077601082,0.2941302021039228,0.39392179360570767
1728066477792613600,1.637613525390625,-2.1026766300201416,-0.48559674620628357,0.12943843007087708,0.8573973178863525,0.48951035737991333,0.15890108048915863,0.10421150922775269,0.07134169340133667,0.04674172401428223,0.5112708198031595,-0.7042225148448353,0.28900032854468644,0.3989381252345827
1728066477802643700,1.647643798828125,-1.9486372470855713,-0.5152854323387146,0.12984402477741241,0.8588736057281494,0.48506835103034973,0.16445332765579224,0.1610848307609558,0.05919739603996277,-0.02424013614654541,0.504563122592874,-0.7081642004816378,0.28413048395381146,0.40396710439344086
1728066477812674800,1.6576748046875,-1.973142385482788,-0.5192487239837646,0.09722535312175751,0.8602879643440247,0.48081016540527344,0.16948802769184113,0.18858587741851807,0.03421974182128906,-0.1321343183517456,0.4980887364558811,-0.7118746425985648,0.2792463198349714,0.4088564612520855
1728066477822704600,1.66770458984375,-2.0245659351348877,-0.5622103214263916,0.09331157058477402,0.8616746664047241,0.4765189588069916,0.17448922991752625,0.1913800835609436,0.026654839515686035,-0.12666797637939453,0.49146486910282117,-0.7156054502902908,0.2741412975459862,0.41378461899011687
1728066477832735700,1.67773583984375,-2.0721442699432373,-0.6109808087348938,0.08657058328390121,0.8631565570831299,0.4720836877822876,0.17915880680084229,0.1966274380683899,0.01407662034034729,-0.08681248128414154,0.48469234745130185,-0.7192729081706307,0.26874874829793777,0.41892000949707314
1728066477842766800,1.687766845703125,-2.1800074577331543,-0.655501663684845,0.11761584132909775,0.864778459072113,0.46735942363739014,0.1836661994457245,0.1889171004295349,-0.022413194179534912,-0.06310631334781647,0.47765997498187224,-0.7229167080532339,0.26310555427594656,0.4242732879270346
1728066477852796700,1.697796630859375,-2.3624074459075928,-0.6443134546279907,0.17957483232021332,0.8667179346084595,0.4617766737937927,0.18858075141906738,0.15481233596801758,-0.03190603852272034,-0.018796056509017944,0.4699126561792528,-0.7267204903599871,0.25723083448501477,0.42999053568111717
1728066477862827500,1.70782763671875,-2.4481990337371826,-0.580470860004425,0.17960065603256226,0.8687543272972107,0.45550984144210815,0.194362074136734,0.12337207794189453,-0.01800990104675293,0.06027674674987793,0.4614654680721817,-0.7307902414659286,0.2512501998569163,0.43573909702356645
1728066477872857600,1.717857666015625,-2.422553300857544,-0.5487589836120605,0.11237501353025436,0.8705440163612366,0.44936102628707886,0.20056818425655365,0.10336333513259888,-0.003514528274536133,0.04950819909572601,0.45285248937889755,-0.7349740403991469,0.24514740703031562,0.44118073792164303
1728066477882888400,1.727888427734375,-2.220611095428467,-0.5371726751327515,0.05146319419145584,0.8720309734344482,0.44387561082839966,0.2062428742647171,0.09076792001724243,0.02205139398574829,0.02450069785118103,0.44471995213429827,-0.7389019953951601,0.2390507842232916,0.44620915458448307
1728066477892918500,1.73791845703125,-1.928797721862793,-0.4840066432952881,0.02390267513692379,0.8732606172561646,0.43921273946762085,0.21096958220005035,0.11616510152816772,0.03698354959487915,-0.02482745051383972,0.4375218967362142,-0.7423089040502857,0.23337154841835273,0.4506548902818814
1728066477902949600,1.74794970703125,-1.5926014184951782,-0.4972868263721466,0.015279091894626617,0.8743754625320435,0.4352700412273407,0.21449406445026398,0.15556234121322632,0.04838782548904419,-0.10055646300315857,0.431460085302848,-0.7450347562718581,0.2284080569384211,0.4545274757894056
1728066477912980500,1.75798046875,-1.3306149244308472,-0.4980413019657135,0.013773074373602867,0.8755455017089844,0.4319630265235901,0.21639782190322876,0.17416757345199585,0.06164348125457764,-0.09400689601898193,0.4265499432708715,-0.7469884781945676,0.22406945663377387,0.458100705053619
1728066477923010600,1.768010498046875,-1.2254927158355713,-0.4325207471847534,-0.015923835337162018,0.8765737414360046,0.4291651248931885,0.21779757738113403,0.18288969993591309,0.05157822370529175,-0.07157242298126221,0.4223124035374609,-0.7486082380966215,0.22019195376915146,0.4612520453077004
1728066477933041700,1.778041748046875,-1.2079273462295532,-0.34914064407348633,-0.014655903913080692,0.877375602722168,0.42661920189857483,0.21956275403499603,0.17413794994354248,0.023560702800750732,-0.052616268396377563,0.4182023953567073,-0.7502759536452356,0.21648873589211864,0.464031504789341
1728066477943071500,1.788071533203125,-1.2443516254425049,-0.26164302229881287,0.018948394805192947,0.8780542016029358,0.4238795340061188,0.22214175760746002,0.15371453762054443,-0.0010280311107635498,0.008861184120178223,0.4139132040353056,-0.7521233773791498,0.21302888401426043,0.46648148930580646
1728066477953102600,1.7981025390625,-1.3369492292404175,-0.22397661209106445,0.029774678871035576,0.878727912902832,0.4207071363925934,0.22548401355743408,0.15397173166275024,0.0001760721206665039,0.047785788774490356,0.4092144818814705,-0.7541914452671373,0.20961219595025293,0.46883003289508457
1728066477963133700,1.8081337890625,-1.2530548572540283,-0.20304197072982788,0.020911943167448044,0.8793143033981323,0.4174800515174866,0.22916527092456818,0.1602821946144104,0.018463492393493652,0.08095455169677734,0.40440926198994653,-0.7563455238810114,0.20621368789993588,0.47103133360064475
1728066477973163500,1.81816357421875,-1.0939373970031738,-0.2853315472602844,0.03272758796811104,0.8799845576286316,0.4145332872867584,0.23192466795444489,0.17059820890426636,0.019838571548461914,0.046121105551719666,0.4001459314846776,-0.7581092834504903,0.2030582397097129,0.4732026976264854
1728066477983194600,1.828194580078125,-0.9589149355888367,-0.24894507229328156,0.022362034767866135,0.880771279335022,0.41182148456573486,0.23376239836215973,0.18223214149475098,0.013440877199172974,0.006655201315879822,0.39641347196308624,-0.7594804757964602,0.20017643103854643,0.4753683811695523
1728066477993224700,1.838224609375,-0.770013153553009,-0.19502724707126617,-0.023230750113725662,0.8812857270240784,0.4097946882247925,0.23537953197956085,0.1904609203338623,0.02102181315422058,-0.017621204257011414,0.39333595371690255,-0.7606691539679568,0.19766690670440554,0.4770712033096916
1728066478003255600,1.848255615234375,-0.7249857187271118,-0.19183455407619476,-0.08134039491415024,0.8815529942512512,0.4084579348564148,0.23669879138469696,0.158180832862854,0.026951521635055542,-0.03294801712036133,0.3908186905705519,-0.7617035582620459,0.19533839362988564,0.47844676109135653
1728066478013286700,1.85828662109375,-0.8308826088905334,-0.19729776680469513,-0.15434642136096954,0.8815426230430603,0.40763160586357117,0.23815779387950897,0.13431119918823242,0.021262377500534058,0.00830233097076416,0.38833109797866766,-0.7628605109390318,0.19267261852863593,0.4797083445823369
1728066478023316700,1.868316650390625,-0.9495635032653809,-0.13514697551727295,-0.18188324570655823,0.8812644481658936,0.40698277950286865,0.24028673768043518,0.11600404977798462,-0.013824939727783203,0.05877038836479187,0.3854645499260699,-0.7643485503532824,0.18951164591765826,0.4809091561036809
1728066478033347600,1.87834765625,-0.9736462235450745,-0.03297320753335953,-0.13984709978103638,0.8808045387268066,0.40607374906539917,0.24349015951156616,0.11589950323104858,-0.08075645565986633,0.059213876724243164,0.3822330113276943,-0.7661581403363353,0.18640488670624172,0.4818224202523107
1728066478043377700,1.888377685546875,-0.9912284016609192,0.033071428537368774,-0.06602774560451508,0.8803991079330444,0.40452778339385986,0.24749736487865448,0.13460040092468262,-0.13749897480010986,0.01176491379737854,0.3786873854824594,-0.7681294202730002,0.18364606142245635,0.4825425039843323
1728066478053408500,1.898408447265625,-0.8847642540931702,0.14678707718849182,-0.03429538756608963,0.8800104856491089,0.4025209844112396,0.25210803747177124,0.1710911989212036,-0.1198519766330719,-0.033098459243774414,0.375046549054106,-0.7701733807672451,0.18134768374383875,0.4829969721334256
1728066478063439600,1.908439697265625,-0.7437654733657837,0.2183675765991211,-0.030124075710773468,0.8794199228286743,0.40071022510528564,0.257005900144577,0.2281392216682434,-0.04751509428024292,-0.09433174133300781,0.37181581883951625,-0.7721659253012971,0.1796182943081446,0.4829597057797312
1728066478073469700,1.9184697265625,-0.5835894346237183,0.27355173230171204,-0.008152997121214867,0.8786908984184265,0.3991052806377411,0.2619493305683136,0.28460872173309326,0.04913690686225891,-0.11810454726219177,0.3690258991083227,-0.7740443903007984,0.17840948419692404,0.48254044799862694
1728066478083500500,1.92850048828125,-0.4279615581035614,0.17383116483688354,0.006807310041040182,0.8780995011329651,0.39773252606391907,0.26598915457725525,0.3421154022216797,0.13885805010795593,-0.024427145719528198,0.3668514024486364,-0.7755267943128229,0.17763097581178003,0.48210530878976465
1728066478093530600,1.938530517578125,-0.36094897985458374,0.04551233351230621,0.02101394347846508,0.8778897523880005,0.3965134918689728,0.26848912239074707,0.3640076518058777,0.16801580786705017,0.11256882548332214,0.36519362579533454,-0.7764838138042928,0.17696734878647402,0.4820673908625027
1728066478103561700,1.948561767578125,-0.36818256974220276,-0.009002679958939552,0.008910141885280609,0.8779590725898743,0.3953488767147064,0.2699754238128662,0.35171598196029663,0.13709113001823425,0.20998984575271606,0.363731251244936,-0.777138519590125,0.1761914738005439,0.4824020286661839
1728066478113592600,1.958592529296875,-0.3575701415538788,0.028233105316758156,-0.013698764145374298,0.8779128789901733,0.3943317234516144,0.27160826325416565,0.32075631618499756,0.07310590147972107,0.195692241191864,0.3622906958169413,-0.777848812303069,0.17537205878299988,0.48263977606633474
1728066478123622700,1.96862255859375,-0.5854625105857849,-0.09998052567243576,-0.031731292605400085,0.8780525326728821,0.393181711435318,0.27282240986824036,0.2864677906036377,0.01708129048347473,0.10239139199256897,0.36051916853248034,-0.778550999968791,0.17398144735885399,0.48333714958954466
1728066478133653800,1.97865380859375,-0.36816373467445374,0.036887578666210175,-0.009665672667324543,0.8780077695846558,0.39192500710487366,0.27476686239242554,0.2916697859764099,-0.026324570178985596,-0.02374449372291565,0.3586374009735619,-0.7794441390669473,0.17277230200508686,0.48373099417709736
1728066478143683600,1.98868359375,-0.3433493375778198,0.018950017169117928,-0.009391367435455322,0.877901017665863,0.3910956382751465,0.27628621459007263,0.33709537982940674,-0.10062935948371887,-0.24694344401359558,0.35731688344901597,-0.7801172560436453,0.17193073140827989,0.4839230827179417
1728066478153714700,1.998714599609375,-0.4144037961959839,-0.11559980362653732,0.10443320125341415,0.8781985640525818,0.3895350396633148,0.27754268050193787,0.335516095161438,-0.13552197813987732,-0.29339632391929626,0.35569551824067114,-0.7806897447533373,0.1711574052437566,0.48446819549672887
1728066478163745500,2.00874560546875,-0.4025193750858307,-0.2500062882900238,0.17823579907417297,0.8793072700500488,0.3870532810688019,0.2775039076805115,0.3604387640953064,-0.08373922109603882,-0.17746713757514954,0.35389617863745537,-0.7808314836745612,0.17045277940834033,0.4858039701875223
1728066478173775600,2.018775634765625,-0.4808274805545807,-0.4308389127254486,0.23011337220668793,0.8811185956001282,0.3839683532714844,0.27604028582572937,0.36615002155303955,-0.06638729572296143,-0.1667414903640747,0.35196759783900755,-0.7805536427395968,0.16957641673741491,0.4879535057299614
1728066478183806700,2.028806640625,-0.29841431975364685,-0.3717893362045288,0.21574455499649048,0.883151650428772,0.38070085644721985,0.27406197786331177,0.33010512590408325,-0.06110560894012451,-0.17350637912750244,0.3500971647756981,-0.780091074589899,0.16878656031546732,0.4903070358081214
1728066478193836800,2.0388369140625,-0.10308399051427841,-0.28521156311035156,0.1792411357164383,0.8848365545272827,0.3784072995185852,0.2717939019203186,0.30904150009155273,-0.07027143239974976,-0.23297539353370667,0.3491548191820476,-0.7794211484692917,0.1685218816145321,0.49213194500247603
1728066478203867600,2.04886767578125,-0.15603302419185638,-0.20499753952026367,0.1858803927898407,0.8862099051475525,0.37637820839881897,0.27013182640075684,0.26788848638534546,-0.05156448483467102,-0.2970482409000397,0.34841583495337963,-0.7788792842486572,0.16856146812821773,0.4934981403237832
1728066478213897700,2.058897705078125,-0.25342029333114624,-0.23653335869312286,0.18451392650604248,0.887548565864563,0.3740444481372833,0.2689761817455292,0.26386433839797974,0.034799426794052124,-0.2228182554244995,0.34726422035422605,-0.7785439944229084,0.16839636564642282,0.4948933736095766
1728066478223928600,2.068928466796875,-0.12021511048078537,-0.2870588004589081,0.17672018706798553,0.888978898525238,0.37177732586860657,0.2673911452293396,0.2699718475341797,0.05585011839866638,-0.1287192404270172,0.3462077381645035,-0.77808191463223,0.16817880891391362,0.4964318354571127
1728066478233959700,2.078959716796875,0.04566014185547829,-0.3707052171230316,0.20548072457313538,0.8906153440475464,0.3698996305465698,0.26453515887260437,0.2903997302055359,-0.016735047101974487,-0.16773316264152527,0.3458563522720779,-0.7771390801830502,0.16829268972970035,0.49811234611983124
1728066478243989800,2.08898974609375,0.09187524020671844,-0.4139363765716553,0.27290448546409607,0.8925937414169312,0.36783933639526367,0.2607114017009735,0.3031611442565918,-0.08184397220611572,-0.21221879124641418,0.3458435817253244,-0.7758058106893415,0.1687632645964107,0.5000364578097928
1728066478254020600,2.0990205078125,0.1293613612651825,-0.4309483766555786,0.3216573894023895,0.8948718309402466,0.3652767241001129,0.256470263004303,0.3122049570083618,-0.07424595952033997,-0.21565288305282593,0.3458261737999766,-0.7742732043093254,0.16951737106772746,0.5021643031749111
1728066478264050700,2.10905078125,0.07318630814552307,-0.4658879339694977,0.31954309344291687,0.8972898721694946,0.3624670207500458,0.2519693970680237,0.2991364598274231,-0.03373175859451294,-0.21778953075408936,0.34576545681015547,-0.7726409804733815,0.17032500521783453,0.5044418228898359
1728066478274081800,2.119081787109375,-0.05739034339785576,-0.5313204526901245,0.2596414089202881,0.8996729254722595,0.3596733510494232,0.24743437767028809,0.2651830315589905,-0.019280344247817993,-0.23049700260162354,0.3454239122884546,-0.7710948990398986,0.17067467218405982,0.5069173003570877
1728066478284112600,2.129112548828125,-0.24209634959697723,-0.6322219967842102,0.2152119129896164,0.9020605683326721,0.35700008273124695,0.24256518483161926,0.23603159189224243,-0.03702336549758911,-0.20983490347862244,0.3447200796140026,-0.7696057327709842,0.1702633396655769,0.5097897228860481
1728066478294142700,2.139142822265625,-0.4195246398448944,-0.6600187420845032,0.25760409235954285,0.9045820832252502,0.3538286089897156,0.237774059176445,0.22299659252166748,-0.07376888394355774,-0.14989854395389557,0.343314752496856,-0.7682693253997467,0.16926095639731262,0.5130769068930556
1728066478304173800,2.149173828125,-0.40179041028022766,-0.5897212624549866,0.3256966173648834,0.9072482585906982,0.34987738728523254,0.23342320322990417,0.24033468961715698,-0.10561484098434448,-0.11284805834293365,0.34137575997763736,-0.7670656353599181,0.1682911563857647,0.5164793966516303
1728066478314203600,2.15920361328125,-0.19943809509277344,-0.49990350008010864,0.3486173748970032,0.9098647832870483,0.34570762515068054,0.2294175624847412,0.25575417280197144,-0.1203659176826477,-0.14253386855125427,0.3396800605327811,-0.7658228119188801,0.1680006057564964,0.5195274076590153
1728066478324234800,2.16923486328125,-0.012229656800627708,-0.47463181614875793,0.3331334888935089,0.9123885035514832,0.34185102581977844,0.22513306140899658,0.2391158938407898,-0.092308908700943,-0.15564443171024323,0.33866728061641715,-0.764340891850754,0.16837318341159485,0.5222431195016279
1728066478334265600,2.179265625,0.17164909839630127,-0.46938833594322205,0.2902725636959076,0.9148703217506409,0.3384067714214325,0.22021159529685974,0.21588218212127686,-0.011502593755722046,-0.09962117671966553,0.33833000866283885,-0.7625498656685467,0.16918480226534469,0.5248114034230653
1728066478344295700,2.189295654296875,0.4250046908855438,-0.4677271842956543,0.2387571930885315,0.9171761870384216,0.33581307530403137,0.2145167887210846,0.2027578353881836,0.057588934898376465,-0.061211585998535156,0.3389697488501229,-0.7603980059720231,0.1704501809314643,0.5271063792911864
1728066478354326800,2.199326904296875,0.3978670537471771,-0.48616957664489746,0.21049119532108307,0.9192606210708618,0.3340015411376953,0.20833322405815125,0.17592358589172363,0.06321513652801514,-0.041371479630470276,0.3402739748415689,-0.7580460863927138,0.17185092650014683,0.5291946314073523
1728066478364356900,2.20935693359375,0.1262284219264984,-0.5241410732269287,0.127410426735878,0.921002209186554,0.3326820433139801,0.20267556607723236,0.136996328830719,0.035634517669677734,0.008002609014511108,0.34119136567952474,-0.7560430740031511,0.17244319712202838,0.5312726141301238
1728066478374387700,2.2193876953125,-0.2049705535173416,-0.5492304563522339,0.04171628877520561,0.922457218170166,0.3316502571105957,0.1976887434720993,0.10635137557983398,-0.020752519369125366,0.07458925247192383,0.3412429995789122,-0.7545439425390693,0.17177837915501737,0.5335811570286207
1728066478384418800,2.229418701171875,-0.4588632881641388,-0.465806782245636,-0.025792444124817848,0.9235414862632751,0.3307900130748749,0.19403406977653503,0.08149397373199463,-0.13450098037719727,0.06222215294837952,0.3403446722672805,-0.7537213207121792,0.17006236585886253,0.5358624275872721
1728066478394448600,2.23944873046875,-0.6763849258422852,-0.4039897322654724,-0.08381393551826477,0.9242504835128784,0.33008816838264465,0.19184090197086334,0.07573431730270386,-0.22741186618804932,-0.00212821364402771,0.33868542882247427,-0.7535406244410944,0.16762154133954846,0.5379328832617589
1728066478404479700,2.249479736328125,-0.7941976189613342,-0.38540422916412354,-0.11482325196266174,0.9247152209281921,0.32947003841400146,0.19066013395786285,0.06208598613739014,-0.22506949305534363,-0.02501055598258972,0.33642414996376435,-0.7538150893858472,0.16459913522462183,0.5398969857825161
1728066478414509800,2.259509765625,-0.6306195855140686,-0.5451529026031494,-0.10984234511852264,0.9252756237983704,0.32899051904678345,0.18876001238822937,0.057985544204711914,-0.14164316654205322,-0.01470288634300232,0.3342990046690766,-0.7538657791039161,0.16145090691824993,0.5420924461580181
1728066478424540700,2.269540771484375,-0.32373306155204773,-0.5891724228858948,-0.060979995876550674,0.9261242151260376,0.32879143953323364,0.1849052459001541,0.06594109535217285,-0.041315943002700806,-0.026625648140907288,0.33317385670263794,-0.7531300827831793,0.15889524407122302,0.5445571501085237
1728066478434570500,2.279570556640625,-0.0427783764898777,-0.6165941953659058,-0.03212837129831314,0.9271356463432312,0.3287465572357178,0.17984755337238312,0.09019827842712402,0.051014095544815063,-0.11000800132751465,0.3330655700772979,-0.7517893860406387,0.1572784127500545,0.5469401518125977
1728066478444601900,2.289601806640625,-0.016899175941944122,-0.6536339521408081,-0.05699137970805168,0.9281795024871826,0.32902097702026367,0.1738625019788742,0.08274590969085693,0.07741203904151917,-0.11131654679775238,0.33364312093346804,-0.750046916659417,0.1560797041826475,0.5493187375131469
1728066478454632700,2.2996328125,-0.32686182856559753,-0.670592725276947,-0.14006735384464264,0.9290329217910767,0.3295659124851227,0.16817842423915863,0.043562233448028564,0.02983948588371277,-0.05956627428531647,0.33381048459925045,-0.7485395814741364,0.1542002108568039,0.5517982230861379
1728066478464662500,2.30966259765625,-0.7452856302261353,-0.6763627529144287,-0.25149375200271606,0.9295499324798584,0.3304140567779541,0.16359533369541168,0.003662288188934326,-0.019089102745056152,0.015710830688476562,0.3328356293864537,-0.7476873965066324,0.15086823769020655,0.554457170864882
1728066478474694000,2.31969384765625,-0.9920541644096375,-0.5976032614707947,-0.3235469162464142,0.9296595454216003,0.33161690831184387,0.1605094075202942,-0.05479693412780762,-0.07435384392738342,0.13363443315029144,0.3307778878303741,-0.747573114163044,0.14625027832905332,0.5570738112897419
1728066478484723500,2.329723388671875,-0.9676596522331238,-0.5367019772529602,-0.3208483159542084,0.9295161962509155,0.33298057317733765,0.15850315988063812,-0.09663057327270508,-0.1114078164100647,0.16856907308101654,0.3283561413611372,-0.7478454524295157,0.14134623083070497,0.5594019547835195
1728066478494754600,2.339754638671875,-0.8397496342658997,-0.47603997588157654,-0.26254454255104065,0.9293771982192993,0.3341691493988037,0.15680892765522003,-0.11208593845367432,-0.09929066896438599,0.125951886177063,0.3261085622834984,-0.7481020571457446,0.1369225185909941,0.5614701826359393
1728066478504785700,2.34978564453125,-0.7861734628677368,-0.484546035528183,-0.27362754940986633,0.9292903542518616,0.3352569043636322,0.1549910306930542,-0.10758936405181885,-0.03507089614868164,0.06621575355529785,0.32413298532503315,-0.748215445658609,0.13292539352148053,0.5634201648045885
1728066478514815500,2.3598154296875,-0.812393069267273,-0.4857410192489624,-0.3739352524280548,0.9290255904197693,0.3368738293647766,0.1530606597661972,-0.11304658651351929,0.041971296072006226,0.05571019649505615,0.32232555755415376,-0.7483073016795149,0.12871095396697435,0.565310469001091
1728066478524846600,2.3698466796875,-0.8071473240852356,-0.4572427272796631,-0.4823181927204132,0.9283502697944641,0.33949312567710876,0.15136119723320007,-0.1262262463569641,0.06051596999168396,0.05876767635345459,0.32075620641695524,-0.7485219806219093,0.12407836985665885,0.5669522576139615
1728066478534876700,2.379876708984375,-0.9050304889678955,-0.41117697954177856,-0.5150521397590637,0.9273703694343567,0.3427199721336365,0.1500905454158783,-0.12047034502029419,0.020179688930511475,0.03144335746765137,0.3192190262845734,-0.7489032831345349,0.11911818359292518,0.5683783140616457
1728066478544907500,2.389907470703125,-1.0428410768508911,-0.3240981996059418,-0.49550002813339233,0.9262815713882446,0.3457188904285431,0.14993628859519958,-0.1029326319694519,-0.031418442726135254,0.05248689651489258,0.31716718469194943,-0.7496552379613586,0.11395247424202595,0.5695935826650131
1728066478554938600,2.399938720703125,-1.2089003324508667,-0.32196128368377686,-0.5027310252189636,0.925158679485321,0.34838569164276123,0.15069429576396942,-0.07239079475402832,-0.06420612335205078,0.10679793357849121,0.31448463401103455,-0.7507233359617204,0.10845101299146002,0.5707471044277397
1728066478564968700,2.40996875,-1.4237509965896606,-0.3802371621131897,-0.45889249444007874,0.9240885972976685,0.35065144300460815,0.15199869871139526,-0.06755185127258301,-0.04932105541229248,0.17328821122646332,0.3110037590959775,-0.752013035432467,0.10235108355738144,0.5720814781735629
1728066478574999600,2.41999951171875,-1.2482750415802002,-0.3620418906211853,-0.414341002702713,0.9231996536254883,0.35241979360580444,0.15330643951892853,-0.06502997875213623,0.016079872846603394,0.19045902788639069,0.30720593450560985,-0.7532547776259972,0.09623127866586706,0.5735602722489502
1728066478585029600,2.430029541015625,-0.6643245220184326,-0.3886600136756897,-0.394546777009964,0.9224437475204468,0.35446789860725403,0.15313370525836945,-0.04610103368759155,0.034676820039749146,0.07651112973690033,0.3048512514792851,-0.7537954772983265,0.09142882460912893,0.5748902542139114
1728066478595060500,2.440060546875,-0.2401825189590454,-0.2980182468891144,-0.38570427894592285,0.9216471314430237,0.3572704792022705,0.15140843391418457,-0.043045997619628906,-0.01774725317955017,-0.11295616626739502,0.3044663666273758,-0.7536034507803872,0.08823864120003941,0.5758437707852911
1728066478605091600,2.450091552734375,-0.14145901799201965,-0.17426764965057373,-0.34253790974617004,0.9207468628883362,0.36026397347450256,0.14978323876857758,-0.06817734241485596,0.018550634384155273,-0.16916179656982422,0.3049219819666971,-0.7533211284016631,0.08601683215147937,0.5763080249976817
1728066478615121700,2.46012158203125,0.0005141021683812141,-0.021574772894382477,-0.28461629152297974,0.9198077321052551,0.3629300892353058,0.14911602437496185,-0.10781121253967285,0.13972485065460205,-0.0568307489156723,0.305531186280345,-0.7532736435347914,0.08447973997470867,0.576274874997534
1728066478625152500,2.470152587890625,0.27974069118499756,0.06966304779052734,-0.2767607569694519,0.9187880158424377,0.36561399698257446,0.14884693920612335,-0.12110406160354614,0.19140809774398804,0.031893640756607056,0.30681562971719034,-0.7532492065673698,0.08389937378166552,0.5757090306553541
1728066478635182600,2.4801826171875,0.5421949028968811,0.07406818866729736,-0.2825462222099304,0.9176710247993469,0.3687630891799927,0.1479652374982834,-0.11621838808059692,0.13460898399353027,0.008574843406677246,0.30913566811674015,-0.7529281985600911,0.08415310847262109,0.574850012247443
1728066478645213700,2.490213623046875,0.8249896168708801,0.04747076705098152,-0.2462736815214157,0.9165871143341064,0.3722135126590729,0.14603093266487122,-0.11012965440750122,0.04004833102226257,0.03841745853424072,0.3124503820876776,-0.7521655428964772,0.08522008019326435,0.5738982788496907
1728066478655244500,2.50024462890625,0.9074810147285461,-0.04306019842624664,-0.2386104315519333,0.9157041311264038,0.37566930055618286,0.14268392324447632,-0.10068631172180176,-0.04079997539520264,0.1256420761346817,0.3164762353439749,-0.7508620425972808,0.0868801327643807,0.5731499747395377
1728066478665274600,2.510274658203125,0.5335732102394104,-0.10473842173814774,-0.28111955523490906,0.9148373007774353,0.37909209728240967,0.13914653658866882,-0.08398103713989258,-0.06500530242919922,0.18191371858119965,0.32006873060599667,-0.749559456139551,0.08794254971345804,0.572697723223449
1728066478675305700,2.5203056640625,0.06840686500072479,-0.06655135750770569,-0.2953312397003174,0.9138518571853638,0.3821524381637573,0.13723869621753693,-0.0813475251197815,-0.0025443434715270996,0.23445023596286774,0.32200635970631497,-0.7489728753921454,0.08751558224043712,0.5724444498769866
1728066478685335600,2.53033544921875,0.027652379125356674,-0.004634243901818991,-0.23676326870918274,0.9128756523132324,0.3846254050731659,0.13682670891284943,-0.07614457607269287,0.07959264516830444,0.2831716537475586,0.3228718691996098,-0.7489507930434764,0.08652204154775639,0.5721367865356458
1728066478695366700,2.54036669921875,0.1845405250787735,0.02634497731924057,-0.16859327256679535,0.9120738506317139,0.38661232590675354,0.13657298684120178,-0.05167651176452637,0.1032404899597168,0.14701175689697266,0.3238533619146998,-0.7489129136677564,0.08611586237096597,0.5716926759284747
1728066478705396700,2.550396728515625,0.3308655321598053,0.06846456974744797,-0.15835554897785187,0.9114217162132263,0.3883645534515381,0.1359543651342392,-0.03530770540237427,0.08412382006645203,-0.014646872878074646,0.32523001393133927,-0.74868145372163,0.08633227632748881,0.5711815123115936
1728066478715427600,2.560427490234375,0.3142530024051666,0.07765647768974304,-0.22011370956897736,0.9105947017669678,0.39052003622055054,0.13532038033008575,-0.043132483959198,0.03797721862792969,-0.04396580159664154,0.32700012133893785,-0.7484238043361824,0.08672947929529008,0.570447936377875
1728066478725458700,2.570458740234375,0.09251080453395844,0.07588952034711838,-0.26238980889320374,0.9095266461372375,0.39303645491600037,0.13521665334701538,-0.06365567445755005,-0.016678541898727417,-0.004952192306518555,0.3284648433055984,-0.748409015189067,0.08655791570898287,0.5696511811037799
1728066478735488800,2.58048876953125,-0.1906553953886032,0.015280768275260925,-0.2594781816005707,0.9084410667419434,0.39532673358917236,0.13583675026893616,-0.07351064682006836,-0.040147989988327026,0.10581684112548828,0.32899355901180044,-0.7487356732465066,0.08551764991971908,0.5690736940442606
1728066478745519600,2.59051953125,-0.3060745298862457,0.04885193705558777,-0.3121317923069,0.9072991609573364,0.39750802516937256,0.13709604740142822,-0.07065987586975098,-0.039140284061431885,0.18330810964107513,0.3287923784595416,-0.7493547517447366,0.08375845685081496,0.5686364604425792
1728066478755549700,2.6005498046875,-0.2603453993797302,0.10520202666521072,-0.4284229874610901,0.9057155847549438,0.4004563093185425,0.13897396624088287,-0.0718991756439209,-0.026143133640289307,0.15675674378871918,0.3287248706293511,-0.7502097268917559,0.0816844251732816,0.5678493306035323
1728066478765580500,2.61058056640625,-0.1639287769794464,0.12067185342311859,-0.4893406629562378,0.9036734104156494,0.4043726325035095,0.14091543853282928,-0.10330414772033691,0.028320729732513428,0.10499536991119385,0.3291907566438637,-0.7510888620778368,0.07951881559988744,0.5667236639188673
1728066478775611600,2.620611572265625,-0.057430826127529144,0.10430033504962921,-0.49034547805786133,0.9015246033668518,0.4086500406265259,0.14233152568340302,-0.11957287788391113,0.10692903399467468,0.08461257815361023,0.33013101035261694,-0.7517661563947369,0.07754617998184567,0.5655507354621416
1728066478785641700,2.630641845703125,-0.018298201262950897,0.15198034048080444,-0.522503137588501,0.8992829322814941,0.41312354803085327,0.14359329640865326,-0.09915781021118164,0.15235179662704468,0.0410534143447876,0.3313808431768803,-0.7523659499759747,0.07577683277321594,0.5642606241485366
1728066478795672600,2.640672607421875,-0.1058107390999794,0.25352349877357483,-0.6220396161079407,0.8966166377067566,0.4181758463382721,0.14562898874282837,-0.10164886713027954,0.13568761944770813,-0.005766734480857849,0.3327266201247444,-0.7532355306568773,0.07382906392568643,0.5625642956694415
1728066478805702700,2.65070263671875,-0.3671515882015228,0.3292118012905121,-0.7178340554237366,0.8933475017547607,0.42386454343795776,0.14922748506069183,-0.1315373182296753,0.0681091845035553,-0.0013085752725601196,0.3336415832059293,-0.7546881124753774,0.07113082778219616,0.5604189821584422
1728066478815733800,2.660733642578125,-0.6262313723564148,0.3845405578613281,-0.7433987855911255,0.8896509408950806,0.4296775758266449,0.15459196269512177,-0.14064258337020874,-0.00014269351959228516,0.06476858258247375,0.333671719648954,-0.7567930706577682,0.06752948018238855,0.5580029995633075
1728066478825764600,2.6707646484375,-0.6646766066551208,0.41995230317115784,-0.6865682601928711,0.8859005570411682,0.43500837683677673,0.1610843986272812,-0.11943620443344116,-0.039302289485931396,0.11513032019138336,0.33302583285685294,-0.7592704822651244,0.06364379629939453,0.555474296829567
1728066478835794700,2.680794677734375,-0.5092115998268127,0.447205513715744,-0.6540606617927551,0.8822643160820007,0.43992966413497925,0.16754597425460815,-0.09524643421173096,-0.0499914288520813,0.09917783737182617,0.3324771481871851,-0.7616763436716121,0.060184150995699154,0.5528887611474479
1728066478845825800,2.69082568359375,-0.3567221164703369,0.5176098942756653,-0.682020366191864,0.878490686416626,0.44506582617759705,0.17369616031646729,-0.09124404191970825,-0.028913021087646484,0.04819725453853607,0.33252614527129765,-0.7639181119056332,0.05724684618661435,0.5500710952519707
1728066478855855600,2.700855712890625,-0.260064035654068,0.592265248298645,-0.7128403186798096,0.8743681311607361,0.4506477117538452,0.17999084293842316,-0.10642397403717041,0.03281155228614807,0.009111493825912476,0.33310584493364687,-0.7661643886955569,0.054658466154940945,0.5468500288201964
1728066478865886700,2.71088671875,-0.1303771287202835,0.6483160257339478,-0.7339307069778442,0.8699272871017456,0.45662420988082886,0.18633534014225006,-0.1251000165939331,0.1077372133731842,0.017964720726013184,0.3341527445689737,-0.7683917726023006,0.052361765446899786,0.5432994289058791
1728066478875916800,2.720916748046875,-0.042453404515981674,0.7071782350540161,-0.7245590686798096,0.8652772307395935,0.46282100677490234,0.1925927996635437,-0.1318787932395935,0.14588245749473572,0.020450472831726074,0.33565176888989245,-0.7705513709304498,0.05046766176484989,0.5394825911784858
1728066478885947600,2.73094775390625,-0.02744070068001747,0.7549276351928711,-0.7088807225227356,0.8604750633239746,0.4689639210700989,0.199136421084404,-0.12689363956451416,0.13059955835342407,-0.0014891773462295532,0.33726550450870896,-0.7727762566658767,0.04883718006620762,0.5354285203415077
1728066478895978800,2.740978759765625,-0.0012572993291541934,0.7463804483413696,-0.6975260972976685,0.8556455373764038,0.4749523103237152,0.2056470662355423,-0.11115407943725586,0.06829091906547546,0.024791210889816284,0.33889367670180376,-0.7749721879211645,0.04734593852610312,0.5313449101081948
1728066478906008800,2.7510087890625,-0.08307313174009323,0.7954506874084473,-0.754947304725647,0.8505492806434631,0.48109564185142517,0.212397500872612,-0.07811892032623291,-0.02826070785522461,0.028905153274536133,0.34052984663958574,-0.777241147126678,0.04577065791701513,0.5271058762049935
1728066478916039700,2.761039794921875,-0.31863638758659363,0.7702393531799316,-0.7557228207588196,0.8451337218284607,0.48714107275009155,0.2200957089662552,-0.04925072193145752,-0.09933918714523315,0.036084115505218506,0.3415729538475281,-0.779836854453547,0.043615727495687796,0.5227618056395398
1728066478926069800,2.77106982421875,-0.3230817914009094,0.6795095801353455,-0.6830472946166992,0.8399509191513062,0.4924720823764801,0.2279336005449295,-0.04957622289657593,-0.08806851506233215,0.16415643692016602,0.3419545289504815,-0.782480066287959,0.04113082233159553,0.5187488081710919
1728066478936100600,2.7811005859375,-0.08388999104499817,0.6047274470329285,-0.6228148341178894,0.8352416157722473,0.49745193123817444,0.23433491587638855,-0.029699742794036865,-0.045517295598983765,0.21430417895317078,0.3426901392566689,-0.7846250523762842,0.039127776189332025,0.5151659360714343
1728066478946131700,2.791131591796875,0.18686361610889435,0.6340358257293701,-0.6023620367050171,0.8307249546051025,0.5026713013648987,0.2392016351222992,-0.02878415584564209,0.003401517868041992,0.08796223998069763,0.3443515654582545,-0.786233176503018,0.037923696401579436,0.5116845841472024
1728066478956161800,2.801161865234375,0.3542296886444092,0.680449903011322,-0.638153076171875,0.8259853720664978,0.5085086822509766,0.2432423233985901,-0.06383955478668213,0.05673772096633911,-0.005723863840103149,0.34693021868166507,-0.7875446922625826,0.037343286904298445,0.5079548894359073
1728066478966192600,2.811192626953125,0.42210841178894043,0.7292249798774719,-0.6598111987113953,0.8209092617034912,0.5148369073867798,0.2470848113298416,-0.09776467084884644,0.09484320878982544,-0.04116734862327576,0.34996919340021015,-0.7887811814095048,0.03696827905098339,0.5039634317960499
1728066478976222700,2.82122265625,0.5782088041305542,0.7387005090713501,-0.6571648120880127,0.8156378865242004,0.5215017199516296,0.25054073333740234,-0.10611951351165771,0.07917565107345581,-0.05750167369842529,0.35347309306913716,-0.7898782245130898,0.036915452481281655,0.4997863077504907
1728066478986253800,2.83125390625,0.6255776286125183,0.7356215119361877,-0.6324176788330078,0.8103693127632141,0.5283217430114746,0.2533324658870697,-0.07732194662094116,-0.0034958720207214355,-0.09714347124099731,0.3573721058617911,-0.7907485388974675,0.037188528947597686,0.4955994302257969
1728066478996283600,2.84128369140625,0.5613272786140442,0.684349536895752,-0.5555412769317627,0.8053358197212219,0.5346989035606384,0.25599023699760437,-0.038047730922698975,-0.09233152866363525,-0.1187678873538971,0.3610849675534358,-0.7915696796145771,0.03758399478343052,0.4915510415993699
1728066479006314800,2.851314697265625,0.4612250030040741,0.6056499481201172,-0.4561166763305664,0.8009437322616577,0.5400846600532532,0.258452445268631,-0.0039160847663879395,-0.15168756246566772,-0.057188838720321655,0.36421996055770844,-0.7923274677635985,0.03799213460658272,0.4879729685129035
1728066479016345900,2.861345947265625,0.35324791073799133,0.4869547188282013,-0.4003695249557495,0.7971920371055603,0.5445654988288879,0.26063957810401917,0.037539899349212646,-0.17940759658813477,0.0005757510662078857,0.36678255640921137,-0.7930020567848339,0.038308251224663796,0.4849233460805591
1728066479026375700,2.871375732421875,0.1428908258676529,0.3539142608642578,-0.39215126633644104,0.7939171195030212,0.5483959913253784,0.26259729266166687,0.045499324798583984,-0.16439342498779297,0.03871810436248779,0.3686674983954618,-0.7936285662721401,0.03810959160074547,0.48247859235695967
1728066479036408000,2.881407958984375,0.03426847234368324,0.25246062874794006,-0.3686840236186981,0.791011393070221,0.551619827747345,0.26460617780685425,0.016102194786071777,-0.09854072332382202,0.08727693557739258,0.36982404476238806,-0.7942979856959974,0.037333543990570324,0.480548691187906
1728066479046438000,2.89143798828125,0.08120881766080856,0.17351189255714417,-0.35248827934265137,0.7884402275085449,0.5546281337738037,0.26598814129829407,-0.014102458953857422,-0.01716792583465576,0.09755265712738037,0.3708705772833394,-0.79477533873786,0.03641748170872898,0.4790208300981637
1728066479056469000,2.901468994140625,0.22787682712078094,0.17324264347553253,-0.3534819185733795,0.7860354781150818,0.55778968334198,0.26649394631385803,-0.042856037616729736,0.018275320529937744,0.027909308671951294,0.3722725354089056,-0.7949672612856897,0.0356935527321911,0.47766747309812807
1728066479066499800,2.911499755859375,0.35844334959983826,0.20270909368991852,-0.41848355531692505,0.7833890914916992,0.5616088509559631,0.2662639915943146,-0.07168889045715332,-0.012063801288604736,-0.030805528163909912,0.3743599633470806,-0.7949151439228679,0.0352406429242966,0.4761538054000551
1728066479076530000,2.921530029296875,0.2314867228269577,0.21172255277633667,-0.49023017287254333,0.780221164226532,0.5660415291786194,0.26618051528930664,-0.10404312610626221,-0.06788784265518188,-0.025518745183944702,0.376659107164471,-0.7949189521355216,0.034555967507709444,0.47438140834540826
1728066479086561000,2.93156103515625,0.1300429254770279,0.16127870976924896,-0.5090799927711487,0.7768692970275879,0.5703784823417664,0.2667253911495209,-0.11926132440567017,-0.08795672655105591,0.04553055763244629,0.3784474836821269,-0.7951446521692502,0.03328182113158343,0.4726677398922206
1728066479096590800,2.9415908203125,0.19208046793937683,0.08250907063484192,-0.5118430256843567,0.7735678553581238,0.5748493075370789,0.2667231559753418,-0.09853416681289673,-0.10732007026672363,0.10189881920814514,0.38034542704398216,-0.7952008534273672,0.03189337487116987,0.4711431542927012
1728066479106622000,2.9516220703125,-0.001149574643932283,0.022358383983373642,-0.433660089969635,0.770698070526123,0.5788083672523499,0.26646897196769714,-0.07892543077468872,-0.14819008111953735,0.0649520754814148,0.3818586087611805,-0.7951831906524702,0.03030159427647635,0.4700528239113221
1728066479116653000,2.961653076171875,0.11719384789466858,0.11108772456645966,-0.34250834584236145,0.7682908773422241,0.581821858882904,0.26685675978660583,-0.07297825813293457,-0.12605714797973633,0.053272753953933716,0.3828451578155083,-0.7953548186981275,0.02896712431329038,0.4690428750581236
1728066479126683000,2.971682861328125,0.4671168923377991,0.15069499611854553,-0.3397865891456604,0.7659509778022766,0.5852134823799133,0.26616594195365906,-0.06169682741165161,-0.07694333791732788,0.018044471740722656,0.3848056123442192,-0.7951514868098101,0.028584560973053296,0.46780518800116794
1728066479136714000,2.9817138671875,0.5489377379417419,0.11185172945261002,-0.31245216727256775,0.7636175751686096,0.5891669392585754,0.2641410231590271,-0.07823854684829712,-0.07703632116317749,-0.07070529460906982,0.38765483835072184,-0.794508715692796,0.028747503561183566,0.4665331671121688
1728066479146743800,2.991743896484375,0.6240128874778748,0.08253341168165207,-0.211528480052948,0.7618134617805481,0.5926916003227234,0.2614516019821167,-0.0830262303352356,-0.03173285722732544,-0.05390143394470215,0.390549394533076,-0.7936441325404207,0.029236729169200594,0.4655592319286133
1728066479156774700,3.001774658203125,0.8872019052505493,0.14015516638755798,-0.17680992186069489,0.7604145407676697,0.5960690975189209,0.2578204274177551,-0.06519359350204468,0.026153743267059326,0.0062787532806396484,0.39392743822835946,-0.7924549314674939,0.030420364688037337,0.46466220366097705
1728066479166806000,3.011805908203125,1.1085087060928345,0.19895179569721222,-0.215937077999115,0.7587989568710327,0.6001441478729248,0.2530832886695862,-0.06261670589447021,0.00166243314743042,-0.025132060050964355,0.39837484175685206,-0.7908821505164627,0.032358489986226445,0.4634175610701611
1728066479176835800,3.0218359375,0.9223193526268005,0.14499561488628387,-0.24265789985656738,0.7569549083709717,0.604514479637146,0.2481568455696106,-0.07465803623199463,-0.05152076482772827,-0.028262227773666382,0.402997783377235,-0.7892453449580694,0.03420835924022209,0.46207627458064576
1728066479186866700,3.03186669921875,0.6109033226966858,0.08867540955543518,-0.2188926488161087,0.7552513480186462,0.6081585884094238,0.24441464245319366,-0.06840741634368896,-0.0752606987953186,0.08596876263618469,0.40652164249206946,-0.7880118254141248,0.035280082479680674,0.4610128307097968
1728066479196896800,3.041896728515625,0.5019571185112,0.0788360983133316,-0.19684433937072754,0.7538026571273804,0.6110348701477051,0.24169744551181793,-0.03682279586791992,-0.0980803370475769,0.15905949473381042,0.40912289561717613,-0.7871221094317593,0.03588181547429039,0.4601843056910744
1728066479206928000,3.051927978515625,0.4224589467048645,0.08124225586652756,-0.2043113112449646,0.7523636221885681,0.6136946678161621,0.23943233489990234,-0.010267674922943115,-0.15625154972076416,0.09827528893947601,0.41142757821613757,-0.7863814566292642,0.03633688448684284,0.45935951047802875
1728066479216957700,3.061957763671875,0.20703531801700592,0.030985215678811073,-0.18181586265563965,0.7510654330253601,0.6159210205078125,0.23778562247753143,-0.009412050247192383,-0.18229681253433228,0.0653456449508667,0.4131557198134884,-0.7858526139253617,0.03644829634988522,0.4587042104631406
1728066479226988800,3.07198876953125,-0.017553182318806648,0.006440670695155859,-0.19400328397750854,0.7498499155044556,0.6175584197044373,0.23737412691116333,-0.010836303234100342,-0.13358032703399658,0.1190408319234848,0.4139377495359101,-0.7857449379492443,0.035943790343799194,0.45822307262618683
1728066479237020000,3.08202001953125,-0.1365501433610916,-0.023457307368516922,-0.23130272328853607,0.7485519051551819,0.618961751461029,0.23781554400920868,-0.01590120792388916,-0.07552015781402588,0.16541336476802826,0.41411002958666615,-0.7859320938748205,0.034907292874188256,0.45782642507484117
1728066479247049700,3.0920498046875,-0.23643459379673004,-0.06894021481275558,-0.2636502981185913,0.7471106648445129,0.6203789114952087,0.23865358531475067,-0.032450079917907715,-0.04541260004043579,0.14997267723083496,0.41394246072975516,-0.7862643260832107,0.03339467565054597,0.45752027509327514
1728066479257080800,3.102080810546875,-0.18899810314178467,-0.11225253343582153,-0.28931543231010437,0.7455984950065613,0.6219127774238586,0.2393893301486969,-0.039360761642456055,-0.014277398586273193,0.12042830884456635,0.4137057211333513,-0.7865722565406019,0.03160295888909688,0.45733232804243046
1728066479267111000,3.11211083984375,0.05167209357023239,-0.12109966576099396,-0.3051244914531708,0.7440445423126221,0.6239218711853027,0.23899589478969574,-0.036998093128204346,0.02799445390701294,0.09051774442195892,0.4140783305421354,-0.7865100190255354,0.02999894946869532,0.45721013498200275
1728066479277141800,3.122141845703125,0.34536975622177124,-0.12264136970043182,-0.31614625453948975,0.7423840761184692,0.6267240047454834,0.2368176430463791,-0.035139262676239014,0.051651060581207275,0.034468501806259155,0.41560820366381857,-0.7858554325259853,0.028983807417374483,0.4570129667602139
1728066479287172900,3.1321728515625,0.5667149424552917,-0.11684297025203705,-0.30051296949386597,0.7407016158103943,0.6301183104515076,0.23304933309555054,-0.03792756795883179,0.06700986623764038,-0.011811971664428711,0.41814331154756795,-0.7846712047180514,0.028561628495380745,0.4567619535273079
1728066479297203000,3.142202880859375,0.7728308439254761,-0.11564268171787262,-0.2687710225582123,0.7391642332077026,0.6337770819664001,0.22795385122299194,-0.04003703594207764,0.09009981155395508,-0.013201475143432617,0.4214409248501287,-0.7830398633870266,0.02873149061744401,0.45652015832448156
1728066479307233800,3.15223388671875,0.8850628733634949,-0.13450798392295837,-0.24276842176914215,0.7378132343292236,0.6375703811645508,0.22166602313518524,-0.03195691108703613,0.08473491668701172,-0.007768124341964722,0.4253477251534121,-0.7810051311631933,0.029393780936349617,0.456340220445934
1728066479317264000,3.162263916015625,0.8068426251411438,-0.15978218615055084,-0.24057024717330933,0.7365965247154236,0.6412080526351929,0.21512240171432495,-0.027017056941986084,0.04459810256958008,-0.0005532503128051758,0.42925409929942415,-0.7788807251158018,0.030100142817403534,0.456267099525993
1728066479327294700,3.172294677734375,0.6402195692062378,-0.2215505689382553,-0.25251588225364685,0.7354100942611694,0.6445683240890503,0.20905381441116333,-0.02662414312362671,-0.004996299743652344,0.05091032385826111,0.43268692104004736,-0.7769183064651987,0.03041139168112949,0.45634971738274493
1728066479337324800,3.18232470703125,0.4190610945224762,-0.3234761357307434,-0.2665744423866272,0.7342766523361206,0.6475918292999268,0.2036229968070984,-0.02895444631576538,-0.058495938777923584,0.11136433482170105,0.43539512616061865,-0.7751837266131394,0.03002813170332557,0.45674879382948524
1728066479347356000,3.19235595703125,0.1725497841835022,-0.41179972887039185,-0.2612595558166504,0.7332916259765625,0.6501309871673584,0.1990291178226471,-0.03393566608428955,-0.0948333740234375,0.14462944865226746,0.4371809449876115,-0.7737455234292612,0.028851736255115425,0.45755663543084235
1728066479357386800,3.20238671875,0.027792595326900482,-0.44869092106819153,-0.23109260201454163,0.7325431704521179,0.6521183848381042,0.19524896144866943,-0.03797835111618042,-0.1047094464302063,0.16243243217468262,0.438154886241526,-0.7725849113777302,0.027148333154131562,0.4586892551706132
1728066479367416800,3.212416748046875,-0.0011949148029088974,-0.4088061451911926,-0.2261551022529602,0.7318840026855469,0.6538127064704895,0.19202779233455658,-0.041484832763671875,-0.10751760005950928,0.13672292232513428,0.4387674074076668,-0.7716037119286386,0.02533000737367396,0.459857833005015
1728066479377448000,3.222447998046875,-0.011121314950287342,-0.3466234803199768,-0.2280334234237671,0.731093168258667,0.6554906368255615,0.18930022418498993,-0.05126839876174927,-0.10837167501449585,0.07466170191764832,0.4393152780834224,-0.7707748761809299,0.023583910310335562,0.4608165418441675
1728066479387477800,3.232477783203125,-0.006778831593692303,-0.2925174832344055,-0.21105018258094788,0.7302319407463074,0.6570859551429749,0.18708127737045288,-0.06153076887130737,-0.0855986475944519,0.04627154767513275,0.43981676260084174,-0.7701013012799894,0.02201425095172249,0.46154152025343087
1728066479397508900,3.2425087890625,0.02408294379711151,-0.3315706253051758,-0.1768040508031845,0.7295109629631042,0.6585342884063721,0.18478788435459137,-0.05307352542877197,-0.04003453254699707,0.05869676172733307,0.44033485808333817,-0.7693955150041576,0.020602956794747385,0.46228926114720725
1728066479407540000,3.2525400390625,0.07270214706659317,-0.4067057967185974,-0.13134630024433136,0.7291709184646606,0.6597476601600647,0.18177740275859833,-0.025664448738098145,0.0015987157821655273,0.0662849098443985,0.4409102582639987,-0.7684504804977473,0.01930188419706693,0.46336761600360565
1728066479417569800,3.26256982421875,0.15715710818767548,-0.45883265137672424,-0.08044716715812683,0.7292523980140686,0.6607108116149902,0.17791058123111725,0.008983075618743896,0.013803839683532715,0.0539773553609848,0.44160618557718356,-0.767218692954156,0.018186981879263455,0.4647888636975814
1728066479427601000,3.272600830078125,0.23361119627952576,-0.45499876141548157,-0.04059722647070885,0.7296504974365234,0.6615297198295593,0.1731722056865692,0.03345680236816406,-0.0188448429107666,0.0294952392578125,0.44258719846618466,-0.7656911781992208,0.017410437742850973,0.46640164260130995
1728066479437631000,3.282630859375,0.1221667006611824,-0.4532991051673889,-0.003009368199855089,0.7302761077880859,0.6620053648948669,0.16865786910057068,0.03447908163070679,-0.061053335666656494,0.00864933431148529,0.4433829056971554,-0.764230390696127,0.016758455726329318,0.46806257760268555
1728066479447661800,3.292661865234375,0.035077936947345734,-0.45844370126724243,0.03717666491866112,0.7311329245567322,0.6620195508003235,0.16484756767749786,0.016486644744873047,-0.06773555278778076,0.054711222648620605,0.4436541876466107,-0.7630000489351566,0.01595956941854491,0.4698373784058871
1728066479457693000,3.30269287109375,0.03854643926024437,-0.4929367005825043,0.06704001873731613,0.7322620749473572,0.6616852283477783,0.16113533079624176,-0.0013661980628967285,-0.059649884700775146,0.0923132598400116,0.4436968705685398,-0.761798529939158,0.015187588007371305,0.4717682588378824
1728066479467723000,3.312722900390625,0.09754817187786102,-0.45417433977127075,0.07068589329719543,0.7334918975830078,0.661266028881073,0.15721550583839417,-0.011430799961090088,-0.05797940492630005,0.04673360288143158,0.44380554097107855,-0.7605235903690736,0.0145471878422002,0.47373918197300663
1728066479477753900,3.32275390625,0.2208932787179947,-0.37459591031074524,0.06742484867572784,0.7345949411392212,0.661004364490509,0.15311144292354584,-0.026205718517303467,-0.05559682846069336,0.008372411131858826,0.44428496551263175,-0.7591783790285258,0.014279768385362865,0.4754524133410552
1728066479487784000,3.332783935546875,0.22755151987075806,-0.32232463359832764,0.07407715916633606,0.7355809807777405,0.6608409285545349,0.14902828633785248,-0.04019230604171753,-0.04864323139190674,-0.017039671540260315,0.4450250000445227,-0.7578316573386137,0.01432896449316535,0.47690506210811395
1728066479497814800,3.342814697265625,0.18873462080955505,-0.3199789226055145,0.09738621115684509,0.7366107106208801,0.6605158448219299,0.1453382521867752,-0.0349200963973999,-0.025002717971801758,-0.002332717180252075,0.44561715831584026,-0.7566114822810579,0.014428929424587724,0.47828453172481694
1728066479507846000,3.352845947265625,0.17966975271701813,-0.36400339007377625,0.11990084499120712,0.7378125190734863,0.6599811911582947,0.14162445068359375,-0.011433124542236328,-0.005562305450439453,0.0292283296585083,0.446076433026092,-0.7553815937307973,0.014521467833980494,0.47979534634177906
1728066479517876000,3.3628759765625,0.13426578044891357,-0.4303613603115082,0.11392150819301605,0.7391504645347595,0.6593292951583862,0.1376277059316635,0.009521961212158203,-0.01571369171142578,0.01428888738155365,0.4464224598356614,-0.7540588198568866,0.014461877387672004,0.4815527830885863
1728066479527906800,3.37290673828125,0.02925293892621994,-0.4776701033115387,0.0980280339717865,0.7404695153236389,0.6586572527885437,0.13369929790496826,0.022439420223236084,-0.03440499305725098,-0.01642012596130371,0.4465168078869995,-0.752763091779565,0.01404910798209075,0.4835008578084924
1728066479537937000,3.38293701171875,-0.07474429905414581,-0.5247387886047363,0.0805523693561554,0.7417101860046387,0.657967209815979,0.13017424941062927,0.020939409732818604,-0.04436558485031128,-0.025178298354148865,0.44623558722961393,-0.7516068519284708,0.013200982763720295,0.485578785461617
1728066479547968000,3.392968017578125,-0.10564050078392029,-0.5980116724967957,0.07554269582033157,0.7429398894309998,0.6572703719139099,0.12663300335407257,0.006297171115875244,-0.04618650674819946,-0.013672113418579102,0.4457243744682207,-0.7504480878663676,0.012007026259101765,0.48786601298369536
1728066479557997800,3.402997802734375,-0.12105008214712143,-0.6276239156723022,0.06537128239870071,0.7441784739494324,0.6565974354743958,0.12279253453016281,-0.0061109066009521484,-0.0521053671836853,-0.016209736466407776,0.4451566921711561,-0.7491885468710338,0.01062022278606204,0.4903459593119345
1728066479568029000,3.41302880859375,-0.13612976670265198,-0.5967490673065186,0.062257520854473114,0.7453395128250122,0.6559643745422363,0.11907776445150375,-0.018838107585906982,-0.054432570934295654,-0.035810358822345734,0.444534685922737,-0.7479672015334112,0.009162302081366529,0.4927980630920439
1728066479578060000,3.42306005859375,-0.13838227093219757,-0.5300278067588806,0.05715756118297577,0.7463976740837097,0.6553554534912109,0.11575570702552795,-0.031248867511749268,-0.047247111797332764,-0.040865443646907806,0.4438962507847412,-0.746871603912337,0.00778861762584241,0.49505364139107827
1728066479588089900,3.43308984375,-0.18572062253952026,-0.43954992294311523,0.04093252122402191,0.747279167175293,0.6547970175743103,0.11320124566555023,-0.032984793186187744,-0.040142595767974854,-0.03986740857362747,0.4431890493907131,-0.7460283505295116,0.006505540963139339,0.49697361312882055
1728066479598121000,3.443120849609375,-0.22882814705371857,-0.42884162068367004,0.0023763426579535007,0.7478950619697571,0.6544017791748047,0.11140510439872742,-0.022812724113464355,-0.02595341205596924,-0.03529419004917145,0.4423559589518528,-0.7454370848207151,0.005109442323943887,0.49861663159403385
1728066479608151000,3.453151123046875,-0.20651192963123322,-0.5064200162887573,-0.043101660907268524,0.7482655644416809,0.6543301939964294,0.10931827872991562,-0.002171814441680908,-0.01222527027130127,-0.006489172577857971,0.4416184724861043,-0.744746401257282,0.0034551930140058282,0.5003137913791783
1728066479618182000,3.463181884765625,-0.2144012749195099,-0.5811682939529419,-0.059109389781951904,0.748499870300293,0.6545090079307556,0.1066107228398323,0.03639698028564453,-0.01254129409790039,-0.011777162551879883,0.4409797197792012,-0.7438434238012666,0.0015239507141511309,0.5022265271124542
1728066479628213000,3.473212890625,-0.2191699892282486,-0.655245840549469,-0.01485324464738369,0.7488905191421509,0.6545785665512085,0.10338986665010452,0.08524632453918457,-0.005652964115142822,-0.02817918360233307,0.44027155963515807,-0.7427614977038536,-0.0005402373583570623,0.5044460793726415
1728066479638243000,3.4832431640625,-0.2049364596605301,-0.6949802041053772,0.06223940849304199,0.7497346997261047,0.6541804671287537,0.09972944110631943,0.12773728370666504,0.0017795562744140625,-0.017423376441001892,0.4394144985208094,-0.7415245161598102,-0.0024726211497549597,0.5070012490232225
1728066479648274000,3.49327392578125,-0.22899731993675232,-0.7567751407623291,0.12330196052789688,0.7510781288146973,0.6532451510429382,0.09566734731197357,0.15298986434936523,-0.008454620838165283,-0.005655646324157715,0.4383610550252231,-0.7401456185495198,-0.004258758309102566,0.5099076912137055
1728066479658304000,3.503303955078125,-0.2796841859817505,-0.8206318616867065,0.12929940223693848,0.752676248550415,0.6520160436630249,0.0913974791765213,0.14798903465270996,-0.027336597442626953,0.017550460994243622,0.43704954914663924,-0.7386885031158259,-0.006167310643247023,0.5131168822103775
1728066479668334800,3.5133349609375,-0.25852513313293457,-0.8240872025489807,0.1061868891119957,0.7541930675506592,0.65086829662323,0.08696731925010681,0.11651921272277832,-0.03978443145751953,0.0314105749130249,0.4356924038529022,-0.7371673776687414,-0.008241217203922523,0.5164189070221946
1728066479678364700,3.52336474609375,-0.20304934680461884,-0.7659322619438171,0.07694804668426514,0.7554807066917419,0.6499682664871216,0.08240265399217606,0.07110315561294556,-0.04926031827926636,-0.0018360614776611328,0.43457042282376895,-0.7355926788422068,-0.010234163247900628,0.5195644857658647
1728066479688396000,3.53339599609375,-0.19524554908275604,-0.6316394805908203,0.06900250911712646,0.7565164566040039,0.6492607593536377,0.07837945222854614,0.031065940856933594,-0.050841689109802246,-0.051493287086486816,0.4336157527422441,-0.7341972265606582,-0.012006545694567116,0.5222908132083027
1728066479698427000,3.543427001953125,-0.18929073214530945,-0.4748740792274475,0.08137262612581253,0.7574363350868225,0.6485332250595093,0.07546457648277283,0.004633426666259766,-0.024570882320404053,-0.07303833961486816,0.4326632720314489,-0.7331792123466943,-0.013436179473560439,0.5244713760104832
1728066479708456700,3.553456787109375,-0.13828952610492706,-0.3491021394729614,0.0782623142004013,0.7582749724388123,0.6477829217910767,0.07346127182245255,-0.0072373151779174805,0.0033400654792785645,-0.050740838050842285,0.4318016661519425,-0.7324763451526788,-0.014458186016872867,0.5261337795224253
1728066479718488000,3.563488037109375,-0.05808283016085625,-0.3269558250904083,0.05436044558882713,0.7589630484580994,0.6471860408782959,0.0715903788805008,-0.0019745230674743652,0.010360777378082275,-0.02100742608308792,0.4312361923159853,-0.7318230094959001,-0.015174772924390846,0.5274846779233145
1728066479728518000,3.573517822265625,-0.02187556028366089,-0.35887980461120605,0.04042412340641022,0.7595152854919434,0.6467952132225037,0.06922666728496552,0.01804208755493164,0.002878129482269287,0.0012233257293701172,0.4309457820682868,-0.7310010188409526,-0.01583803245933201,0.5288405583511381
1728066479738548700,3.583548828125,-0.033096522092819214,-0.38125941157341003,0.029719552025198936,0.7599971890449524,0.646506130695343,0.06658778339624405,0.04018896818161011,0.0005578994750976562,0.002610914409160614,0.4307265717231628,-0.7300816841277645,-0.01657189633605627,0.5302647030092342
1728066479748580000,3.593580078125,-0.057006046175956726,-0.37837809324264526,0.007920511066913605,0.7603840827941895,0.6463155746459961,0.06396861374378204,0.05220746994018555,0.00859147310256958,-0.009342081844806671,0.43046775253726144,-0.7291638621076454,-0.01744618810749758,0.5317077167411745
1728066479758609700,3.603609619140625,-0.030644483864307404,-0.3288592994213104,-0.02356763929128647,0.7605538964271545,0.6463488340377808,0.061571791768074036,0.04048687219619751,0.022382795810699463,-0.03216790407896042,0.43028636614933885,-0.728319015804456,-0.018365930688205932,0.532980134645191
1728066479768640800,3.613640869140625,0.046353429555892944,-0.30588334798812866,-0.040578581392765045,0.760547935962677,0.6465809941291809,0.05916149169206619,0.009807467460632324,0.024805724620819092,-0.06090079993009567,0.43033901762273286,-0.727470777921575,-0.01915756245833965,0.5340670973704224
1728066479778670800,3.6236708984375,0.15802456438541412,-0.2434287667274475,-0.03363705426454544,0.7604345083236694,0.646965742111206,0.056343067437410355,-0.024838805198669434,0.009101033210754395,-0.0673750638961792,0.4308042872458044,-0.7264886379213527,-0.019641608420377432,0.5350103616449889
1728066479788701700,3.63370166015625,0.21216855943202972,-0.19511300325393677,-0.008800411596894264,0.7604146003723145,0.6472347378730774,0.053449079394340515,-0.04979753494262695,-0.012621819972991943,-0.10247540473937988,0.43154260647291093,-0.7254913853852687,-0.019666969863000053,0.5357671335687064
1728066479798732800,3.64373291015625,0.16750414669513702,-0.13609443604946136,-0.013848699629306793,0.760459840297699,0.6473860144615173,0.05091310665011406,-0.0674971342086792,-0.016435205936431885,-0.08382618427276611,0.4322462413616307,-0.7246205338249991,-0.01953549243180059,0.5363828937431081
1728066479808763000,3.653762939453125,0.12038604170084,-0.06858473271131516,-0.04266570135951042,0.7603284120559692,0.6476732492446899,0.04919550195336342,-0.08881944417953491,-0.016066253185272217,-0.03064071387052536,0.4328314019180668,-0.7240292543035712,-0.019477944658760425,0.5367115592513363
1728066479818793700,3.663793701171875,0.07537675648927689,-0.022012967616319656,-0.04384841024875641,0.7600534558296204,0.648068368434906,0.048226818442344666,-0.09844774007797241,-0.03925812244415283,-0.033730871975421906,0.43330655112823124,-0.7236948446643937,-0.01947256593437843,0.5367791638952955
1728066479828823800,3.67382373046875,0.00858268141746521,-0.024999331682920456,-0.01726154051721096,0.7598583102226257,0.6483303904533386,0.04777868464589119,-0.08554196357727051,-0.07302844524383545,-0.02701140195131302,0.4335517675349039,-0.7235389714103982,-0.019511534533841936,0.5367899083181473
1728066479838855000,3.68385498046875,-0.09703642129898071,-0.029206324368715286,0.011995680630207062,0.7598654627799988,0.6483162045478821,0.04785832390189171,-0.054756879806518555,-0.09393399953842163,-0.015295866876840591,0.4333921020630036,-0.723561602223534,-0.019691870924651658,0.5368817655175546
1728066479848885800,3.6938857421875,-0.18239758908748627,-0.022793380543589592,0.033251430839300156,0.7600173354148865,0.6480835676193237,0.048591990023851395,-0.03137969970703125,-0.09020709991455078,-0.01654839888215065,0.4328050248708735,-0.7238047883546549,-0.020065480130253138,0.5370137252158403
1728066479858915800,3.703915771484375,-0.1659640222787857,-0.027508508414030075,0.05608563870191574,0.7603228092193604,0.6476491689682007,0.04959598556160927,-0.024757564067840576,-0.07637542486190796,-0.014576911926269531,0.43202300266299504,-0.7241410543602699,-0.020438336133590536,0.5371760520830404
1728066479868946700,3.71394677734375,-0.15251898765563965,-0.0393817313015461,0.05688033252954483,0.760519802570343,0.64749675989151,0.04855358228087425,-0.027273952960968018,-0.07709288597106934,-0.0205688513815403,0.4318197538048097,-0.7237695207218982,-0.020843985091890893,0.5378241582699625
1728066479878976800,3.723976806640625,-0.1902541071176529,-0.010572187602519989,0.05731043219566345,0.7606219053268433,0.6473986506462097,0.048261016607284546,-0.03854548931121826,-0.07760506868362427,-0.04049420356750488,0.43145938506553333,-0.7236547980162803,-0.021312939000976597,0.5382492024673144
1728066479889007900,3.7340078125,-0.2361377775669098,0.027431920170783997,0.07080546766519547,0.7606640458106995,0.6472641229629517,0.04938945546746254,-0.05824095010757446,-0.061372458934783936,-0.04392671585083008,0.4307475229477831,-0.7240287082292145,-0.021843913810559532,0.5382952757424094
1728066479899038000,3.744037841796875,-0.24488386511802673,0.08091671764850616,0.07599437236785889,0.7608942985534668,0.6468631029129028,0.051066748797893524,-0.0712733268737793,-0.05250287055969238,-0.03277134895324707,0.42984760640173475,-0.724595844235013,-0.02223145683143514,0.538235616938014
1728066479909068800,3.75406884765625,-0.23541893064975739,0.13389268517494202,0.07628651708364487,0.7613340020179749,0.6461692452430725,0.05325255170464516,-0.08175331354141235,-0.05342644453048706,-0.037902120500802994,0.42882515061248505,-0.72534519559385,-0.022374616715381615,0.5380359638263165
1728066479919100000,3.764099853515625,-0.20859822630882263,0.21621792018413544,0.12759871780872345,0.7620583176612854,0.6450831890106201,0.05598859488964081,-0.0924568772315979,-0.05395781993865967,-0.037098053842782974,0.427701960848726,-0.7262947798436238,-0.022140221254179446,0.5376585028921238
1728066479929129700,3.774129638671875,-0.17407241463661194,0.25532659888267517,0.11720918118953705,0.762886643409729,0.6438419818878174,0.0589175820350647,-0.085915207862854,-0.04987853765487671,-0.03903520479798317,0.4266643142624738,-0.7273186158997991,-0.021596807183577486,0.5371207357472506
1728066479939160800,3.784160888671875,-0.18525102734565735,0.25776207447052,0.06268708407878876,0.7634245753288269,0.64291912317276,0.061951614916324615,-0.0810210108757019,-0.034551262855529785,-0.032364726066589355,0.42576764352873,-0.7283740708247546,-0.021142853323767297,0.5364197475683081
1728066479949191000,3.79419091796875,-0.15773138403892517,0.26034000515937805,0.031511589884757996,0.7636569142341614,0.642350971698761,0.06491278856992722,-0.08749401569366455,-0.015016376972198486,-0.022874705493450165,0.4250213967446341,-0.7293982807194473,-0.02084568750326562,0.535630974739532
1728066479959221800,3.8042216796875,-0.1036873385310173,0.297440767288208,0.026411639526486397,0.7637333273887634,0.64197838306427,0.0676407441496849,-0.07440215349197388,-0.003398120403289795,-0.04629360884428024,0.4245220328125791,-0.7303435259630499,-0.02046231338528282,0.5347529619795194
1728066479969252900,3.8142529296875,-0.09393064677715302,0.3587627112865448,0.046913448721170425,0.7637608051300049,0.6416382193565369,0.07049746066331863,-0.06110876798629761,0.003243863582611084,-0.04879927635192871,0.4241605024749051,-0.7313365448337263,-0.019889394783788764,0.533703267680094
1728066479979283000,3.824282958984375,-0.09691045433282852,0.40380024909973145,0.06778836995363235,0.7638301849365234,0.6411827206611633,0.07381268590688705,-0.04462236166000366,0.017508625984191895,-0.03497898578643799,0.42376667463566625,-0.7324891280235221,-0.01913165276065357,0.5324617392847081
1728066479989313800,3.834313720703125,-0.11341606080532074,0.3967876434326172,0.05790112167596817,0.7638891339302063,0.6407047510147095,0.07727162539958954,-0.0212743878364563,0.03385573625564575,-0.019623756408691406,0.42334332479413234,-0.7336885369892787,-0.018356014047714468,0.5311728897838662
1728066479999343900,3.84434375,-0.05783509090542793,0.3804139792919159,0.046063102781772614,0.7639293074607849,0.6402198076248169,0.08081216365098953,-0.004575669765472412,0.04558640718460083,-0.01075887680053711,0.42289625532484815,-0.7349127992700973,-0.017585786798343186,0.5298609976816208
1728066480009375000,3.854375,0.025839032605290413,0.39960798621177673,0.0369604155421257,0.7638758420944214,0.6398856043815613,0.08390583842992783,0.015253305435180664,0.046210527420043945,-0.03696965426206589,0.4227653888728654,-0.7359864810603296,-0.016637885501161756,0.5285040677723669
1728066480019405800,3.86440576171875,0.07329735904932022,0.45574769377708435,0.020738571882247925,0.7637009024620056,0.6397022604942322,0.08684487640857697,0.02516329288482666,0.04776710271835327,-0.0714181661605835,0.422902188488313,-0.7370089522894755,-0.015499802982596038,0.5270022052868892
1728066480029436000,3.874435791015625,0.1393260508775711,0.5292980670928955,0.000026901718229055405,0.7633402347564697,0.6396993398666382,0.08998049795627594,0.02381497621536255,0.061487674713134766,-0.0701439380645752,0.4232944182726598,-0.7380994846956473,-0.014120953251717699,0.5251967133407244
1728066480039467300,3.88446728515625,0.17119982838630676,0.5805109143257141,-0.04110748693346977,0.7627062797546387,0.6399938464164734,0.0932040587067604,0.018467426300048828,0.06845641136169434,-0.05986344814300537,0.4239693379871639,-0.7392180139381046,-0.012599838949798308,0.5231137394031037
1728066480049497300,3.894497314453125,0.18987125158309937,0.6399427652359009,-0.06856467574834824,0.7617687582969666,0.6405837535858154,0.0967511311173439,0.011287271976470947,0.06362450122833252,-0.03875231742858887,0.42480850300246836,-0.7404416302815715,-0.011034435941595026,0.5207323374809792
1728066480059528400,3.904528564453125,0.21142473816871643,0.6866578459739685,-0.07771849632263184,0.7606478333473206,0.6413344740867615,0.10052337497472763,0.010119378566741943,0.05051422119140625,-0.008527994155883789,0.4257786568337933,-0.7417371592134386,-0.009363378946230533,0.5181224225364771
1728066480069558300,3.914558349609375,0.18344052135944366,0.7267419099807739,-0.0846770703792572,0.7594066262245178,0.6421420574188232,0.10466774553060532,0.012856066226959229,0.029259860515594482,0.014747634530067444,0.4267557646553555,-0.74315262151025,-0.00761938455807811,0.5153112868450865
1728066480079589400,3.92458935546875,0.14901037514209747,0.7421584129333496,-0.09898250550031662,0.7580143809318542,0.643025815486908,0.10923310369253159,0.018871545791625977,0.017114996910095215,0.025441043078899384,0.4276254678742055,-0.7447018859078396,-0.005971160723713827,0.5123669223531171
1728066480089620200,3.9346201171875,0.19115908443927765,0.7338930368423462,-0.09187186509370804,0.7565566301345825,0.6439452171325684,0.11382564157247543,0.026417553424835205,0.009924232959747314,0.015462145209312439,0.4284983714585739,-0.7462533710494178,-0.0043272835782856515,0.5093880394616689
1728066480099650300,3.944650390625,0.28539106249809265,0.7281342148780823,-0.06679154187440872,0.7552008628845215,0.6448116302490234,0.1178550273180008,0.03425854444503784,-0.010320723056793213,-0.02656148374080658,0.42959183975041015,-0.7476105500777929,-0.0024451340304318422,0.5064813935511927
1728066480109681400,3.954681396484375,0.3253459334373474,0.7645623087882996,-0.03202370926737785,0.7539989948272705,0.6455424427986145,0.12149293720722198,0.03242373466491699,-0.029819905757904053,-0.062487006187438965,0.4308758915166443,-0.7488300295767506,-0.0002351700909157998,0.5035866726775128
1728066480119711500,3.96471142578125,0.276700884103775,0.8510271310806274,-0.008320776745676994,0.7528791427612305,0.6460575461387634,0.1256289929151535,0.011815071105957031,-0.030960559844970703,-0.05079972743988037,0.43206071108852656,-0.7502063797387595,0.002209599559346686,0.500508791764917
1728066480129742300,3.974742431640625,0.19358788430690765,0.9591752290725708,-0.0024058958515524864,0.7516936659812927,0.6463761329650879,0.13097535073757172,-0.018539249897003174,-0.020430147647857666,0.0042786747217178345,0.4329248982852127,-0.7519741555565345,0.004748256057790645,0.4970798520065172
1728066480139773400,3.9847734375,0.1794307827949524,1.0670368671417236,-0.012646548449993134,0.7502851486206055,0.646664023399353,0.1374702751636505,-0.03910338878631592,-0.013256430625915527,0.05640806257724762,0.4335857581810291,-0.754109212600482,0.007378042668868904,0.49322240191060596
1728066480149803500,3.994803466796875,0.20411716401576996,1.1168322563171387,-0.014902513474225998,0.7486362457275391,0.647036612033844,0.14452412724494934,-0.03772926330566406,-0.01423954963684082,0.0829387754201889,0.43429731475106415,-0.7564112464257413,0.01020251931750609,0.4890027630447696
1728066480159834400,4.00483447265625,0.2011922150850296,1.0254322290420532,-0.02327762171626091,0.7469280362129211,0.6474635601043701,0.15129157900810242,-0.014490962028503418,-0.0014676451683044434,0.09168945252895355,0.4350473624489354,-0.7586021181139827,0.012985352821932658,0.4848586200050887
1728066480169864200,4.0148642578125,0.23863013088703156,1.006545901298523,-0.06144072115421295,0.7450988292694092,0.6481016874313354,0.15745429694652557,0.036410510540008545,0.0272979736328125,0.049378737807273865,0.43588528404539956,-0.7605823399871825,0.015545064473567143,0.4809124850988566
1728066480179895300,4.024895263671875,0.33424079418182373,0.9366186857223511,-0.07776723057031631,0.7430366277694702,0.6491010785102844,0.16298586130142212,0.10098803043365479,0.054191648960113525,-0.07976424694061279,0.43705772941432025,-0.7623418017319511,0.018108201835509173,0.476956628668943
1728066480189926400,4.034926513671875,0.40726715326309204,0.7755734324455261,-0.02080381102859974,0.7412691712379456,0.6501255035400391,0.16690467298030853,0.11044609546661377,0.05347257852554321,-0.054981306195259094,0.43854494116198206,-0.7635605029059747,0.02068071090778942,0.47352522137450775
1728066480199956200,4.044956298828125,0.33988118171691895,0.6480913758277893,0.0586814284324646,0.7401993870735168,0.6506140828132629,0.1697237193584442,0.09375447034835815,0.00671917200088501,0.06367480754852295,0.43987878972125133,-0.764409464950764,0.023238471101150147,0.47079163955906694
1728066480209987300,4.0549873046875,0.11002195626497269,0.5784910321235657,0.09963897615671158,0.7397013306617737,0.6503909230232239,0.17272406816482544,0.06346023082733154,-0.05651891231536865,0.11580455303192139,0.44049644108312136,-0.7653198351580177,0.025447736053504366,0.46861588697846435
1728066480220017200,4.06501708984375,-0.12488695979118347,0.6180909276008606,0.06017173081636429,0.7392081022262573,0.6497366428375244,0.17723914980888367,0.004581570625305176,-0.09001380205154419,0.18308210372924805,0.4401646760715065,-0.7667381935820604,0.027057607867039955,0.46651421006796945
1728066480230048300,4.07504833984375,-0.2505621314048767,0.7310861349105835,-0.03743605315685272,0.7380695939064026,0.6492910981178284,0.18350659310817719,-0.05522346496582031,-0.09574806690216064,0.19523192942142487,0.43928522999976477,-0.7687405983271101,0.02812814590924094,0.46397771648722014
1728066480240078300,4.085078369140625,-0.23928417265415192,0.8690570592880249,-0.12147263437509537,0.7360205054283142,0.6494181156158447,0.1911274790763855,-0.08593511581420898,-0.08189809322357178,0.09399843215942383,0.4383665000335183,-0.7711834402753691,0.028980020381106517,0.46072875986634115
1728066480250109200,4.095109130859375,-0.12884043157100677,0.9515545964241028,-0.1425856351852417,0.7333269715309143,0.650061845779419,0.19912593066692352,-0.0813952088356018,-0.05405360460281372,-0.01736307144165039,0.4378194053203603,-0.7737316878649075,0.030037311070124827,0.456892953511722
1728066480260140300,4.105140380859375,-0.06757040321826935,0.8838620781898499,-0.09636887907981873,0.7306408882141113,0.6507680416107178,0.20655447244644165,-0.04166078567504883,-0.037837862968444824,-0.06594455242156982,0.43758606299245006,-0.7760751362434487,0.03137862420403304,0.4530355156804302
1728066480270170000,4.115170166015625,-0.02060556411743164,0.7450039982795715,-0.02074229158461094,0.7285344004631042,0.6511005759239197,0.21285134553909302,0.014919579029083252,-0.029426991939544678,-0.06398651003837585,0.43740863489120596,-0.7780403885127588,0.03284554071456739,0.4497199493850131
1728066480280201200,4.125201171875,-0.020312083885073662,0.6068705916404724,0.046920374035835266,0.7271779775619507,0.6509523987770081,0.2178834229707718,0.062052369117736816,-0.029690802097320557,-0.04851076006889343,0.43719111003041766,-0.7795912406955353,0.034339633015076886,0.4471266469980436
