time,seconds_elapsed,rotationRateX,rotationRateY,rotationRateZ,gravityX,gravityY,gravityZ,accelerationX,accelerationY,accelerationZ,quaternionW,quaternionX,quaternionY,quaternionZ
1728666500606387500,0.184387451171875,-0.3426332175731659,0.1192907840013504,-0.25028568506240845,0.3273276090621948,0.4655457139015198,-0.822267472743988,-0.07717505097389221,-0.039505064487457275,0.03415107727050781,0.9545332322827632,-0.24386040533647121,0.17145951737966206,9.407958549206562e-18
1728666500616418300,0.194418212890625,-0.30683228373527527,0.13838952779769897,-0.26552483439445496,0.32716846466064453,0.46908000111579895,-0.8203198909759521,-0.07481864094734192,-0.00612834095954895,0.020362675189971924,0.9540223032028304,-0.24564105796494737,0.171757177784902,-0.0011233899276476035
1728666500626448400,0.204448486328125,-0.22683778405189514,0.16256646811962128,-0.20408810675144196,0.3272427022457123,0.472100168466568,-0.8185558319091797,-0.04967007040977478,0.013083577156066895,-0.005189836025238037,0.9535581326635558,-0.2471452882369899,0.17216642169538263,-0.002222732200658117
1728666500636479500,0.2144794921875,-0.1550094038248062,0.23722445964813232,-0.1523575335741043,0.3280375003814697,0.4741882383823395,-0.8170292973518372,-0.03303933143615723,0.01371157169342041,-0.028399109840393066,0.9531550800523341,-0.24817394235551662,0.17290181328482726,-0.0031570428963946656
1728666500646509300,0.22450927734375,-0.12776246666908264,0.26459693908691406,-0.13290926814079285,0.32942405343055725,0.4758262038230896,-0.8155177235603333,-0.03969016671180725,0.006626158952713013,-0.03709757328033447,0.9527552040416443,-0.24897412505464625,0.17393394814152813,-0.004034369221123716
1728666500656540400,0.23454052734375,-0.12759335339069366,0.26172205805778503,-0.13410955667495728,0.33095020055770874,0.47729387879371643,-0.8140408396720886,-0.05578845739364624,0.011689305305480957,-0.0201113224029541,0.952363569130899,-0.24968287472602702,0.1750372304526501,-0.004902156071064278
1728666500666570500,0.244570556640625,-0.10930290073156357,0.2459406554698944,-0.09876886755228043,0.33244583010673523,0.47869673371315,-0.8126064538955688,-0.05874893069267273,0.014635175466537476,-0.008697867393493652,0.9519827056024102,-0.25037255698512656,0.17609761170512622,-0.005667414031081727
1728666500676600600,0.2546005859375,-0.1019565686583519,0.23689229786396027,-0.06806555390357971,0.33402496576309204,0.47983333468437195,-0.8112874031066895,-0.04984530806541443,0.03762272000312805,-0.01576942205429077,0.9516325073787295,-0.25094413824803624,0.17715339576533665,-0.006266141939372031
1728666500686631400,0.26463134765625,-0.11082795262336731,0.2420426458120346,-0.06666446477174759,0.3356375992298126,0.48090067505836487,-0.8099888563156128,-0.024266749620437622,0.06670677661895752,-0.04883682727813721,0.9512876811744747,-0.251491804663137,0.17820621806204986,-0.006785815683922458
1728666500696661500,0.27466162109375,-0.17800407111644745,0.23708036541938782,-0.09574564546346664,0.337199866771698,0.48234179615974426,-0.8084816932678223,-0.020229041576385498,0.06505197286605835,-0.058919429779052734,0.9508873415848891,-0.2522410534879882,0.1792585197551061,-0.007352958520974147
1728666500706692400,0.2846923828125,-0.27223968505859375,0.20996619760990143,-0.12330936640501022,0.3384985327720642,0.4845585823059082,-0.8066112995147705,-0.03632873296737671,0.049499064683914185,-0.05033755302429199,0.9503906760353631,-0.25341798869062604,0.18020456284658054,-0.007953159223722979
1728666500716722400,0.294722412109375,-0.3457908630371094,0.17958511412143707,-0.15006642043590546,0.3394060730934143,0.4875422716140747,-0.8044289946556091,-0.04723078012466431,0.04112899303436279,-0.041747093200683594,0.949810984141188,-0.25501816786702636,0.18097300628276825,-0.008576299031964918
1728666500726753500,0.30475341796875,-0.34542182087898254,0.14440135657787323,-0.1469782143831253,0.33996647596359253,0.4908663332462311,-0.8021677136421204,-0.04841679334640503,0.03252539038658142,-0.04295557737350464,0.9492099518726186,-0.25680958421645955,0.1815626280693753,-0.009181181680176715
1728666500736783600,0.31478369140625,-0.2869715690612793,0.10269998013973236,-0.16369301080703735,0.340175598859787,0.49395471811294556,-0.8001807928085327,-0.04687115550041199,0.02844521403312683,-0.048482537269592285,0.9486804827511661,-0.2584610020165842,0.181954700200957,-0.00978511293435024
1728666500746814500,0.324814453125,-0.22534015774726868,0.08271348476409912,-0.1652568131685257,0.34007057547569275,0.4966072738170624,-0.7985820174217224,-0.04174599051475525,0.03445962071418762,-0.06799513101577759,0.9482517918835918,-0.25984299064098837,0.1821829202495022,-0.0104678137742065
1728666500756844500,0.334844482421875,-0.14726106822490692,0.08882544934749603,-0.12705670297145844,0.3400062024593353,0.4985991418361664,-0.7973673939704895,-0.03988108038902283,0.045666635036468506,-0.0703083872795105,0.9479241554288425,-0.26085632687638644,0.1824014595702636,-0.011115893380613567
1728666500766874400,0.344874267578125,-0.08967220783233643,0.09243051707744598,-0.072182796895504,0.3402025103569031,0.4998876452445984,-0.7964763641357422,-0.035728633403778076,0.04437810182571411,-0.06285285949707031,0.9476831277972781,-0.2615038706635061,0.18269525024683284,-0.011609558157163477
1728666500776905500,0.354905517578125,-0.058787260204553604,0.12166270613670349,-0.028307482600212097,0.34079864621162415,0.5006313323974609,-0.795754075050354,-0.04316073656082153,0.028924942016601562,-0.05307704210281372,0.9474887739699728,-0.26188561398461313,0.18313626948911305,-0.01191447401234445
1728666500786935300,0.364935302734375,-0.03965897113084793,0.15304864943027496,0.002493837848305702,0.3418331444263458,0.5010685324668884,-0.7950348258018494,-0.06365019083023071,0.005172312259674072,-0.04204702377319336,0.9472966100385395,-0.2621246485677613,0.18377497918268634,-0.01210429939738441
1728666500796966400,0.37496630859375,-0.037157732993364334,0.18312717974185944,0.03149832412600517,0.3432425260543823,0.501315176486969,-0.7942717671394348,-0.07880771160125732,-0.017657339572906494,-0.04097902774810791,0.9470938881546854,-0.2622800273384112,0.18458952457201153,-0.012209677790231733
1728666500806996200,0.384996337890625,-0.027005894109606743,0.1815725415945053,0.06644325703382492,0.34493476152420044,0.5014269948005676,-0.7934677004814148,-0.07677680253982544,-0.026222527027130127,-0.044361889362335205,0.9468817204973673,-0.26238728402341743,0.18552375953977493,-0.012202112881530334
1728666500817027300,0.39502734375,0.02344582788646221,0.1670745462179184,0.1139705628156662,0.3467779755592346,0.5011287927627563,-0.7928524017333984,-0.0684424340724945,-0.029937446117401123,-0.04807466268539429,0.9467217912532191,-0.26230124015833817,0.18647212621761622,-0.012002353219298718
1728666500827057400,0.405057373046875,0.04019544646143913,0.15634264051914215,0.11674051731824875,0.34817439317703247,0.5004650354385376,-0.7926596999168396,-0.05520564317703247,-0.0316692590713501,-0.0589943528175354,0.9466741454186959,-0.2620064652755457,0.1871437243904635,-0.011743730977177869
1728666500837088300,0.415088134765625,0.024463089182972908,0.13057389855384827,0.10019057244062424,0.34939008951187134,0.49989575147628784,-0.792483925819397,-0.05161482095718384,-0.027682006359100342,-0.05503499507904053,0.9466303462480805,-0.2617534564437338,0.1877316287236297,-0.011527668674852108
1728666500847118300,0.425118408203125,0.023994307965040207,0.06912817060947418,0.10566815733909607,0.35014814138412476,0.49946579337120056,-0.7924204468727112,-0.055134713649749756,-0.028564274311065674,-0.04283034801483154,0.9466167133456632,-0.26157755616670425,0.1880610311376564,-0.011268700930583509
1728666500857148400,0.4351484375,0.01762482523918152,0.02224029414355755,0.10307184606790543,0.35033276677131653,0.4990251064300537,-0.7926164865493774,-0.03873303532600403,-0.029756277799606323,-0.03955209255218506,0.9466721914314631,-0.2613926233624793,0.1880575904447475,-0.010951015580171496
1728666500867179500,0.445179443359375,0.013666101731359959,0.00904209353029728,0.10920137912034988,0.3500325679779053,0.49853599071502686,-0.7930567860603333,-0.029964208602905273,-0.02166825532913208,-0.04114115238189697,0.9467925116931691,-0.2611733646999126,0.18777664316994092,-0.01060303497877788
1728666500877209300,0.455209228515625,-0.026342831552028656,-0.0017088218592107296,0.08376898616552353,0.3494507074356079,0.4980475902557373,-0.7936200499534607,-0.03070986270904541,-0.019867658615112305,-0.04189014434814453,0.94694486761027,-0.26094417513469564,0.18734488163452365,-0.010270109706683832
1728666500887240400,0.465240478515625,-0.08728288859128952,-0.05006042867898941,0.04748101904988289,0.3484206795692444,0.4979705810546875,-0.7941211462020874,-0.033967554569244385,-0.0291290283203125,-0.0424267053604126,0.9470800511612685,-0.2609264026148654,0.18669990117889215,-0.010000554373451072
1728666500897270500,0.4752705078125,-0.1587328314781189,-0.08975644409656525,0.016212046146392822,0.3467799425125122,0.49836382269859314,-0.7945924997329712,-0.04131424427032471,-0.04476580023765564,-0.03133523464202881,0.9472070634195011,-0.2611580379828309,0.18574240765120814,-0.009751009883040814
1728666500907301400,0.48530126953125,-0.22018128633499146,-0.09472110867500305,-0.01431363821029663,0.3450479507446289,0.4992302358150482,-0.7948024868965149,-0.039002448320388794,-0.05284962058067322,-0.020352482795715332,0.9472647542306697,-0.2616543173069991,0.1847586583441191,-0.009521667101645061
1728666500917331500,0.49533154296875,-0.2753755450248718,-0.11131659895181656,-0.03602346032857895,0.3429598808288574,0.5004887580871582,-0.7949147820472717,-0.03534269332885742,-0.0498356819152832,-0.01756995916366577,0.9472960553779156,-0.2623533811563583,0.1836118514977549,-0.009357000521134948
1728666500927362600,0.505362548828125,-0.3436230421066284,-0.13056938350200653,-0.06160258874297142,0.34001460671424866,0.5019741654396057,-0.7952433228492737,-0.018435657024383545,-0.04488188028335571,-0.017912745475769043,0.9473834615908445,-0.2631425933523434,0.18202829715640717,-0.009285045431016744
1728666500937392400,0.515392333984375,-0.41641169786453247,-0.15295805037021637,-0.0498652383685112,0.33758407831192017,0.5038858652114868,-0.7950698137283325,0.001237332820892334,-0.031275391578674316,-0.01680457592010498,0.9473400764115891,-0.26422376744915527,0.18069557620600124,-0.009038281381169721
1728666500947422500,0.52542236328125,-0.4833577275276184,-0.16728968918323517,-0.04511389508843422,0.33552733063697815,0.506659984588623,-0.7941769957542419,0.01630982756614685,-0.009986400604248047,-0.017636358737945557,0.9471081158486016,-0.2658382773451554,0.1795592460121227,-0.008645680536062997
1728666500957453600,0.53545361328125,-0.5484451055526733,-0.21623432636260986,-0.05734472721815109,0.33320751786231995,0.5099081993103027,-0.7930740118026733,0.019285768270492554,-0.0014395713806152344,-0.02115023136138916,0.9468212032300587,-0.2677370756173178,0.17826904255959403,-0.008161534747874516
1728666500967483600,0.545483642578125,-0.6053727269172668,-0.2516925632953644,0.007476345635950565,0.33062177896499634,0.5132012963294983,-0.7920314073562622,0.020208299160003662,0.006757199764251709,-0.008780360221862793,0.9465517910673509,-0.26969893322214883,0.17676763113493205,-0.0074483904600669715
1728666500977514500,0.555514404296875,-0.6845048666000366,-0.2596399784088135,0.3352116048336029,0.3294048607349396,0.5178192853927612,-0.7895287275314331,0.05287355184555054,0.02850639820098877,-0.003607809543609619,0.9459020986848125,-0.27263865388160663,0.1757947308740173,-0.005803174006732777
1728666500987544600,0.565544677734375,-0.9568594694137573,-0.7595661878585815,0.7905942797660828,0.3296709358692169,0.5219184756278992,-0.7867135405540466,0.21422860026359558,-0.00939100980758667,0.01229947805404663,0.945174498407371,-0.27584211175478834,0.1747980676589641,-0.0013747192011657559
1728666500997575400,0.575575439453125,-1.1548892259597778,-0.9338887333869934,0.4395047128200531,0.3258720338344574,0.5283825993537903,-0.7839764952659607,0.2243904173374176,-0.05835086107254028,0.09966564178466797,0.9444439165420068,-0.28040661697742236,0.17141724273003925,0.003716178822115104
1728666501007605200,0.585605224609375,-0.986343264579773,-0.7413466572761536,0.21846367418766022,0.3207985758781433,0.5360013842582703,-0.7808910012245178,-0.10424584150314331,0.05246901512145996,0.0531688928604126,0.9436060348258921,-0.28531468884511213,0.16777965798997246,0.007295043835571845
1728666501017636600,0.59563671875,-0.6884223818778992,-0.3862839341163635,0.20946165919303894,0.31753066182136536,0.5418770909309387,-0.7781667709350586,-0.17335036396980286,0.09459751844406128,-0.044419288635253906,0.9428617214781357,-0.2890693497153156,0.16539507188561633,0.009757675948451398
1728666501027666400,0.60566650390625,-0.5207056999206543,-0.19832360744476318,0.25429144501686096,0.3166462481021881,0.5458183884620667,-0.7757689356803894,-0.12073865532875061,0.07873910665512085,-0.038531601428985596,0.9422030476810017,-0.2916988923783567,0.1643997846660583,0.011742045415516923
1728666501037697300,0.615697265625,-0.46699294447898865,-0.2886827886104584,0.26716968417167664,0.31621500849723816,0.54873126745224,-0.7738876342773438,-0.04379984736442566,0.01257854700088501,0.01760101318359375,0.941676778447278,-0.29374534356127746,0.16361496248121266,0.013736717294834265
1728666501047725300,0.625725341796875,-0.47803691029548645,-0.36649882793426514,0.3880002498626709,0.3155707120895386,0.5513427257537842,-0.7722929120063782,0.006954312324523926,-0.036862075328826904,0.03599536418914795,0.9412145630441078,-0.29568240205065494,0.16255908468245764,0.016174020871056252
1728666501057755400,0.63575537109375,-0.42894312739372253,-0.40813443064689636,0.4227488934993744,0.3148255944252014,0.5536262392997742,-0.7709622383117676,0.038201719522476196,-0.053458452224731445,0.046612322330474854,0.9408073458951989,-0.2974941456850126,0.16129507639570886,0.019043099246550985
1728666501067786500,0.645786376953125,-0.39058735966682434,-0.3294801712036133,0.445710688829422,0.3143073618412018,0.5554537177085876,-0.7698584198951721,-0.020774036645889282,-0.07686179876327515,0.03829103708267212,0.940450464043405,-0.29905082227916363,0.16012306289482525,0.021955705059372308
1728666501077816600,0.655816650390625,-0.2831655740737915,-0.24229896068572998,0.5266034007072449,0.31489622592926025,0.5566077828407288,-0.7687835693359375,-0.06025758385658264,-0.04165416955947876,0.019073545932769775,0.9400905716485178,-0.3002694361967208,0.15951957598891786,0.024928484603929747
1728666501087847400,0.665847412109375,-0.1623186469078064,-0.20693343877792358,0.6258852481842041,0.3163382411003113,0.5564731955528259,-0.768288791179657,-0.05092686414718628,-0.03897136449813843,0.0005580782890319824,0.9398680768498333,-0.3008083654554654,0.15927940697712917,0.028149127512546165
1728666501097877500,0.67587744140625,-0.12878252565860748,-0.1416492462158203,0.6931425929069519,0.31879621744155884,0.5555044412612915,-0.7679738402366638,-0.04105573892593384,-0.012108445167541504,-0.008606970310211182,0.9396724644064254,-0.30095832523841015,0.1594903363102733,0.03166360722473275
1728666501107908600,0.68590869140625,-0.1256541758775711,-0.09907685965299606,0.6541935801506042,0.3215784430503845,0.5542632341384888,-0.7677106261253357,-0.05134528875350952,-0.0029021501541137695,0.024134576320648193,0.9394793280429292,-0.30096281557355237,0.15989394002501536,0.035127827085638344
1728666501117938400,0.6959384765625,-0.16071656346321106,-0.0802038386464119,0.6368691921234131,0.3245486319065094,0.5532717704772949,-0.7671757340431213,-0.0565585196018219,-0.0010408759117126465,0.03866016864776611,0.9392080015208515,-0.3011060960357775,0.1604594817642405,0.038423284836916906
1728666501127969500,0.705969482421875,-0.2154010385274887,-0.10217524319887161,0.6142597198486328,0.3273707330226898,0.5527576804161072,-0.7663466930389404,-0.03368481993675232,-0.008919179439544678,0.050801098346710205,0.9388503858037565,-0.30151827656320845,0.16097629954038034,0.04163165465919498
1728666501137999600,0.71599951171875,-0.20366448163986206,-0.15644113719463348,0.6143649220466614,0.32977786660194397,0.5523422360420227,-0.765613853931427,-0.00465884804725647,-0.022023022174835205,0.03297841548919678,0.9385050429519542,-0.3019800193403635,0.16124865679077677,0.04489122746177606
1728666501148029400,0.726029541015625,-0.15552100539207458,-0.21420946717262268,0.6058372259140015,0.3317497670650482,0.5517568588256836,-0.7651839852333069,0.018454700708389282,-0.010512351989746094,0.021897852420806885,0.9382270520980266,-0.30232511302457205,0.16126855431606696,0.04818776143065594
1728666501158060300,0.736060302734375,-0.10151554644107819,-0.2586909234523773,0.5646668672561646,0.33313876390457153,0.5507262945175171,-0.7653229236602783,0.017523467540740967,0.00603640079498291,0.02373051643371582,0.9380933707796989,-0.30235654218987584,0.16099401975991368,0.05140273333318692
1728666501168090400,0.74609033203125,-0.07443439215421677,-0.23605698347091675,0.5445467233657837,0.33431828022003174,0.5495842099189758,-0.7656294107437134,0.013658404350280762,0.023139119148254395,0.007481276988983154,0.9380017595729455,-0.3022845216279712,0.16065288554030185,0.05447333964962946
1728666501178121200,0.756121337890625,-0.08708654344081879,-0.17640270292758942,0.2800751030445099,0.33508697152137756,0.5485553741455078,-0.7660311460494995,0.010295718908309937,0.0018292069435119629,-0.010259747505187988,0.9379699120099504,-0.30212745816422765,0.16032287703305573,0.05681528600585578
1728666501188151300,0.7661513671875,-0.29378119111061096,-0.39136677980422974,0.3584063947200775,0.3344525992870331,0.5489886403083801,-0.7659980058670044,0.007054358720779419,-0.07868224382400513,-0.018883585929870605,0.9378429536123785,-0.30266668254385987,0.15935455684121833,0.05873377764711371
1728666501198182400,0.776182373046875,-0.4497058093547821,-0.447125107049942,0.6490116119384766,0.33412179350852966,0.5502007007598877,-0.7652724385261536,0.08967581391334534,-0.06025618314743042,0.016020119190216064,0.9374333405582846,-0.30393139694568605,0.15808065187046783,0.06208907258124342
1728666501208212500,0.78621240234375,-0.4715397357940674,-0.39541465044021606,0.665206789970398,0.33450430631637573,0.5515283346176147,-0.7641487121582031,0.06916695833206177,-0.008407056331634521,-0.012737274169921875,0.9368457291295845,-0.30545680919691925,0.15691327092088528,0.06628967311662619
1728666501218243300,0.796243408203125,-0.3827933371067047,-0.3126845955848694,0.5985686779022217,0.33529943227767944,0.5527524948120117,-0.7629148364067078,-0.028140008449554443,0.01775836944580078,-0.013879597187042236,0.9362381346321031,-0.30688746272992695,0.15608543889027157,0.07011225281894741
1728666501228273400,0.8062734375,-0.30061182379722595,-0.23583978414535522,0.6055881977081299,0.3365802764892578,0.5533360838890076,-0.76192706823349,-0.019868850708007812,0.05085092782974243,-0.012105464935302734,0.9357063066597862,-0.30792032432856287,0.1556326738060568,0.07360237865119157
1728666501238303500,0.816303466796875,-0.30443742871284485,-0.18529537320137024,0.5957851409912109,0.338370144367218,0.5535857081413269,-0.760952353477478,0.016900211572647095,0.06853032112121582,-0.010364115238189697,0.9351729528331397,-0.3087818080194231,0.1554915487503329,0.07699152597991246
1728666501248334300,0.826334228515625,-0.34306013584136963,-0.21478435397148132,0.5359734892845154,0.3400343954563141,0.5541282296180725,-0.7598147988319397,0.002113431692123413,0.043299078941345215,0.023196756839752197,0.9345983223238971,-0.3097831397489703,0.1553287250690328,0.08020845779253105
1728666501258364400,0.836364501953125,-0.32918933033943176,-0.26059019565582275,0.5066009163856506,0.3411063849925995,0.5549792647361755,-0.7587123513221741,-0.011974304914474487,0.029401838779449463,0.04185450077056885,0.9340361688855734,-0.31089342458324976,0.15488414124147845,0.08326264615002701
1728666501268395500,0.8463955078125,-0.19028876721858978,-0.24930590391159058,0.49798452854156494,0.3418979346752167,0.5552777647972107,-0.7581374645233154,0.002965956926345825,0.05469226837158203,0.02084803581237793,0.933611822335502,-0.3116366089279278,0.15431749561863234,0.08624252934830193
1728666501278425300,0.85642529296875,-0.030227452516555786,-0.1720244139432907,0.46130216121673584,0.34300246834754944,0.5544740557670593,-0.758226752281189,0.007812321186065674,0.0872952938079834,-0.02070385217666626,0.9333855053121122,-0.3116971238094324,0.15405037352712117,0.0889095250062735
1728666501288456400,0.86645654296875,0.0699705183506012,-0.0784718245267868,0.4058769941329956,0.3444594442844391,0.5527942180633545,-0.7587925791740417,-0.016746431589126587,0.09117239713668823,0.0006444454193115234,0.9333251970172712,-0.31119027475359445,0.15415679212172462,0.09110602045766111
1728666501298486500,0.876486572265625,0.08327274024486542,-0.042390525341033936,0.4066799283027649,0.34627223014831543,0.5508074164390564,-0.7594121098518372,-0.03479456901550293,0.0687909722328186,0.014020264148712158,0.93330261801581,-0.3104897643984683,0.1545640882626083,0.09301772513476067
1728666501308517400,0.886517333984375,0.06438373774290085,-0.02539476379752159,0.4479607939720154,0.34839391708374023,0.5487530827522278,-0.7599287629127502,-0.024770259857177734,0.03224056959152222,0.036738455295562744,0.9332410663079295,-0.30979510727759085,0.15512127239089374,0.09500285726028451
1728666501318547500,0.89654736328125,-0.017576904967427254,-0.005822393577545881,0.46427345275878906,0.3508194088935852,0.5469272136688232,-0.7601292133331299,0.002604663372039795,-0.002218961715698242,0.04476666450500488,0.9330723481042252,-0.3093007296633236,0.15578339692268764,0.09716278790099574
1728666501328578600,0.90657861328125,-0.11635308712720871,-0.016747796908020973,0.4267710745334625,0.3531954288482666,0.5458385348320007,-0.7598113417625427,0.011367559432983398,-0.03837698698043823,0.048828125,0.9327597660201764,-0.3092469946926518,0.15639890217042227,0.09932223988504237
1728666501338608400,0.9166083984375,-0.22326861321926117,-0.0876760333776474,0.407533198595047,0.3550891876220703,0.5457240343093872,-0.7590105533599854,0.008878707885742188,-0.06324106454849243,0.04991936683654785,0.9323148879121986,-0.30972770625440177,0.15672736279693653,0.10146119010605086
1728666501348638500,0.926638427734375,-0.23298382759094238,-0.1542072296142578,0.4510849416255951,0.35648733377456665,0.5460290312767029,-0.7581353187561035,0.02243417501449585,-0.055535197257995605,0.06875848770141602,0.9318192245660778,-0.3104506829188164,0.15669309663047287,0.10382978761137941
1728666501358669600,0.936669677734375,-0.1587415635585785,-0.11381852626800537,0.49800848960876465,0.3580405116081238,0.5458126664161682,-0.7575589418411255,0.03951197862625122,-0.025793135166168213,0.03055393695831299,0.9313699188408253,-0.31092188164203194,0.1566784026906579,0.10644059309618985
1728666501368699400,0.946699462890625,-0.1079130545258522,-0.03558971732854843,0.49168509244918823,0.36020728945732117,0.5450143218040466,-0.757106363773346,0.024405747652053833,-0.007203042507171631,0.012401163578033447,0.930953876650412,-0.3111029378493688,0.15704068364168577,0.10898648967268207
1728666501378730500,0.95673046875,-0.146098792552948,0.01461060345172882,0.4844077527523041,0.3628259599208832,0.5441736578941345,-0.756460428237915,0.003125607967376709,-0.014312207698822021,0.03236985206604004,0.9304996697002462,-0.3112833857514894,0.15770998992347005,0.11135794816302667
1728666501388760300,0.96676025390625,-0.24476172029972076,-0.002727107610553503,0.521660566329956,0.3656183183193207,0.543833315372467,-0.7553598880767822,0.0030645430088043213,-0.042765259742736816,0.053364098072052,0.9299038147524764,-0.3118070788841447,0.1584183967183223,0.11383732128005951
1728666501398791400,0.97679150390625,-0.3360961675643921,-0.031225861981511116,0.5762998461723328,0.3684917390346527,0.5440192222595215,-0.753828227519989,0.02147713303565979,-0.061902523040771484,0.06925791501998901,0.9291423908627706,-0.3127205080125986,0.15903388533671747,0.11665608327336761
1728666501408821200,0.9868212890625,-0.44030651450157166,-0.013205367140471935,0.6066846251487732,0.3715541660785675,0.5447151064872742,-0.7518197894096375,0.043820589780807495,-0.06513136625289917,0.06447237730026245,0.9282055804513937,-0.31402081622948647,0.15962781504298038,0.1197680298413581
1728666501418852400,0.996852294921875,-0.5984416007995605,0.0030204737558960915,0.5898944735527039,0.3748209476470947,0.5463516712188721,-0.7490054368972778,0.04468894004821777,-0.07152867317199707,0.06251251697540283,0.9270270149570433,-0.3159382023467491,0.16025086670093502,0.12297845263377055
1728666501428882400,1.00688232421875,-0.7735326290130615,-0.05835643783211708,0.5849519371986389,0.37787574529647827,0.5493188500404358,-0.7452910542488098,0.02829796075820923,-0.09083801507949829,0.07483518123626709,0.9255792198687066,-0.3186627901440749,0.16065021014248052,0.12628830202441588
1728666501438912500,1.01691259765625,-0.8608773946762085,-0.13886059820652008,0.625898540019989,0.38045960664749146,0.5531641840934753,-0.7411206960678101,0.032595813274383545,-0.08537548780441284,0.09198129177093506,0.9239497389447673,-0.3219319240133395,0.1606221821225358,0.12991249620626974
1728666501448943400,1.026943359375,-0.8934869766235352,-0.11447957903146744,0.652786910533905,0.3830523192882538,0.5572006702423096,-0.7367485165596008,0.056843310594558716,-0.03446507453918457,0.07204514741897583,0.9222076251224084,-0.3253863357929816,0.1604664287102232,0.1338187622488883
1728666501458973400,1.036973388671875,-0.9840667247772217,-0.014064822345972061,0.6223198175430298,0.3861825168132782,0.5616094470024109,-0.7317498922348022,0.0444968044757843,0.0015466809272766113,0.06269776821136475,0.9202892977661291,-0.3291434910610172,0.16059148579125548,0.13763186491333884
1728666501469004300,1.04700439453125,-1.1927833557128906,0.04260207712650299,0.6094958782196045,0.3898162841796875,0.5671234130859375,-0.7255441546440125,0.00982666015625,-0.0137939453125,0.08566689491271973,0.9180442622006941,-0.33364953482371185,0.16095312027313763,0.1413041124370681
1728666501479034400,1.057034423828125,-1.5410518646240234,0.06373266130685806,0.6536194086074829,0.39381274580955505,0.5744988918304443,-0.7175392508506775,0.007844358682632446,-0.041494131088256836,0.12485742568969727,0.9152503277210848,-0.33943713399441183,0.16128483009118585,0.1452121032185269
1728666501489065500,1.0670654296875,-2.065716505050659,0.12509775161743164,0.6863475441932678,0.39841318130493164,0.5846188068389893,-0.7067444920539856,0.02231740951538086,-0.07673001289367676,0.17415177822113037,0.911590552697897,-0.34716891480905876,0.1615595503148973,0.1495826149987164
1728666501499095600,1.077095458984375,-2.6667368412017822,0.08705077320337296,0.691947877407074,0.4033709764480591,0.598548173904419,-0.6921213865280151,0.014826655387878418,-0.14794081449508667,0.22468364238739014,0.906757883905941,-0.35755930150818316,0.16152603652912464,0.15443728414413807
1728666501509126400,1.08712646484375,-3.1039185523986816,-0.0626814141869545,0.7348713874816895,0.407892107963562,0.6155071258544922,-0.6743701100349426,0.02896702289581299,-0.2080669403076172,0.17380553483963013,0.9008876464811134,-0.3701381881257828,0.16066324149052524,0.15995791215033497
1728666501519156500,1.097156494140625,-3.341790199279785,-0.2832697331905365,0.7630926370620728,0.4114294648170471,0.6339827179908752,-0.6548219323158264,0.07636350393295288,-0.20264726877212524,0.1630617380142212,0.894293427863363,-0.3839570688309389,0.15863795344440368,0.16628382984249748
1728666501529187300,1.107187255859375,-3.407181978225708,-0.3469226658344269,0.7514277100563049,0.4142516851425171,0.6527554392814636,-0.6342759132385254,0.08777773380279541,-0.12824982404708862,0.1515946388244629,0.8872554322211232,-0.39822559123651385,0.15581536989257064,0.17296179098192258
1728666501539217400,1.117217529296875,-3.2261857986450195,-0.339775025844574,0.7905980348587036,0.4171161949634552,0.6703704595565796,-0.6136916875839233,0.06686204671859741,-0.054434239864349365,0.11205905675888062,0.8800954534189315,-0.41205468105009935,0.15285646439775935,0.17966017300947879
1728666501549247500,1.12724755859375,-3.0333352088928223,-0.2465151697397232,0.8294863104820251,0.4208855628967285,0.6858909726142883,-0.5936404466629028,0.062116146087646484,0.0006324648857116699,0.04253876209259033,0.8730117625352806,-0.4249139433423621,0.15042581656079673,0.1862007008550664
1728666501559278600,1.137278564453125,-2.8872997760772705,-0.1382528692483902,0.8586934804916382,0.4256245493888855,0.6996414661407471,-0.5738863348960876,0.043415367603302,0.05272364616394043,0.05823087692260742,0.8659566188547264,-0.43700652142855817,0.14860054665756278,0.19251578271223685
1728666501569308400,1.147308349609375,-2.8777170181274414,-0.04529033228754997,0.8588061332702637,0.4312311112880707,0.7121606469154358,-0.5539556741714478,0.022076964378356934,0.055707335472106934,0.07687443494796753,0.8588033655061791,-0.44868749590123963,0.14731490791780644,0.19858145610513403
1728666501579339500,1.157339599609375,-3.1059587001800537,0.05521843209862709,0.7995550632476807,0.43726015090942383,0.7247750759124756,-0.5324515104293823,-0.003544330596923828,0.02694910764694214,0.13701999187469482,0.8511607475958796,-0.46086018645527704,0.1462263327957084,0.2043308784349202
1728666501589369600,1.16736962890625,-3.422745704650879,0.08153754472732544,0.7614864706993103,0.44338223338127136,0.7383827567100525,-0.5081368088722229,-0.022041290998458862,-0.01085895299911499,0.18033230304718018,0.8426339716940215,-0.47424708367114304,0.14498721746150073,0.20984833726663385
1728666501599400400,1.177400390625,-3.7756123542785645,0.06645606458187103,0.772791862487793,0.4495082199573517,0.7527721524238586,-0.48091214895248413,0.0010380446910858154,-0.05547600984573364,0.19969266653060913,0.8330760199336413,-0.4888781761481408,0.14332499269698015,0.21550050169564217
1728666501609430300,1.18743017578125,-3.9946694374084473,-0.0521991066634655,0.7253875732421875,0.4553017318248749,0.7676361203193665,-0.4510379135608673,0.029347926378250122,-0.07395631074905396,0.2337833046913147,0.8225050662246373,-0.504586698021668,0.14097271764315522,0.2213694714398734
1728666501619461600,1.197461669921875,-3.917189121246338,-0.20119604468345642,0.7722445726394653,0.46055155992507935,0.7815762758255005,-0.420750230550766,0.049336135387420654,-0.03398716449737549,0.15126478672027588,0.8115536103116507,-0.5201942632042507,0.1379232080373956,0.22749905420643585
1728666501629491500,1.207491455078125,-3.5611627101898193,-0.3127923905849457,0.7877082228660583,0.4656841456890106,0.7932797074317932,-0.392231285572052,0.11517214775085449,0.045999348163604736,0.04585680365562439,0.8008602287957999,-0.5345799347811746,0.13456839815826854,0.2339623915330458
1728666501639521300,1.217521240234375,-3.1919684410095215,-0.23895439505577087,0.7676455974578857,0.4708470404148102,0.8024131655693054,-0.366655170917511,0.10576730966567993,0.09268254041671753,0.006761401891708374,0.7910027926160806,-0.5471429413365765,0.13155611998320532,0.24008764021861462
1728666501649552400,1.227552490234375,-2.9532909393310547,-0.1183704063296318,0.7516668438911438,0.4763939380645752,0.809692919254303,-0.3427041471004486,0.0704658031463623,0.10482734441757202,0.008918166160583496,0.781685638186178,-0.5585206089227064,0.12923876467170894,0.24560038636068018
1728666501659582500,1.23758251953125,-2.927522659301758,-0.07286763191223145,0.7617993950843811,0.4822508692741394,0.8157729506492615,-0.3192938268184662,0.045031845569610596,0.06223297119140625,0.022403597831726074,0.7725352424206144,-0.5693196742261664,0.12738992308917865,0.25067151975166885
1728666501669613300,1.24761328125,-3.1581883430480957,-0.10235089808702469,0.7888627052307129,0.48837828636169434,0.8213365077972412,-0.2947765290737152,0.03367072343826294,-0.015748679637908936,0.03804740309715271,0.7628487470550832,-0.5804077543378401,0.1254534814659334,0.25583240934634366
1728666501679643400,1.257643310546875,-3.6435024738311768,-0.2307211309671402,0.599077582359314,0.4940515160560608,0.8271665573120117,-0.26778465509414673,0.03269714117050171,-0.07391643524169922,0.05695396661758423,0.7521290064649353,-0.5924923790538036,0.12272101129210963,0.2611404388823347
1728666501689674500,1.267674560546875,-3.5789177417755127,-0.16834424436092377,0.5387735366821289,0.49803030490875244,0.8337980508804321,-0.23821593821048737,-0.02821218967437744,-0.11790138483047485,0.11364316940307617,0.740460459159586,-0.6056587149711187,0.11861514961122936,0.2661322554846928
1728666501699704300,1.277704345703125,-3.8114700317382812,-0.3058193027973175,0.5348280668258667,0.5021474361419678,0.8392407894134521,-0.2086217850446701,0.046345055103302,-0.1644512414932251,-0.04427739977836609,0.7286163295536591,-0.6185189320639102,0.11455756830591074,0.2709782863785129
1728666501709735400,1.2877353515625,-3.816699981689453,-0.3289385437965393,0.5366182327270508,0.5059526562690735,0.8440837264060974,-0.17757965624332428,0.08415049314498901,-0.07833671569824219,0.11698698997497559,0.7159381422466631,-0.6318020172191798,0.10971045184129251,0.27608402577542757
1728666501719765500,1.297765625,-3.67018461227417,-0.5405932664871216,0.5087242722511292,0.5097936391830444,0.8474626541137695,-0.14804576337337494,0.11903631687164307,0.025446832180023193,0.023656129837036133,0.7034628663828559,-0.6442195461115722,0.10468187199784536,0.2813590801935322
1728666501729796400,1.30779638671875,-3.3135006427764893,-0.639149010181427,0.47615885734558105,0.5131357908248901,0.8496919274330139,-0.12130632251501083,0.12401020526885986,0.09650552272796631,0.03904617577791214,0.6916591944897683,-0.6553698846166681,0.09918242481938405,0.28681123351910054
1728666501739826400,1.317826416015625,-3.029231309890747,-0.6824398040771484,0.4710162878036499,0.5164275765419006,0.8507324457168579,-0.09775951504707336,0.09030765295028687,0.1476501226425171,0.011425256729125977,0.6808228439401739,-0.6650635169622537,0.09386566130209574,0.2921644423478087
1728666501749856500,1.3278564453125,-2.814183235168457,-0.6070810556411743,0.4704924523830414,0.5198829770088196,0.8508298993110657,-0.07622405141592026,0.04266279935836792,0.16038525104522705,0.0001742243766784668,0.6706263628556731,-0.6737789233104767,0.0889378334596328,0.2972746923061028
1728666501759887400,1.337887451171875,-2.6504945755004883,-0.49588561058044434,0.4825776219367981,0.5236021280288696,0.8501352667808533,-0.05577509105205536,-0.01867353916168213,0.13459068536758423,-0.03832584619522095,0.660862345122183,-0.681870704957539,0.08464512102310916,0.3019081235407831
1728666501769917400,1.34791748046875,-2.4720687866210938,-0.44392144680023193,0.44186508655548096,0.5273579955101013,0.8488630056381226,-0.03640168160200119,-0.04714864492416382,0.07609421014785767,-0.024663984775543213,0.6515279330875565,-0.6893998557655238,0.08078983664273887,0.3061244700919348
1728666501779948500,1.357948486328125,-2.2856040000915527,-0.41951224207878113,0.4235806167125702,0.5309296250343323,0.8472157120704651,-0.018419940024614334,-0.048111021518707275,0.03382670879364014,-0.06397753953933716,0.6427570373613652,-0.6962935422204011,0.07723556860590491,0.3099570643099505
1728666501789978600,1.367978515625,-2.1755993366241455,-0.427050918340683,0.3565176725387573,0.5342926979064941,0.8452975749969482,-0.0017853002063930035,-0.013922274112701416,-0.004324793815612793,-0.0981292724609375,0.6344797342059777,-0.702609691364363,0.07380360076070913,0.31357305119323103
1728666501800009500,1.378009521484375,-2.1954259872436523,-0.44353801012039185,0.25258517265319824,0.5368683338165283,0.8435434699058533,0.014371732249855995,-0.005069077014923096,-0.009238779544830322,-0.08204448223114014,0.6264407038683705,-0.7087156767250191,0.07005680383253843,0.31683756056203266
1728666501810039600,1.38803955078125,-2.090710401535034,-0.5041091442108154,0.28706005215644836,0.5392213463783264,0.8416284918785095,0.030030837282538414,0.010278165340423584,0.012939989566802979,-0.04303133487701416,0.6184896154152292,-0.7145956915393427,0.06609399566411733,0.3200862183191226
1728666501820070400,1.3980703125,-1.9443321228027344,-0.5144035816192627,0.34736332297325134,0.5421037077903748,0.8391446471214294,0.04426882416009903,0.057292044162750244,0.03718280792236328,-0.06418156623840332,0.6108726905977028,-0.7198899313494739,0.06239309846087273,0.32357393577086474
1728666501830100500,1.4081005859375,-1.7836869955062866,-0.46115753054618835,0.3982989490032196,0.5454950332641602,0.8361506462097168,0.05733456835150719,0.05074208974838257,0.07690471410751343,-0.0651928186416626,0.6036378005294182,-0.7246791330852812,0.05922363338851322,0.3270383755348114
1728666501840130300,1.41813037109375,-1.536705732345581,-0.42848798632621765,0.33242833614349365,0.5488671064376831,0.8330979347229004,0.0685039609670639,0.029395222663879395,0.06965780258178711,-0.0632854700088501,0.5972145009461755,-0.7287377177394244,0.05650945560120591,0.3302769781920415
1728666501850161400,1.428161376953125,-1.5983362197875977,-0.3668733239173889,0.3073674440383911,0.5518056154251099,0.8301941156387329,0.07929956912994385,-0.0018483400344848633,0.08067935705184937,-0.07051049917936325,0.5910989561749579,-0.7326275463413147,0.05391346077391309,0.333095079202231
1728666501860191200,1.438191162109375,-1.7115684747695923,-0.3676653504371643,0.3742564618587494,0.5549476742744446,0.8268824219703674,0.09109718352556229,0.006652116775512695,0.07474422454833984,0.011045105755329132,0.5844991012092949,-0.7368281660254058,0.05131124431638556,0.33587541940151705
1728666501870222300,1.448222412109375,-2.080392837524414,-0.3980315029621124,0.3331308662891388,0.5584057569503784,0.8229861855506897,0.10429266840219498,0.03313183784484863,-0.020678997039794922,0.011002793908119202,0.5770815666732402,-0.7414867544168389,0.04841205220359399,0.33886669315867474
1728666501880252400,1.45825244140625,-2.2813937664031982,-0.3544808328151703,0.21752731502056122,0.561065673828125,0.8189670443534851,0.12040873616933823,0.028427064418792725,-0.04407995939254761,0.008543252944946289,0.5684373955605246,-0.7471406547279535,0.04455568660497586,0.34157655747685955
1728666501890283300,1.468283203125,-2.1430625915527344,-0.2390546351671219,0.11158756911754608,0.5629183650016785,0.8150835037231445,0.1369745284318924,0.03644692897796631,0.007105886936187744,-0.06667731702327728,0.5598265504812844,-0.7528882679705897,0.040577292153939994,0.3436671035695854
1728666501900313300,1.478313232421875,-1.4729365110397339,-0.2019117921590805,0.11495114117860794,0.5639722347259521,0.8119636178016663,0.1505008041858673,0.014488518238067627,0.12855768203735352,-0.03209255635738373,0.5528580345204789,-0.7575408305029349,0.03717919590547134,0.34510521329927457
1728666501910344400,1.488344482421875,-0.7277439832687378,-0.13119341433048248,0.269155889749527,0.5658907294273376,0.8091030716896057,0.15849246084690094,0.028896868228912354,0.233514666557312,-0.06449830532073975,0.5483476357293877,-0.7602500221112192,0.03558280185356558,0.34650920279327885
1728666501920374300,1.498374267578125,-0.021531766280531883,0.09230491518974304,0.25266772508621216,0.5680773258209229,0.806967556476593,0.16152793169021606,-0.010902702808380127,0.29662424325942993,-0.020903006196022034,0.5463932774621953,-0.7612355847182297,0.03583780727995465,0.34740510092161137
1728666501930405400,1.5084052734375,0.8905396461486816,0.34328413009643555,0.2581660747528076,0.5698305368423462,0.8061623573303223,0.1593591719865799,-0.11008322238922119,0.33539336919784546,-0.014400720596313477,0.5475071486464067,-0.7604101387031563,0.03815767953891181,0.3472121911563139
1728666501940435500,1.518435546875,1.7385835647583008,0.5742859840393066,0.21407239139080048,0.5711050629615784,0.806847095489502,0.15111854672431946,-0.12992769479751587,0.37113142013549805,-0.12183690071105957,0.552100394813132,-0.7574538766824912,0.0426953936241664,0.3458697402956534
1728666501950465500,1.528465576171875,1.6615103483200073,0.7900648713111877,0.12194114178419113,0.5714462399482727,0.8084699511528015,0.14080247282981873,-0.11711585521697998,0.37161415815353394,-0.1443425565958023,0.5583326278975269,-0.7537030801748281,0.04830015790330266,0.3433123314517579
1728666501960496400,1.538496337890625,1.040378451347351,0.834712564945221,0.15239810943603516,0.5713782906532288,0.8095738291740417,0.13460037112236023,-0.08208990097045898,0.22211873531341553,0.13325239717960358,0.5629844082679795,-0.751295255796523,0.05343801651909432,0.34021828779725305
1728666501970526500,1.5485263671875,0.29720547795295715,0.6398124098777771,0.15857158601284027,0.5717904567718506,0.809458315372467,0.1335398405790329,0.027483224868774414,-0.07187896966934204,0.19046533107757568,0.5649516052286859,-0.7506566208542967,0.05731104639944058,0.33772735465334736
1728666501980557600,1.5585576171875,-0.29581284523010254,0.5270687937736511,-0.12173596769571304,0.5712407231330872,0.8092691898345947,0.13699527084827423,0.09585833549499512,-0.25290316343307495,0.03153802454471588,0.5646597961444648,-0.7516752346415492,0.059008278964779164,0.3356512721342108
1728666501990587400,1.56858740234375,-0.2731066644191742,0.4185624122619629,-0.31401780247688293,0.5687738060951233,0.8100809454917908,0.1423555612564087,0.06991332769393921,-0.18805646896362305,-0.06447470188140869,0.563664897125094,-0.7534585253674535,0.0589748313763811,0.3333227546854736
1728666502000618500,1.578618408203125,-0.1397414207458496,0.4657086133956909,-0.3036029636859894,0.565513551235199,0.8116404414176941,0.14640429615974426,0.08359527587890625,-0.022227048873901367,-0.18928147852420807,0.5632928701659093,-0.7548342640897,0.058543875721095914,0.33090632960311755
1728666502010648600,1.588648681640625,0.11411674320697784,0.553413450717926,-0.04745481163263321,0.5633493065834045,0.8125821948051453,0.14949099719524384,0.054677367210388184,0.17911690473556519,-0.091477170586586,0.5633122510379049,-0.7558018652199806,0.05923716505993571,0.328532710404291
1728666502020679400,1.598679443359375,0.39933329820632935,0.7151999473571777,0.04043349623680115,0.5625278949737549,0.8128883242607117,0.15091387927532196,0.011370420455932617,0.18776774406433105,-0.10292494297027588,0.5640993972715695,-0.7560890563102368,0.0615327308632805,0.3260903814745164
1728666502030709500,1.60870947265625,0.31913334131240845,0.8316986560821533,-0.08043193817138672,0.5612183213233948,0.8135419487953186,0.1522606462240219,-0.08702099323272705,0.05323338508605957,-0.1224755197763443,0.5652923371149161,-0.7563053258628661,0.06428510882798426,0.32297708665992153
1728666502040739600,1.618739501953125,0.16554272174835205,0.8543083667755127,-0.22680380940437317,0.5587403178215027,0.8147430419921875,0.15492913126945496,-0.10538643598556519,-0.08767706155776978,-0.13153743743896484,0.5662223562970585,-0.7569895290604414,0.06656890979220759,0.31926114950728546
1728666502050770000,1.62877001953125,-0.215322345495224,0.8919475078582764,-0.24041175842285156,0.5552327632904053,0.8160969018936157,0.16032059490680695,-0.0553547739982605,-0.18354374170303345,-0.13822589814662933,0.566077418857052,-0.7586502191122253,0.06789800277527736,0.3152715927190469
1728666502060800000,1.638800048828125,-0.17823195457458496,0.8258821964263916,-0.17271952331066132,0.5523834228515625,0.816773533821106,0.16659396886825562,0.0737457275390625,-0.26658737659454346,-0.1779160499572754,0.5653734623849529,-0.7605781961755936,0.0694103388383915,0.311537925939787
1728666502070831000,1.6488310546875,-0.49716874957084656,0.7640396356582642,-0.23864048719406128,0.5492679476737976,0.8173941373825073,0.1737002432346344,0.12735259532928467,-0.27065640687942505,-0.09052453935146332,0.564191362308943,-0.762819999647548,0.07039720463254023,0.3079579520328566
1728666502080861200,1.658861083984375,-0.5702200531959534,0.7170907855033875,-0.15468460321426392,0.5463439226150513,0.8175019025802612,0.18220576643943787,0.13190925121307373,-0.13708198070526123,0.019179701805114746,0.5621189588815214,-0.7655637299182678,0.07081709041757255,0.3048267815175535
1728666502090892000,1.66889208984375,-0.72173672914505,0.7588571906089783,-0.059416934847831726,0.5440537929534912,0.816913366317749,0.19146302342414856,0.1772138476371765,-0.08316397666931152,-0.14980649948120117,0.5595939182613037,-0.76851292977981,0.07154989454492529,0.3018661314699561
1728666502100922000,1.678922119140625,-0.6093364357948303,0.8152086138725281,0.013132366351783276,0.5423880815505981,0.8156200647354126,0.20144331455230713,0.1580209732055664,-0.15439558029174805,-0.12183816730976105,0.5566019139402056,-0.7716604514775082,0.07253831197507607,0.2991199919184996
1728666502110953200,1.688953125,-0.3117718994617462,0.7666279077529907,0.02992386370897293,0.5409520268440247,0.8145735263824463,0.20938125252723694,0.12498724460601807,-0.2757706046104431,-0.22248855233192444,0.5545728558971136,-0.7740674721422354,0.0742305377408967,0.29624002917853376
1728666502120983000,1.698983154296875,-0.4310538172721863,0.8887042999267578,0.0338810570538044,0.5394396781921387,0.81367027759552,0.21666951477527618,0.0942426323890686,-0.24120622873306274,-0.15316244959831238,0.5528773814660907,-0.7762331861345276,0.0761367101139028,0.2932437975415966
1728666502131012900,1.709012939453125,-0.7207883596420288,0.851228654384613,0.06297636032104492,0.5379453301429749,0.8120818734169006,0.22613731026649475,0.07620573043823242,-0.10077810287475586,0.023008257150650024,0.5501656684309064,-0.779107036286307,0.07785164249565997,0.29025710208210137
1728666502141044000,1.7190439453125,-0.6654878258705139,0.9506654739379883,0.0979820117354393,0.5365148782730103,0.80995774269104,0.23689642548561096,0.09666383266448975,-0.029303014278411865,0.04945001006126404,0.5468657880175107,-0.7823717958311561,0.07964037204081596,0.28720977971047
1728666502151074000,1.729073974609375,-0.5484045743942261,0.9192176461219788,0.18293523788452148,0.5353964567184448,0.8077196478843689,0.2468591183423996,0.1100044846534729,0.018406391143798828,0.05141972005367279,0.5439005565777218,-0.7853158046407566,0.08190631524691186,0.28415237179482256
1728666502161105000,1.73910498046875,-0.47535404562950134,0.8073840737342834,0.23097707331180573,0.5349608063697815,0.8052922487258911,0.2555810809135437,0.11976343393325806,0.04253196716308594,0.1244390606880188,0.541250094248407,-0.7878234172504406,0.08440855585298522,0.28152787264161616
1728666502171135000,1.749135009765625,-0.5707015991210938,0.7740254998207092,0.26557978987693787,0.5349119305610657,0.8026182651519775,0.26395663619041443,0.10758990049362183,-0.016363441944122314,0.061467528343200684,0.5385162181346841,-0.7902207945537599,0.08677222826669571,0.27932411436965116
1728666502181165800,1.759165771484375,-0.640235424041748,0.806477963924408,0.36392658948898315,0.5353179574012756,0.7992664575576782,0.27314457297325134,0.07538461685180664,-0.11655765771865845,0.05546870827674866,0.5352836241586105,-0.792842147617467,0.08929512996315639,0.277307112088665
1728666502191196000,1.76919580078125,-0.7064499258995056,0.7674161195755005,0.4116339385509491,0.5362532138824463,0.7953177690505981,0.28266972303390503,0.05261397361755371,-0.21760481595993042,0.060225725173950195,0.5317620889932254,-0.7955215865762398,0.09208833896413857,0.27548908507204994
1728666502201227000,1.77922705078125,-1.197627067565918,0.6581828594207764,0.4320792853832245,0.5375484824180603,0.7903221845626831,0.29399436712265015,0.03242838382720947,-0.23438334465026855,0.09405186772346497,0.5270854451980297,-0.7988055372899774,0.09437635986581248,0.27419670019634185
1728666502211257000,1.789257080078125,-1.307945728302002,0.5460711121559143,0.459946870803833,0.5393025875091553,0.7839674353599548,0.30748653411865234,0.033436119556427,-0.16636788845062256,0.14440253376960754,0.520958787748422,-0.8028285174335048,0.09596684906447968,0.2736032821813955
1728666502221287000,1.799286865234375,-0.9608012437820435,0.5553730130195618,0.4913109242916107,0.5413413047790527,0.7777751088142395,0.3193987011909485,0.03483062982559204,-0.10350441932678223,-0.016176074743270874,0.5154171952482812,-0.8063172263642675,0.09773371265223338,0.2732138142899739
1728666502231318000,1.809318115234375,-0.6662583947181702,0.6565080285072327,0.5252230763435364,0.5433655381202698,0.7723658084869385,0.3289453387260437,0.013702392578125,0.013736546039581299,-0.08602544665336609,0.511154097633753,-0.8089618685627491,0.1002664817344696,0.27248643393040045
1728666502241348000,1.81934814453125,-0.5218088030815125,0.6758108735084534,0.4935080409049988,0.5450887680053711,0.767595112323761,0.3371586203575134,-0.012679100036621094,0.16181766986846924,0.020812511444091797,0.5077214138200541,-0.8111189388301749,0.10327329897365943,0.271366268392081
1728666502251379000,1.82937890625,-0.3969741463661194,0.6849185228347778,0.3885917365550995,0.546194851398468,0.763559103012085,0.3444538116455078,-0.024802088737487793,0.2534847855567932,0.0572642982006073,0.5048650070753391,-0.8129880012312534,0.10619521006381369,0.26997100885654846
1728666502261409000,1.839408935546875,-0.1719098836183548,0.6498835682868958,0.2559269070625305,0.5463331937789917,0.7607730627059937,0.35034844279289246,-0.032615602016448975,0.22906440496444702,0.05771729350090027,0.5028857432149706,-0.8144505106053668,0.1088328311945351,0.2682005902553228
1728666502271440100,1.849440185546875,-0.026074454188346863,0.6131749153137207,0.15544264018535614,0.5456658005714417,0.759316086769104,0.3545253872871399,-0.0331382155418396,0.13480329513549805,0.070660799741745,0.5018724415753741,-0.8154230444026782,0.11112134730608594,0.266198213729139
1728666502281470000,1.859469970703125,0.010742416605353355,0.6394089460372925,0.13007496297359467,0.5445126891136169,0.7585286498069763,0.35796740651130676,-0.021471798419952393,0.06695669889450073,0.07266625761985779,0.5013185875193089,-0.8161824484614908,0.11326919128354904,0.26400027009927857
1728666502291501000,1.8695009765625,-0.09923361986875534,0.6043483018875122,0.12663708627223969,0.5432412624359131,0.7576849460601807,0.3616654574871063,-0.020597338676452637,0.046178340911865234,0.13221564888954163,0.5006449777427289,-0.8170227344452209,0.11535411966433129,0.2617664987718205
1728666502301531100,1.87953125,-0.2630515694618225,0.5756548643112183,0.06266103684902191,0.5419067144393921,0.7564389705657959,0.36624765396118164,-0.022970497608184814,0.05122405290603638,0.20232537388801575,0.4994023166655462,-0.8181921487970413,0.11698474838303663,0.25975672861324034
1728666502311562000,1.88956201171875,-0.2591995894908905,0.5744718909263611,-0.059236105531454086,0.5397868752479553,0.7554271221160889,0.3714292645454407,-0.016456246376037598,0.023747563362121582,0.14038094878196716,0.49795472560547527,-0.819613197321935,0.11810521373772623,0.2575390433062175
1728666502321592000,1.899592041015625,-0.39336511492729187,0.5637825131416321,-0.12058494985103607,0.5369619727134705,0.7547316551208496,0.37689727544784546,0.011316776275634766,-0.019151389598846436,0.07503741979598999,0.4964315884677128,-0.8211878389292318,0.1187399347829361,0.2551605487452783
1728666502331622100,1.9096220703125,-0.31031617522239685,0.5548045635223389,-0.09769614785909653,0.5339542627334595,0.7539448738098145,0.3827005624771118,0.07485610246658325,-0.021889328956604004,0.06087237596511841,0.49472493380512134,-0.8228867389343723,0.11919602776364788,0.25277825868363585
1728666502341653000,1.919653076171875,-0.19241802394390106,0.4724511504173279,0.04941527545452118,0.5317988991737366,0.7530938386917114,0.387349396944046,0.13913005590438843,0.0180700421333313,-0.06415295600891113,0.49340705999610834,-0.824172150051653,0.12006236528284504,0.2507483713871679
1728666502351682800,1.929682861328125,0.10614170879125595,0.4656519293785095,0.15852443873882294,0.5308093428611755,0.7523244619369507,0.3901917636394501,0.15347111225128174,0.05324810743331909,-0.050973594188690186,0.492795633875057,-0.8248050459361145,0.12162447978749265,0.24911177804754733
1728666502361714000,1.9397138671875,0.1841592788696289,0.3853994309902191,0.2108563631772995,0.5305539965629578,0.7519468069076538,0.3912649154663086,0.09943556785583496,0.04387521743774414,-0.01945406198501587,0.4929512836902447,-0.8248308812512497,0.12363850175973046,0.24772257111199955
1728666502371744000,1.949743896484375,0.16072845458984375,0.3792140781879425,0.2243276983499527,0.5307786464691162,0.751384973526001,0.3920384347438812,0.04508793354034424,0.0523715615272522,0.04230290651321411,0.4931198879975466,-0.8247481000180237,0.12573700082035408,0.24660365736043463
1728666502381774800,1.95977490234375,0.2528751790523529,0.3554363250732422,0.21558798849582672,0.5309916734695435,0.7510145306587219,0.392460435628891,-0.011292517185211182,0.014931023120880127,0.061427533626556396,0.49346073401947504,-0.8245558747078698,0.12781949762927525,0.245492084045125
1728666502391805000,1.969804931640625,0.14801611006259918,0.2519987225532532,0.24336528778076172,0.531525731086731,0.7506107091903687,0.39250919222831726,-0.04922604560852051,-0.0072789788246154785,0.07251754403114319,0.4938516943811174,-0.824260571689543,0.1298041279367183,0.2446542635963872
1728666502401836000,1.9798359375,0.0080949692055583,0.16934697329998016,0.21939365565776825,0.5325113534927368,0.7495842576026917,0.39313435554504395,-0.07178759574890137,0.03340506553649902,0.09870213270187378,0.49368588451005174,-0.8241998594102393,0.13138408033411922,0.24434996906770023
1728666502411865900,1.989865966796875,0.0671008974313736,0.1710575819015503,0.11064108461141586,0.5331197381019592,0.7487955093383789,0.3938126266002655,-0.130226731300354,0.02552694082260132,0.033128201961517334,0.4934876112606806,-0.824221702603153,0.13253265031758701,0.24405646449686827
1728666502421896000,1.99989599609375,0.11874730885028839,0.18473796546459198,0.03553061932325363,0.5329525470733643,0.7488124966621399,0.3940069377422333,-0.18808859586715698,-0.008074581623077393,-0.01926630735397339,0.4936981178597632,-0.8241423276901947,0.1333899759415657,0.24343113117251466
1728666502431927000,2.009927001953125,0.0032988155726343393,0.1533544808626175,0.008207383565604687,0.5324828624725342,0.7489151358604431,0.39444658160209656,-0.19732356071472168,-0.01363992691040039,-0.023734331130981445,0.4938084448674577,-0.8241773910599006,0.13399596843384212,0.24275489299952493
1728666502441957000,2.01995703125,-0.08373542129993439,0.11764813959598541,-0.06310328096151352,0.5317568182945251,0.7488667368888855,0.3955163061618805,-0.18262052536010742,-0.04944974184036255,-0.0855492651462555,0.4935594504126855,-0.8244720601063481,0.13417888510581003,0.24215878978746644
1728666502451988000,2.029988037109375,-0.19456452131271362,-0.0055445721372962,-0.11154457926750183,0.530829668045044,0.7488136291503906,0.39686012268066406,-0.15528035163879395,-0.1060829758644104,-0.12796974182128906,0.49306850538958075,-0.8249427036346979,0.13378937998013163,0.24177135566505117
1728666502462018000,2.04001806640625,-0.2830802798271179,-0.08476722240447998,-0.09598666429519653,0.5302501320838928,0.7483851313591003,0.39844000339508057,-0.10840564966201782,-0.09027355909347534,-0.058077454566955566,0.49220473330391,-0.8255618894119046,0.13291942575838891,0.24189767679110016
1728666502472049000,2.050048828125,-0.2211417406797409,-0.10694926977157593,-0.06206944212317467,0.530048131942749,0.7477338910102844,0.3999287784099579,-0.06970572471618652,-0.0385359525680542,-0.04159140586853027,0.4912633843607938,-0.8261524194359088,0.13204759874264177,0.24227239443755544
1728666502482079000,2.060078857421875,-0.04048062488436699,-0.18870459496974945,-0.023914601653814316,0.5303216576576233,0.7474011778831482,0.4001879394054413,-0.06028991937637329,0.0008593201637268066,-0.022532939910888672,0.490839600671116,-0.8263416618728375,0.13135231574624426,0.24286310208414152
1728666502492110000,2.070110107421875,0.10016151517629623,-0.2701721787452698,0.012110245414078236,0.5312271118164062,0.7475632429122925,0.39868155121803284,-0.07042694091796875,0.01662743091583252,0.02845776081085205,0.49114886860598456,-0.8259700082177789,0.13082174245380526,0.2437868358355198
1728666502502140200,2.08014013671875,0.08022056519985199,-0.2981164753437042,0.01292330864816904,0.5325133204460144,0.7478386759757996,0.3964427709579468,-0.0944487452507019,0.02372199296951294,0.06898081302642822,0.49170383278058133,-0.8253736080300542,0.13030652529253614,0.24496112495977085
1728666502512170000,2.090169921875,0.03812037780880928,-0.31000566482543945,-0.04481428861618042,0.5336217880249023,0.74814772605896,0.39436379075050354,-0.12686824798583984,0.0014097094535827637,0.11355555057525635,0.4921692601166325,-0.8248579065515151,0.12958137580964577,0.24614533804708053
1728666502522201000,2.100201171875,-0.06438842415809631,-0.32329511642456055,-0.10259902477264404,0.5343167185783386,0.7484946250915527,0.39276134967803955,-0.13424652814865112,-0.03824383020401001,0.08909595012664795,0.4924148874452148,-0.8245443403815612,0.12848074257157852,0.24727903885045113
1728666502532231200,2.110231201171875,-0.10735579580068588,-0.35594233870506287,-0.11863631755113602,0.5347996950149536,0.7487109303474426,0.3916902542114258,-0.09740650653839111,-0.06035643815994263,0.05523967742919922,0.49236698370923343,-0.8244383966548965,0.12706870928229072,0.24845447393944436
1728666502542262000,2.120261962890625,-0.08285071700811386,-0.4298596978187561,-0.10110072791576385,0.5355432033538818,0.7489312887191772,0.39024996757507324,-0.04944401979446411,-0.0740199089050293,0.03745383024215698,0.492372011095392,-0.8242386825417005,0.1255212340750357,0.24988932205952472
1728666502552292000,2.1302919921875,-0.08837258815765381,-0.47743353247642517,-0.08600806444883347,0.536643385887146,0.7490829229354858,0.38844385743141174,-0.0068277716636657715,-0.061491429805755615,0.04426488280296326,0.4924150351934848,-0.8239346739907158,0.1239095718540754,0.2516058292228709
1728666502562323200,2.1403232421875,-0.05732118710875511,-0.4687995910644531,-0.09445401281118393,0.5378407835960388,0.749245285987854,0.3864690661430359,0.03399747610092163,-0.05170518159866333,0.07578057050704956,0.49249964774654115,-0.823576849889217,0.12229350594398584,0.2533957475391532
1728666502572352800,2.150352783203125,-0.06942392885684967,-0.48563867807388306,-0.10359904170036316,0.5389466881752014,0.7495519518852234,0.38432878255844116,0.07496023178100586,-0.06760615110397339,0.13558393716812134,0.4926765255144936,-0.8231714783638329,0.1206362591544431,0.2551578687309047
1728666502582384000,2.160384033203125,-0.24129635095596313,-0.5106630921363831,-0.07957679778337479,0.540166437625885,0.7494837641716003,0.3827457129955292,0.1308998465538025,-0.07666277885437012,0.19985008239746094,0.4924844250969149,-0.8229525423490385,0.11883586412412137,0.25707241813358317
1728666502592414000,2.1704140625,-0.42790576815605164,-0.5692776441574097,-0.006983287166804075,0.5419125556945801,0.748407244682312,0.3823840618133545,0.1899142861366272,-0.09108912944793701,0.24022036790847778,0.491451753282006,-0.8231210473766919,0.11689214829529113,0.25939007353830357
1728666502602444000,2.180444091796875,-0.5353222489356995,-0.6334004402160645,0.0750758945941925,0.5444890856742859,0.746327817440033,0.38278746604919434,0.22997069358825684,-0.1268211007118225,0.16884824633598328,0.48972806313685247,-0.8235210576277214,0.11492087696574217,0.2622453398171003
1728666502612475000,2.190474853515625,-0.5064104795455933,-0.7108033895492554,0.1575515866279602,0.547970175743103,0.7436277270317078,0.3830747604370117,0.2273440957069397,-0.15355521440505981,0.061413735151290894,0.4877545400874602,-0.823866383674061,0.1130555991957971,0.26562766555337947
1728666502622505000,2.2005048828125,-0.4033389985561371,-0.6900272369384766,0.2192775458097458,0.552146315574646,0.7407915592193604,0.3825729191303253,0.17752891778945923,-0.1372150182723999,-0.033207714557647705,0.48599847186402145,-0.8239241405334079,0.11151445152091953,0.2692933758014702
1728666502632535800,2.210535888671875,-0.27411752939224243,-0.5991700291633606,0.21726445853710175,0.5563158392906189,0.7382190227508545,0.38150396943092346,0.0999189019203186,-0.08549386262893677,-0.10325992107391357,0.48463978982315953,-0.8237478945327392,0.11041464945791672,0.27271278321366904
1728666502642566000,2.22056591796875,-0.08743634074926376,-0.4551822543144226,0.14233028888702393,0.5597158074378967,0.7364722490310669,0.37990403175354004,0.024604320526123047,-0.04025942087173462,-0.13197916746139526,0.4839074989374646,-0.823367818737047,0.10962412473458952,0.27546615346880515
1728666502652597000,2.230596923828125,0.07950690388679504,-0.3453877866268158,0.05700422078371048,0.5619497299194336,0.7359069585800171,0.37769490480422974,-0.015074729919433594,-0.01723325252532959,-0.1489351987838745,0.48397561548749696,-0.8227714577821859,0.10906228567399351,0.27734479259834527
1728666502662627000,2.240626953125,0.1747966706752777,-0.29106247425079346,0.04014001786708832,0.5634905695915222,0.736134946346283,0.3749447166919708,-0.006148099899291992,-0.00577312707901001,-0.11176112294197083,0.484619948608263,-0.8219880455704198,0.10866468309131246,0.2786952900305875
1728666502672658000,2.250657958984375,0.2218032032251358,-0.249180406332016,0.06870188564062119,0.5648934841156006,0.736566960811615,0.3719736933708191,0.039201974868774414,-0.025721073150634766,-0.09789538383483887,0.48550658680020053,-0.8211023311108777,0.10852559431386165,0.2798151393823099
1728666502682688000,2.26068798828125,0.19857138395309448,-0.25564417243003845,0.11382781714200974,0.5665277242660522,0.7368295192718506,0.36895623803138733,0.08139103651046753,-0.06631255149841309,-0.057081788778305054,0.4863920589122668,-0.8201741940983059,0.10859288896992944,0.28097096655374
1728666502692719000,2.270718994140625,0.06035284698009491,-0.2877930998802185,0.1423792988061905,0.5684990286827087,0.7365844249725342,0.36640462279319763,0.10516130924224854,-0.0919920802116394,0.03744974732398987,0.48692124634529627,-0.8193841895537047,0.10868237001263828,0.28232147737270097
1728666502702749000,2.2807490234375,-0.2044186294078827,-0.37185975909233093,0.15133683383464813,0.5708231329917908,0.7354536056518555,0.36505958437919617,0.1169666051864624,-0.0846359133720398,0.12491530179977417,0.4865893923046993,-0.8190106897521598,0.1084033282181748,0.28407891643569805
1728666502712779000,2.290779052734375,-0.4346908926963806,-0.4661846458911896,0.14637351036071777,0.5734710097312927,0.7333883047103882,0.36506468057632446,0.118316650390625,-0.05824810266494751,0.15371879935264587,0.48526068117475046,-0.8191250428616857,0.10754766056534212,0.2863382706995563
1728666502722810000,2.30081005859375,-0.5780879855155945,-0.5114032626152039,0.14300620555877686,0.5763451457023621,0.7306607365608215,0.36600685119628906,0.10758417844772339,-0.03067910671234131,0.12141987681388855,0.48320007831959283,-0.8195867524626986,0.10621194736896386,0.28898828061910503
1728666502732840000,2.31083984375,-0.5655068755149841,-0.5330364108085632,0.16246218979358673,0.579389750957489,0.7276269793510437,0.36724182963371277,0.07507503032684326,-0.007503688335418701,0.07544615864753723,0.48085256808583027,-0.8201549963973626,0.10472201323157292,0.29182169222491866
1728666502742871000,2.32087109375,-0.42028573155403137,-0.5043085813522339,0.18945465981960297,0.5826142430305481,0.7247401475906372,0.3678478002548218,0.032833635807037354,0.014517486095428467,-0.009846150875091553,0.4788033640177292,-0.8204988519862051,0.10346756975425271,0.29465793764765824
1728666502752901000,2.330901123046875,-0.25131702423095703,-0.42224496603012085,0.21146541833877563,0.5858266949653625,0.7222833037376404,0.36757826805114746,-0.014232516288757324,0.04032033681869507,-0.12943437695503235,0.4773426767416444,-0.8205141393404257,0.10269215731898049,0.29724533821152394
1728666502762932000,2.340931884765625,-0.061373453587293625,-0.2518133223056793,0.1841224879026413,0.5885774493217468,0.720474362373352,0.36673346161842346,-0.06407177448272705,0.06205737590789795,-0.2080877721309662,0.47654715969855055,-0.8202826039502374,0.10248500546349192,0.2992258850465426
1728666502772962000,2.350962158203125,0.12416151911020279,-0.06502585113048553,0.10016420483589172,0.5901997685432434,0.7197310924530029,0.3655831217765808,-0.09785979986190796,0.06919395923614502,-0.21375826001167297,0.4765440069065732,-0.8198960714280908,0.1027715558872655,0.30019015383009506
1728666502782993200,2.3609931640625,0.1451038122177124,0.008014007471501827,0.02011384442448616,0.5907225012779236,0.7199113965034485,0.36438247561454773,-0.09977090358734131,0.07064646482467651,-0.11519119143486023,0.477068734009419,-0.8194781894565035,0.1031829805441361,0.3003568265196362
1728666502793023200,2.371023193359375,0.04047767445445061,0.015746867284178734,0.01782112941145897,0.5907767415046692,0.7201427817344666,0.36383703351020813,-0.06268525123596191,0.06943857669830322,-0.032309263944625854,0.4774050093974229,-0.8192807430081052,0.10342912476256147,0.3002765477622526
1728666502803052800,2.381052734375,-0.0049214973114430904,-0.02573399432003498,0.08927693963050842,0.5911782383918762,0.719872236251831,0.363720566034317,-0.02017897367477417,0.036750197410583496,-0.014751940965652466,0.4773736929495472,-0.8192180697494299,0.10364378996046589,0.30042342444949427
1728666502813084000,2.391083984375,-0.012369493022561073,-0.07522772252559662,0.17559051513671875,0.5923354625701904,0.7190204858779907,0.3635222315788269,-0.013539016246795654,-0.023814737796783447,-0.017544478178024292,0.4771468958492579,-0.8191025309339316,0.10407768884344644,0.30094814767523365
1728666502823114000,2.401114013671875,-0.10918471217155457,-0.09527839720249176,0.22230501472949982,0.5941416621208191,0.7175999283790588,0.36338135600090027,-0.03711956739425659,-0.05192005634307861,-0.034676551818847656,0.47665911045600323,-0.8189900426384686,0.1046230784664305,0.3018367543665134
1728666502833144800,2.411144775390625,-0.25699201226234436,-0.045142367482185364,0.19722071290016174,0.5959803462028503,0.7156100869178772,0.36429348587989807,-0.05942028760910034,-0.0377383828163147,-0.07927453517913818,0.47559087045345416,-0.8192137584566209,0.10505026333247829,0.3027649754169479
1728666502843175000,2.4211748046875,-0.25770387053489685,0.04009076952934265,0.13555441796779633,0.5971900820732117,0.7135992050170898,0.3662516474723816,-0.062308430671691895,-0.014533042907714844,-0.12829086184501648,0.47421361012985436,-0.8197746795262308,0.10533425601100077,0.303307864742945
1728666502853206000,2.4312060546875,-0.11992045491933823,0.0743236243724823,0.10316905379295349,0.5978180170059204,0.7121694684028625,0.36800602078437805,-0.032083094120025635,0.015171229839324951,-0.18169614672660828,0.47319977717805084,-0.8202663172867667,0.10567015030939969,0.30344524359663955
1728666502863235800,2.44123583984375,0.06965400278568268,0.05043826997280121,0.12482161074876785,0.5983713269233704,0.7113832235336304,0.3686269521713257,0.020036935806274414,0.05744612216949463,-0.2165273129940033,0.4728648532447668,-0.8203822898433948,0.10623734397976697,0.3034557829440706
1728666502873267000,2.451266845703125,0.33279934525489807,0.1525767296552658,0.17896446585655212,0.5991806387901306,0.7111822366714478,0.36769890785217285,0.05294954776763916,0.06982362270355225,-0.19496938586235046,0.4734023139213195,-0.8199512454390359,0.10737506447926018,0.3033823283024171
1728666502883297000,2.461297119140625,0.5434985160827637,0.30690106749534607,0.21087287366390228,0.5996757745742798,0.7116137742996216,0.3660525977611542,0.018167734146118164,0.04766345024108887,-0.013757765293121338,0.47478471297512015,-0.8191718104874041,0.10947073386772134,0.30257736411244923
1728666502893327000,2.4713271484375,0.38719114661216736,0.2773069739341736,0.1732136458158493,0.600009024143219,0.7122148275375366,0.3643335998058319,-0.09067070484161377,0.03578615188598633,0.4043888747692108,0.476345380750056,-0.8183363467667646,0.11176951073117972,0.3015430298158579
1728666502903358000,2.48135791015625,-0.1449369341135025,0.02551683411002159,0.014623471535742283,0.6002432107925415,0.7120776176452637,0.3642166256904602,-0.14476829767227173,0.0675092339515686,0.3680984079837799,0.47664725602948704,-0.818172963072655,0.11270008653338114,0.30116298747395187
1728666502913388000,2.491387939453125,-0.418647825717926,0.37131524085998535,-0.17639629542827606,0.5989583730697632,0.7113842964172363,0.3676695227622986,-0.043401241302490234,0.06777513027191162,-0.34198909997940063,0.4753369775027372,-0.8192778310210984,0.1123325615614545,0.3003662000956379
1728666502923419000,2.5014189453125,0.11243442445993423,0.6304363012313843,-0.22064204514026642,0.595842182636261,0.7119517922401428,0.3716133236885071,0.08971989154815674,-0.0596843957901001,-0.5171517133712769,0.474647544853663,-0.8204919225394525,0.11224821312049353,0.29816593209394554
1728666502933449000,2.511448974609375,0.5644145011901855,0.7014610767364502,-0.01361216139048338,0.5920634269714355,0.7141363024711609,0.3734569847583771,0.21064037084579468,-0.13971930742263794,-0.23544123768806458,0.4759442850060262,-0.8208058761024358,0.11404473695597794,0.2945310108972186
1728666502943480000,2.52147998046875,0.35587218403816223,0.22543011605739594,0.30704545974731445,0.5916181802749634,0.7150047421455383,0.37249937653541565,0.25655674934387207,-0.054100990295410156,0.34974485635757446,0.47747959530234724,-0.8201714458618052,0.11648383502256818,0.29285394743347815
1728666502953510100,2.53151025390625,-0.08678559958934784,-0.021346919238567352,0.3532097637653351,0.5936452150344849,0.7133626341819763,0.37242335081100464,0.22390544414520264,0.1065378189086914,0.4212777614593506,0.4773627274591867,-0.8198771413239392,0.11837717608782283,0.29310946299982504
1728666502963541000,2.541541015625,-0.05835795775055885,-0.040497977286577225,0.12748263776302338,0.5958396196365356,0.7114061117172241,0.37266120314598083,0.01890641450881958,0.0862470269203186,0.4146007001399994,0.47658220054863254,-0.8198512675436829,0.11905671450898794,0.29417468778865613
1728666502973571000,2.551571044921875,0.23092705011367798,0.428191214799881,-0.11747757345438004,0.5950188636779785,0.7117846608161926,0.37324944138526917,-0.15294122695922852,0.016654670238494873,0.11666452884674072,0.4768362334488501,-0.8199450562180618,0.11964459802916594,0.2932617759842369
1728666502983601200,2.56160107421875,0.3337610065937042,0.6176564693450928,-0.1355591118335724,0.5920348167419434,0.7136887311935425,0.37435680627822876,-0.20739126205444336,0.045817434787750244,0.08326947689056396,0.47792449051919367,-0.82010861185915,0.12083155786786234,0.2905335391376554
1728666502993632000,2.571632080078125,0.2642629146575928,0.6920557022094727,-0.09038097411394119,0.5887730717658997,0.7155004739761353,0.37603846192359924,-0.1558050513267517,0.11884993314743042,0.10287386178970337,0.47894119556383075,-0.820392565739302,0.12237350815936535,0.28739510942627006
1728666503003662000,2.581662109375,0.3488920331001282,0.6862422823905945,-0.04976430535316467,0.5856377482414246,0.7169951796531677,0.3780820667743683,-0.061528921127319336,0.08670037984848022,-0.17701703310012817,0.4797962175037113,-0.82074228431523,0.124189898885379,0.2841732672097558
1728666503013693200,2.591693115234375,0.4748067557811737,0.4843592345714569,-0.0002739857882261276,0.5831812620162964,0.7187577486038208,0.378532350063324,-0.014409959316253662,-0.08116936683654785,-0.15814974904060364,0.48120906028995414,-0.8205820059782594,0.12614018326492574,0.2813744710196491
1728666503023723000,2.601722900390625,0.17855753004550934,0.3016120493412018,0.09094168245792389,0.5820949077606201,0.7198196053504944,0.3781867027282715,0.018979310989379883,-0.20701754093170166,-0.13133001327514648,0.48234684534198885,-0.8202323913354502,0.12771913807321109,0.2797286831059525
1728666503033754000,2.611754150390625,-0.19248320162296295,0.30965232849121094,0.15957053005695343,0.5818555355072021,0.7189592123031616,0.3801862299442291,0.055244624614715576,-0.2097124457359314,-0.160261332988739,0.48186446707057773,-0.8206427098629694,0.12899093534888426,0.27877128187529177
1728666503043785000,2.621784912109375,-0.4064958989620209,0.16621285676956177,0.1303841471672058,0.5820519924163818,0.7168811559677124,0.3837929666042328,0.003198862075805664,-0.1383594274520874,0.08320224285125732,0.4802348790139977,-0.8216145960712274,0.12979192900387482,0.27834874529838316
1728666503053815800,2.63181591796875,-0.5888514518737793,0.12137475609779358,0.012091604061424732,0.5820754170417786,0.7144536972045898,0.3882579505443573,-0.06548905372619629,0.040474891662597656,0.2122669816017151,0.4779277304894945,-0.8229845516760291,0.1297127825370762,0.27830943233584815
1728666503063846000,2.641845947265625,-0.3503558039665222,0.21088306605815887,-0.10916078835725784,0.5811260342597961,0.7127473950386047,0.3927895128726959,-0.08880120515823364,0.2347623109817505,0.07660138607025146,0.4758044228035389,-0.8244417804063472,0.1291917537569077,0.2778764976626168
1728666503073875700,2.651875732421875,0.27672523260116577,0.37809619307518005,-0.17871589958667755,0.5788750052452087,0.7134405374526978,0.3948494493961334,-0.09152460098266602,0.2876427173614502,-0.03701558709144592,0.47563039496481835,-0.8250624246611836,0.1292158017480245,0.2763167279140982
1728666503083906600,2.661906494140625,0.6784665584564209,0.4885300099849701,-0.1325358897447586,0.576018214225769,0.7163617014884949,0.39373698830604553,-0.06780904531478882,0.24489617347717285,-0.04133525490760803,0.4776599742907273,-0.8245554100273668,0.13029530259206315,0.2738109049732301
1728666503093936600,2.6719365234375,0.646029531955719,0.4993142783641815,-0.05117311701178551,0.5733968615531921,0.7195457816123962,0.39175283908843994,-0.007341444492340088,0.1814553141593933,-0.007277041673660278,0.4802603284383032,-0.8236688558362459,0.13208343033480097,0.2710603697151279
1728666503103967700,2.6819677734375,0.39684709906578064,0.33610644936561584,-0.04583880677819252,0.5714403986930847,0.7218356132507324,0.3903957009315491,0.029038608074188232,0.04670369625091553,0.07951384782791138,0.48220203386992627,-0.8230021535467176,0.13366114084488778,0.2688553517278181
1728666503113997800,2.691997802734375,0.04646093398332596,0.18052080273628235,-0.10983483493328094,0.5699220895767212,0.7231272459030151,0.3902250826358795,0.05310946702957153,-0.10940361022949219,0.03335890173912048,0.4830494922646576,-0.8228519487062231,0.13426542926307114,0.26748943697485045
1728666503124028700,2.702028564453125,-0.2605746388435364,0.08905079960823059,-0.13991470634937286,0.5684813857078552,0.7233758568763733,0.3918631076812744,0.08860796689987183,-0.17556995153427124,-0.02928367257118225,0.48263225110672286,-0.823407460464507,0.1339093272766258,0.2667108714048334
1728666503134058800,2.712058837890625,-0.41507628560066223,-0.037816330790519714,-0.12490139901638031,0.5673956871032715,0.7227861881256104,0.39451518654823303,0.08804559707641602,-0.15247374773025513,0.08725059032440186,0.48137611863115254,-0.8243641582974128,0.1329711475423897,0.2664947356024821
1728666503144089600,2.722089599609375,-0.4279513359069824,-0.13209570944309235,-0.08798465877771378,0.5670135021209717,0.7216300964355469,0.3971719443798065,0.05243229866027832,-0.06335073709487915,0.1205892562866211,0.4797565301097434,-0.825368891671839,0.13172760650498772,0.26692254294805484
1728666503154119700,2.73211962890625,-0.1375555694103241,-0.03965114429593086,-0.08629675209522247,0.5667707324028015,0.7208988666534424,0.39884307980537415,0.005418598651885986,0.015841186046600342,-0.04439663887023926,0.4786783651005989,-0.8260280306245382,0.13076405680801775,0.2672929182252624
1728666503164149800,2.742149658203125,0.2365194857120514,0.08861494809389114,-0.13684594631195068,0.5658990144729614,0.7217274904251099,0.3985820412635803,-0.062404751777648926,0.03364354372024536,-0.1160503625869751,0.47902805872340565,-0.8260012745823949,0.13043354462736845,0.26691022073737625
1728666503174180900,2.752180908203125,0.42370495200157166,0.31574541330337524,-0.1943068504333496,0.5639013051986694,0.7240251898765564,0.39724400639533997,-0.09823364019393921,0.022770345211029053,-0.09981968998908997,0.4805314643206327,-0.8255555146443148,0.13069082096473839,0.2654571287842152
1728666503184210700,2.762210693359375,0.41639429330825806,0.394705206155777,-0.22041967511177063,0.560916543006897,0.726908266544342,0.3962036371231079,-0.0637698769569397,-0.004572391510009766,-0.040017664432525635,0.4823431014874264,-0.8251447456524413,0.13129344483502967,0.26314144564759173
1728666503194241800,2.77224169921875,0.2982226014137268,0.34139207005500793,-0.18749794363975525,0.5579206347465515,0.7294769287109375,0.39571210741996765,0.01765620708465576,-0.0564117431640625,0.09150105714797974,0.4838366575802591,-0.8249127773967463,0.13181413347328766,0.2608564232829301
1728666503204271900,2.78227197265625,0.27715325355529785,0.18388314545154572,-0.11927200853824615,0.5557487607002258,0.7314426898956299,0.3951396346092224,0.09960108995437622,-0.12684357166290283,0.13026627898216248,0.4850177143204154,-0.8246800078511395,0.13218437228053143,0.2592067305441969
1728666503214302700,2.792302734375,0.1995619386434555,0.02309362404048443,-0.016100086271762848,0.5548499822616577,0.7327879071235657,0.39390745759010315,0.1478782296180725,-0.18127435445785522,0.09020811319351196,0.4860531446875557,-0.8242590736030311,0.1324790670611471,0.25845406732331255
1728666503224332800,2.802332763671875,0.04209001734852791,-0.07930438220500946,0.06919563561677933,0.5552029609680176,0.7330771088600159,0.39287084341049194,0.13707298040390015,-0.19123756885528564,0.1068238914012909,0.4865175473847485,-0.82391206864659,0.13268127187738812,0.2585830753874874
1728666503234364000,2.812364013671875,-0.046843647956848145,-0.06901393085718155,0.06945396214723587,0.5560933947563171,0.732620120048523,0.39246422052383423,0.07754313945770264,-0.18287640810012817,0.06699317693710327,0.4864382049257304,-0.8237737944993635,0.13277364152441992,0.2591251723579437
1728666503244393700,2.822393798828125,-0.02292526513338089,0.0017963247373700142,0.046677812933921814,0.5566787123680115,0.7320895195007324,0.3926239311695099,0.01984405517578125,-0.14195597171783447,-0.029159605503082275,0.4861914025838813,-0.8238009974038613,0.1329055627537664,0.25943378197544115
1728666503254423800,2.832423828125,0.14124275743961334,0.08469200134277344,0.038436394184827805,0.5568490028381348,0.7320297360420227,0.39249399304389954,-0.014780521392822266,-0.06918799877166748,-0.02611517906188965,0.48629987655700024,-0.8237087582601766,0.13323241484755996,0.25935574512945175
1728666503264455000,2.842454833984375,0.46019119024276733,0.1564498245716095,0.05063233897089958,0.5566692352294922,0.7329363226890564,0.3910546600818634,-0.026060104370117188,0.0046735405921936035,-0.013628602027893066,0.4873723751315009,-0.8231273030226862,0.13412225948975257,0.25872927402469864
1728666503274485000,2.852485107421875,0.7153774499893188,0.15443742275238037,0.0623670294880867,0.5565203428268433,0.7349225878715515,0.38752323389053345,-0.02790999412536621,0.05073732137680054,-0.0023150742053985596,0.4896432518982076,-0.8218269789407838,0.1355065574666081,0.2578526946898126
1728666503284515800,2.862515869140625,0.8534665703773499,0.25141218304634094,0.055273428559303284,0.5561882257461548,0.7375907897949219,0.38290321826934814,-0.02672344446182251,0.0610695481300354,-0.05140596628189087,0.49263980697369203,-0.8201244523609484,0.13728617891426215,0.25662139539236634
1728666503294545700,2.872545654296875,0.9294810891151428,0.2206583172082901,0.04518803954124451,0.5556364059448242,0.7407471537590027,0.37757378816604614,-0.03618139028549194,0.00432431697845459,-0.019724667072296143,0.4961104339712265,-0.8181656835085123,0.13925445932891778,0.2551226581718559
1728666503304576800,2.88257666015625,0.7601985931396484,0.23624685406684875,0.05824125558137894,0.5551574230194092,0.7437119483947754,0.37241506576538086,-0.031674087047576904,-0.07955789566040039,-0.00017687678337097168,0.49942332509424364,-0.8162657597000643,0.14113022276206172,0.2537102516458246
1728666503314606600,2.892606689453125,0.36689504981040955,0.1606258749961853,0.0754452794790268,0.554915726184845,0.7454214692115784,0.36934420466423035,-0.007659316062927246,-0.12721168994903564,0.03341147303581238,0.5015014114848746,-0.8150577012854936,0.14266410839648017,0.2526344019860231
1728666503324637700,2.9026376953125,0.007181105203926563,0.03432571887969971,0.059845276176929474,0.555122435092926,0.7456792593002319,0.36851251125335693,-0.004860043525695801,-0.1596197485923767,0.15803775191307068,0.5020799089845699,-0.8146679394212617,0.14343084045800267,0.2523082845743692
1728666503334667800,2.912667724609375,-0.2906211018562317,-0.011517190374433994,0.017791036516427994,0.5554136633872986,0.7449052333831787,0.36963748931884766,-0.006448209285736084,-0.135667622089386,0.12673091888427734,0.5014241498912957,-0.815013777601236,0.14342693961552644,0.25249770823526335
1728666503344697600,2.922697509765625,-0.38828667998313904,-0.005214819684624672,-0.03024972602725029,0.5554291605949402,0.7435778975486755,0.3722778856754303,-0.01369631290435791,-0.03251826763153076,0.08315125107765198,0.4999578071552617,-0.8159102883210236,0.14293127114436588,0.2527912294511775
1728666503354728700,2.932728759765625,-0.19923950731754303,0.03753663972020149,-0.07354100793600082,0.5549834966659546,0.7427101135253906,0.3746660351753235,-0.03026437759399414,0.07322299480438232,0.03378111124038696,0.4987490776972562,-0.8167399177337017,0.142368974834993,0.2528165258774294
1728666503364758800,2.9427587890625,0.0926048532128334,0.12592960894107819,-0.09299326688051224,0.5540790557861328,0.7429360747337341,0.37555575370788574,-0.027620375156402588,0.1359701156616211,-0.12406045198440552,0.4985443005552357,-0.817051569309075,0.1421429342158949,0.2523402290527713
1728666503374789600,2.95278955078125,0.46769005060195923,0.2555014491081238,-0.07962499558925629,0.552708089351654,0.7444482445716858,0.3745804727077484,-0.003986775875091553,0.13129937648773193,-0.2427140474319458,0.4996444976853031,-0.8166675140427694,0.1426338417931645,0.25112770275547713
1728666503384819700,2.96281982421875,0.6924366354942322,0.2597084641456604,-0.025649115443229675,0.5513031482696533,0.746989905834198,0.3715786635875702,0.025341689586639404,0.05409640073776245,-0.15540745854377747,0.5019740185299928,-0.8155362312284488,0.14384016414660294,0.24946476827174188
1728666503394850800,2.972850830078125,0.41272127628326416,0.13502174615859985,0.0326666533946991,0.5505869388580322,0.7490962147712708,0.3683868944644928,0.061809241771698,-0.014995932579040527,0.0572570264339447,0.5041770481450164,-0.8143316974559377,0.145111463238158,0.24821777643834966
1728666503404880600,2.982880615234375,-0.060506198555231094,0.006631293799728155,0.020137544721364975,0.5506144762039185,0.749548077583313,0.3674250841140747,0.07800179719924927,-0.045187175273895264,0.2352055013179779,0.5047983380204658,-0.8139446506855149,0.14562503253300077,0.247923441586627
1728666503414911700,2.992911865234375,-0.29302364587783813,-0.0004003038629889488,-0.04842393845319748,0.5505240559577942,0.7488558292388916,0.3689687252044678,0.048230767250061035,-0.09933507442474365,0.24139806628227234,0.5039807780483331,-0.8144693433408741,0.14534114215240382,0.24803007030060084
1728666503424941800,3.00294189453125,-0.31927523016929626,-0.05485183000564575,-0.08036349713802338,0.5501276254653931,0.748066246509552,0.37115558981895447,0.018964111804962158,-0.11732900142669678,0.15684425830841064,0.5028143332618754,-0.8152675863378214,0.14462555793205156,0.24819338356462878
1728666503434972000,3.012971923828125,-0.27683237195014954,-0.012019142508506775,-0.06402420252561569,0.5497401356697083,0.747290849685669,0.3732852041721344,0.029544413089752197,-0.027961134910583496,0.008199751377105713,0.5016563858412755,-0.8160553907087412,0.14386174731686752,0.24839110612546816
1728666503445002800,3.023002685546875,-0.1000906229019165,0.008545787073671818,-0.07210715860128403,0.5492838621139526,0.746913731098175,0.374709814786911,0.033983469009399414,0.0670817494392395,-0.07672086358070374,0.5009446255447203,-0.8165827307540074,0.1433441576819564,0.24839424190347156
1728666503455032800,3.03303271484375,0.07531309127807617,0.07621591538190842,-0.1029210016131401,0.5484763383865356,0.7473353743553162,0.37505143880844116,0.011277079582214355,0.08072859048843384,-0.08220469951629639,0.5009681382125871,-0.8167306791002974,0.14309685943637654,0.2480024236856461
1728666503465064000,3.04306396484375,0.1435438096523285,0.06117916852235794,-0.10466617345809937,0.547458827495575,0.7483130097389221,0.37458792328834534,-0.001453697681427002,0.043892621994018555,-0.06051632761955261,0.5015059081022356,-0.8166054851605009,0.14300157265387545,0.24738172745620585
1728666503475093800,3.05309375,0.1524447649717331,0.11827563494443893,-0.10324830561876297,0.5463731288909912,0.7494286298751831,0.37394222617149353,0.013685405254364014,0.0017461776733398438,-0.0931653082370758,0.5021740191847649,-0.8164134822561898,0.14296903877462802,0.24667797735954294
1728666503485124900,3.063124755859375,0.1497317999601364,0.15610291063785553,-0.07953418791294098,0.5451748371124268,0.7504614591598511,0.37362003326416016,0.025305509567260742,-0.030658602714538574,-0.09342288970947266,0.5027862295215515,-0.8162803524224651,0.14316564667248313,0.2457558975400128
1728666503495155000,3.073155029296875,0.14334572851657867,0.08422893285751343,-0.07022510468959808,0.5441585779190063,0.7513832449913025,0.3732486069202423,0.03997832536697388,-0.049250125885009766,0.01302763819694519,0.5033638142970359,-0.8161304113228915,0.1433717198806114,0.24495000002808603
1728666503505185800,3.083185791015625,0.09704773873090744,-0.031000716611742973,-0.04696585610508919,0.5436623692512512,0.7521693706512451,0.37238767743110657,0.06188267469406128,-0.03489953279495239,0.02467656135559082,0.50394350441247,-0.8158708639408996,0.14334773284299274,0.24463677655326269
1728666503515216000,3.0932158203125,0.003556276438757777,-0.05636311694979668,-0.019272178411483765,0.5435726642608643,0.7525333166122437,0.37178319692611694,0.05983626842498779,-0.005523860454559326,0.035580724477767944,0.5042128762353476,-0.8157196522979406,0.14315391451890522,0.24469960925878304
1728666503525245700,3.10324560546875,-0.07408712059259415,-0.053144421428442,0.010888121090829372,0.543788492679596,0.7523758411407471,0.3717852830886841,0.016147911548614502,-0.0047563910484313965,0.11664849519729614,0.5040886036681572,-0.8157511199181041,0.14297814904338843,0.24495288137465956
1728666503535276500,3.113276611328125,-0.10617847740650177,-0.07987813651561737,-0.009551906026899815,0.5440995693206787,0.751975417137146,0.37214040756225586,-0.035524189472198486,-0.007346630096435547,0.12866827845573425,0.5037345970563881,-0.8159051010641354,0.14272024103824638,0.24531854173712347
1728666503545306600,3.123306640625,-0.05251338332891464,0.025466127321124077,-0.09491900354623795,0.5438859462738037,0.7519069910049438,0.3725903630256653,-0.07104665040969849,0.022827327251434326,0.023085206747055054,0.5034631374483024,-0.816112090910225,0.142324421126555,0.24541712019960246
1728666503555337700,3.133337646484375,0.05789348483085632,0.17113885283470154,-0.20014768838882446,0.5423583388328552,0.7527157068252563,0.37318387627601624,-0.0787506103515625,0.06431597471237183,-0.10580411553382874,0.50356651624533,-0.8163525880182974,0.1419872806816358,0.24459911391297165
1728666503565367800,3.143367919921875,0.21689298748970032,0.15991495549678802,-0.21249224245548248,0.5401125550270081,0.7543613910675049,0.3731185495853424,-0.04151630401611328,0.06488305330276489,-0.08698567748069763,0.5042425622112403,-0.8163810481165383,0.14170836804732245,0.24326984258875375
1728666503575398700,3.153398681640625,0.40161216259002686,0.0775565505027771,-0.12283771485090256,0.538515031337738,0.7563109397888184,0.3714772164821625,0.022184431552886963,-0.008157193660736084,-0.09895524382591248,0.5055830567089423,-0.8158672240271408,0.14177190858018293,0.24217182545972826
1728666503585428700,3.1634287109375,0.3505931794643402,-0.004667486995458603,-0.007280762307345867,0.5381768941879272,0.7578744888305664,0.3687705099582672,0.06195122003555298,-0.09738266468048096,-0.09418860077857971,0.5071379015224012,-0.8149683704155237,0.14216824677311488,0.24171432270107676
1728666503595459600,3.17345947265625,0.11848745495080948,-0.09667560458183289,0.02064700797200203,0.5386475324630737,0.7585121393203735,0.3667672574520111,0.05923759937286377,-0.1424843668937683,-0.007651686668395996,0.5080592981741979,-0.8143006347897834,0.14247141079545184,0.24185150689773358
1728666503605489700,3.18348974609375,-0.08116413652896881,-0.06622767448425293,-0.00018450338393449783,0.539007306098938,0.758244514465332,0.36679160594940186,0.037652790546417236,-0.14478033781051636,0.007094472646713257,0.5078840363173122,-0.8143365690948374,0.14230864791722844,0.24219390841261457
1728666503615519700,3.193519775390625,-0.1613844782114029,-0.10025286674499512,-0.033113159239292145,0.539071798324585,0.7577049732208252,0.36781036853790283,0.03322422504425049,-0.12380921840667725,-0.007443606853485107,0.5072245331998372,-0.8147312898418907,0.14183829940957957,0.24252419005998435
1728666503625550800,3.20355078125,-0.03786946088075638,-0.009970372542738914,0.010220733471214771,0.5388216972351074,0.7575690746307373,0.3684561252593994,0.0426601767539978,-0.05398648977279663,-0.009996682405471802,0.5068760647009204,-0.8149948430851596,0.14146191357583118,0.2425870549714064
1728666503635580700,3.21358056640625,0.00413771066814661,-0.1036255955696106,0.0844411700963974,0.5390759110450745,0.7576866745948792,0.36784279346466064,0.06883430480957031,0.041522979736328125,-0.012374013662338257,0.5070605328823833,-0.8148270170365293,0.14134469979281197,0.2428339140457755
1728666503645611800,3.22361181640625,0.2260192483663559,-0.1260281205177307,0.06048870086669922,0.5399027466773987,0.758025050163269,0.36592790484428406,0.0645132064819336,0.05084341764450073,-0.011298388242721558,0.5077339512114917,-0.8142385372059748,0.14134906672011296,0.24339753050437268
1728666503655641900,3.233641845703125,0.31626537442207336,-0.14205443859100342,0.01723629981279373,0.5408175587654114,0.7589596509933472,0.36262500286102295,0.0380399227142334,-0.017657041549682617,-0.12240585684776306,0.5091054122535645,-0.8131933024685408,0.1415243788498227,0.2439247075781417
1728666503665672700,3.243672607421875,0.16404494643211365,-0.13743624091148376,-0.01766842231154442,0.5418055057525635,0.7596476078033447,0.35969778895378113,0.0420721173286438,-0.05307406187057495,-0.10351797938346863,0.5102242758270479,-0.8122861670819173,0.14156295943878705,0.24458609691793926
1728666503675702800,3.253702880859375,0.08829893171787262,-0.1566763073205948,-0.017392251640558243,0.5426121950149536,0.7598219513893127,0.35810986161231995,0.07135570049285889,-0.05269920825958252,-0.13423287868499756,0.5107021905326301,-0.8118166451265011,0.14145200029689198,0.24521084037693971
1728666503685734000,3.26373388671875,0.004408287815749645,-0.24697530269622803,-0.03609030693769455,0.5435680150985718,0.7596821188926697,0.35695481300354004,0.09157902002334595,-0.07756859064102173,-0.08565357327461243,0.5108472733525242,-0.8115219918868831,0.14110090136964581,0.24608452165744527
1728666503695763700,3.273763671875,-0.14479032158851624,-0.35441431403160095,-0.0009996970184147358,0.5449181795120239,0.7591747641563416,0.3559739589691162,0.09492850303649902,-0.0861096978187561,0.0030958056449890137,0.5106370241343919,-0.811360557637203,0.14028907564902585,0.24751301082988555
1728666503705794800,3.283794921875,-0.12043330818414688,-0.27922770380973816,0.04723893851041794,0.5465036630630493,0.758269190788269,0.3554733693599701,0.10074359178543091,-0.0710134506225586,-0.03558817505836487,0.5101197692998302,-0.8113421331441282,0.13950136822351614,0.24908040276782176
1728666503715825000,3.293824951171875,0.05580649897456169,-0.34845271706581116,0.08126641809940338,0.5482853651046753,0.7577423453330994,0.35384947061538696,0.07044321298599243,-0.057638704776763916,-0.030271679162979126,0.510155758289212,-0.8109325381217091,0.13897176307620374,0.25063173674656763
1728666503725855000,3.30385498046875,0.21575835347175598,-0.3523563742637634,0.07343831658363342,0.5502683520317078,0.7577685713768005,0.35070112347602844,0.05971693992614746,-0.0011922121047973633,-0.07900312542915344,0.5109029555920588,-0.8100256821878811,0.1385963552878144,0.25224494691240784
1728666503735885800,3.3138857421875,0.3019968271255493,-0.3690471351146698,0.01613960787653923,0.5522242188453674,0.7584903240203857,0.34603580832481384,0.06104177236557007,0.05249899625778198,-0.13232123851776123,0.512376857104504,-0.8086502741747555,0.1382122886658015,0.2538740743979688
1728666503745915600,3.32391552734375,0.349021852016449,-0.3721907436847687,-0.040390510112047195,0.5533843040466309,0.7597054839134216,0.3414866328239441,0.06708377599716187,0.04525649547576904,-0.14460256695747375,0.5139879255856439,-0.8073407561294467,0.13763799875065472,0.25509413056852326
1728666503755946800,3.33394677734375,0.3130618631839752,-0.38723984360694885,-0.03146492689847946,0.5543988347053528,0.7610278725624084,0.33686521649360657,0.10415518283843994,-0.010814428329467773,-0.17585447430610657,0.515628159650015,-0.8060286431380433,0.13693223188525017,0.25631011576316204
1728666503765976600,3.3439765625,0.21270863711833954,-0.4627399146556854,-0.009687727317214012,0.5556765794754028,0.7620317339897156,0.3324618935585022,0.1585262417793274,-0.0717548131942749,-0.1870761215686798,0.5170348541325959,-0.8047964568891801,0.136138175710856,0.2577671737933849
1728666503776007700,3.354007568359375,-0.02352001518011093,-0.6857450604438782,-0.025046709924936295,0.5574408173561096,0.7624416351318359,0.32854560017585754,0.1754540205001831,-0.10747349262237549,-0.12424567341804504,0.517835824886931,-0.8038157033475214,0.13473350558175212,0.25994837422971473
1728666503786037800,3.364037841796875,-0.20404133200645447,-0.9019827842712402,0.0005097826942801476,0.5599619746208191,0.7621039152145386,0.32502275705337524,0.15657538175582886,-0.1286965012550354,-0.0626327395439148,0.5178778882249911,-0.8031038061927794,0.13242227229250383,0.26323175161314827
1728666503796067800,3.37406787109375,-0.09262358397245407,-0.8413944244384766,0.041857488453388214,0.5630231499671936,0.7614074349403381,0.32134631276130676,0.13361680507659912,-0.14426589012145996,-0.12093737721443176,0.5177379182877005,-0.80235505368058,0.12999815697107064,0.2669723329081398
1728666503806098700,3.3840986328125,0.2276787906885147,-0.8498877882957458,0.08737543970346451,0.566182017326355,0.7612453103065491,0.3161388337612152,0.0650588870048523,-0.0979304313659668,-0.09180411696434021,0.518443928872415,-0.801025599756384,0.1281694148312579,0.2704562000991423
1728666503816128800,3.394128662109375,0.35584381222724915,-0.8559078574180603,0.12609167397022247,0.5697365403175354,0.7615839242935181,0.3088529109954834,0.025234103202819824,0.010434448719024658,-0.1328275501728058,0.5200911222869811,-0.7989670413008246,0.12679955473377305,0.2740049657067184
1728666503826159600,3.40415966796875,0.34859922528266907,-0.8196912407875061,0.1375424563884735,0.57327800989151,0.7619378566741943,0.30133503675460815,0.012674689292907715,0.027567028999328613,-0.17754057049751282,0.5218699440753788,-0.7967974095105301,0.1256240506164956,0.2774602253849913
1728666503836189700,3.414189697265625,0.2125808596611023,-0.7570120096206665,0.21987302601337433,0.5769798159599304,0.7617769241333008,0.2946014106273651,0.031235456466674805,-0.12289154529571533,-0.1296692192554474,0.5232645319421253,-0.7948313724954131,0.12467476211001348,0.28087972257389654
1728666503846220800,3.424220703125,-0.060942552983760834,-0.8978756666183472,0.2784963846206665,0.5813100934028625,0.760506808757782,0.2893228232860565,0.11249172687530518,-0.1963590383529663,-0.0833750069141388,0.52371309662219,-0.7933218122684427,0.1237009096836075,0.2847158217459089
1728666503856251000,3.4342509765625,-0.30193278193473816,-1.1809288263320923,0.20973409712314606,0.5862074494361877,0.7584943175315857,0.28468820452690125,0.15520191192626953,-0.13805663585662842,-0.027135103940963745,0.5232262940140479,-0.7921749111648745,0.12166760962915311,0.2896380916136192
1728666503866281700,3.44428173828125,-0.22795870900154114,-1.3564300537109375,0.18343272805213928,0.591295599937439,0.7565311789512634,0.2793387770652771,0.1642739176750183,-0.03227269649505615,-0.11754986643791199,0.5225657496470189,-0.790940957151875,0.11866671334437456,0.2953907532984186
1728666503876311800,3.454311767578125,0.17395557463169098,-1.3754559755325317,0.13333652913570404,0.5963252186775208,0.7554529309272766,0.27145305275917053,0.1522555947303772,0.04535865783691406,-0.20211714506149292,0.5229762710606416,-0.7888915872837777,0.11565718591687107,0.3012792423682248
1728666503886342700,3.4643427734375,0.5218291282653809,-1.3428703546524048,0.12715400755405426,0.6009125709533691,0.7556361556053162,0.260610431432724,0.11182540655136108,0.127740740776062,-0.2771052420139313,0.5249545804936606,-0.7858186562929973,0.11311166765659063,0.3067855405187989
1728666503896372700,3.474372802734375,0.7664408087730408,-1.2770074605941772,0.1586376279592514,0.6053645014762878,0.7564156651496887,0.24772825837135315,0.10516101121902466,0.13604038953781128,-0.35061824321746826,0.5280310791144532,-0.7819786829554393,0.11123608092603822,0.31196009891463383
1728666503906402800,3.48440283203125,0.7901317477226257,-1.3291155099868774,0.21757151186466217,0.6099058985710144,0.7572133541107178,0.23375728726387024,0.10798954963684082,-0.0119132399559021,-0.31098201870918274,0.5316023108091822,-0.7776997311784717,0.109826088945923,0.3170492987229258
1728666503916434000,3.494433837890625,0.43823543190956116,-1.395043969154358,0.28351858258247375,0.6149694323539734,0.7570652961730957,0.22060172259807587,0.13901323080062866,-0.13696324825286865,-0.21634453535079956,0.5343643617505902,-0.7736955209562312,0.10814853381892787,0.3227290064199158
1728666503926463700,3.504463623046875,0.05018942430615425,-1.4208532571792603,0.3110372722148895,0.620297372341156,0.7557035088539124,0.21010300517082214,0.192446768283844,-0.15746748447418213,-0.17174243927001953,0.5355441270641614,-0.7706019074374955,0.10594432668680383,0.3288478884677074
1728666503936494800,3.514494873046875,-0.10757090896368027,-1.4970155954360962,0.3180706799030304,0.6256754398345947,0.753631591796875,0.20141837000846863,0.21398508548736572,-0.15045177936553955,-0.0445275604724884,0.5355795918880005,-0.7681577724830957,0.10316405017182033,0.3353284505792029
1728666503946525000,3.52452490234375,0.018850676715373993,-1.5843169689178467,0.3101821541786194,0.6311649084091187,0.7514773011207581,0.19212572276592255,0.2932276725769043,-0.09298443794250488,-0.1463189423084259,0.5355952523775642,-0.7655256293424838,0.10016673850110636,0.34216179413914016
1728666503956555800,3.5345556640625,0.4197506904602051,-1.6802057027816772,0.287535160779953,0.6364269256591797,0.7499662637710571,0.18030956387519836,0.3385486602783203,0.015078902244567871,-0.21972298622131348,0.5366374019529089,-0.7620336766644934,0.09725975694281944,0.3490924982059517
1728666503966585900,3.5445859375,0.9650968313217163,-1.68374764919281,0.28669944405555725,0.6415690183639526,0.7492557764053345,0.16433227062225342,0.36557215452194214,0.07473409175872803,-0.3369244337081909,0.5395316322648716,-0.7570579178391558,0.0950233874674514,0.35600498688005905
1728666503976617000,3.554616943359375,1.5583412647247314,-1.6339033842086792,0.3269222378730774,0.6463871002197266,0.7492779493331909,0.14410443603992462,0.35008805990219116,0.06367969512939453,-0.4096379280090332,0.5445594822783925,-0.7504871993730862,0.0939211557259454,0.3624950618288436
1728666503986646500,3.564646484375,1.881746530532837,-1.7268413305282593,0.4175717234611511,0.6515347361564636,0.749088704586029,0.11986886709928513,0.2977755665779114,0.05935239791870117,-0.2788959741592407,0.5512660679740354,-0.7423582447702652,0.09401419411741216,0.3690139095798902
1728666503996676600,3.574676513671875,1.2618180513381958,-1.6879737377166748,0.3415808081626892,0.6562545895576477,0.7483277916908264,0.09661943465471268,0.2433730959892273,-0.02026998996734619,-0.14035117626190186,0.5572871889479649,-0.7345330210485674,0.09365340140281356,0.3756610461317241
1728666504006707700,3.584707763671875,0.5006323456764221,-1.7410398721694946,0.48033788800239563,0.6607322692871094,0.746470034122467,0.07883742451667786,0.17834854125976562,-0.23656713962554932,0.10912036895751953,0.5605372694930387,-0.7286633610093086,0.09202400916689596,0.3825954000116104
1728666504016737800,3.59473779296875,-0.18088974058628082,-1.9551345109939575,0.540116548538208,0.6660228967666626,0.7430571913719177,0.06541725993156433,0.2531207203865051,-0.456268310546875,0.13833332061767578,0.5608974182722181,-0.7244165918086282,0.08904623527486799,0.3907498229103722
1728666504026768600,3.6047685546875,-0.5333548188209534,-1.9974145889282227,0.39162319898605347,0.6707388162612915,0.7396419644355774,0.055127762258052826,0.2860024571418762,-0.34320348501205444,0.046633120626211166,0.5593740432608828,-0.7214133455390531,0.08441957829167632,0.39942050613189856
1728666504036798700,3.614798828125,-0.12186842411756516,-2.1883084774017334,0.3103184998035431,0.6743505001068115,0.7371090650558472,0.04383886978030205,0.27579909563064575,-0.03860741853713989,-0.07675206661224365,0.5581656329552548,-0.7181005361422087,0.07906360870302029,0.4080830379581175
1728666504046830600,3.62483056640625,0.8544027209281921,-2.3399689197540283,0.3344525992870331,0.6775062084197998,0.735061526298523,0.02588728442788124,0.31050050258636475,0.22065752744674683,-0.32695841789245605,0.5596093900386122,-0.7123109472758401,0.07454365675682961,0.41700574803372037
1728666504056860400,3.6348603515625,1.8628056049346924,-2.197421073913574,0.42686429619789124,0.6806939244270325,0.732568085193634,-0.0001868513791123405,0.2746284008026123,0.39159274101257324,-0.46055227518081665,0.564659075728213,-0.7033175621894402,0.0724636531639147,0.42573896385533727
1728666504066891500,3.6448916015625,1.516977310180664,-2.0779056549072266,0.408316433429718,0.6834678053855896,0.7294631600379944,-0.027475528419017792,0.15251529216766357,0.41464072465896606,-0.2535760998725891,0.5706462308390836,-0.6936315123295475,0.07167678028633397,0.4337055441443613
1728666504076921300,3.65492138671875,0.9325670599937439,-2.0658998489379883,0.5791334509849548,0.6862620115280151,0.7255851626396179,-0.050699859857559204,0.08760267496109009,0.06295841932296753,-0.041615840047597885,0.5745602166580587,-0.6853684738626795,0.07014360651141745,0.44184886416688374
1728666504086951400,3.664951416015625,0.2580600082874298,-2.0460784435272217,0.5792748928070068,0.6893482804298401,0.7211180925369263,-0.06919162720441818,0.19651585817337036,-0.36804503202438354,-0.23822718858718872,0.575931514681318,-0.6788555290601448,0.0675230183395019,0.45044270414513177
1728666504096982500,3.674982421875,0.12612606585025787,-2.0346572399139404,0.55782151222229,0.6918962001800537,0.7170720100402832,-0.08418557792901993,0.2022687792778015,-0.31544554233551025,-0.061779968440532684,0.5757923748538621,-0.6736584068282588,0.06396532033933962,0.45886364620329023
1728666504107012600,3.6850126953125,0.4197286367416382,-2.228174924850464,0.6112613081932068,0.6940616369247437,0.7128103971481323,-0.10089343041181564,0.2683253288269043,-0.08260726928710938,-0.058774515986442566,0.5759761346447249,-0.6677676769440494,0.06032920955925529,0.46765163785791886
1728666504117043500,3.69504345703125,0.8994880318641663,-2.3241262435913086,0.6805199980735779,0.6962840557098389,0.7074400782585144,-0.12131398916244507,0.36980175971984863,0.0994446873664856,-0.19312387704849243,0.5772224686976863,-0.6603285245328188,0.05752602406039012,0.47693942359790514
1728666504127073500,3.705073486328125,1.314862608909607,-2.414836883544922,0.622836709022522,0.6976948380470276,0.7014058828353882,-0.1457788050174713,0.34049785137176514,0.13918548822402954,-0.15166078507900238,0.5799884761738887,-0.6511791142164582,0.055464928051925606,0.48631536204319176
1728666504137104400,3.7151044921875,1.327136754989624,-2.497514247894287,0.6317638754844666,0.6982829570770264,0.6945255994796753,-0.17330636084079742,0.27205395698547363,0.27770328521728516,-0.10330496728420258,0.5838261074697925,-0.640649923865915,0.053986089150907114,0.49578243059514354
1728666504147134500,3.725134521484375,0.7525581121444702,-2.6491713523864746,0.6034063100814819,0.6976861953735352,0.6883149147033691,-0.19863669574260712,0.20970821380615234,0.28516530990600586,0.05636376142501831,0.5862290127683566,-0.6309466992550329,0.05087158365218504,0.5056222559500444
1728666504157165600,3.73516552734375,0.3563256561756134,-2.646907329559326,0.5885804891586304,0.6962984204292297,0.6828653812408447,-0.2210506647825241,0.18729227781295776,-0.020878076553344727,-0.1302371621131897,0.5870737353998514,-0.622350602395083,0.04641547607564364,0.5156256078667083
1728666504167195600,3.745195556640625,0.2998458743095398,-2.4914557933807373,0.6079003810882568,0.6944403052330017,0.678000271320343,-0.2409740388393402,0.18255865573883057,-0.11325722932815552,-0.22083324193954468,0.5870201054061713,-0.6146454291986497,0.04152082769699905,0.5252566190718777
1728666504177225500,3.7552255859375,0.5385512113571167,-2.377012252807617,0.7481216788291931,0.6928939819335938,0.6722484230995178,-0.2607300877571106,0.20548254251480103,0.009026050567626953,-0.2020995318889618,0.5869782833397033,-0.6068166975323671,0.0375293008451318,0.5346228851551569
1728666504187256600,3.765256591796875,0.71165931224823,-2.2449309825897217,0.9090613126754761,0.6922594904899597,0.6646846532821655,-0.28101804852485657,0.24266183376312256,0.018283426761627197,-0.08122557401657104,0.5870563138420064,-0.598552813303261,0.03500712372922177,0.5439429421387855
1728666504197286700,3.77528662109375,0.8516830205917358,-2.329279899597168,0.9603369832038879,0.6919621229171753,0.6557731628417969,-0.3019106090068817,0.3047419786453247,0.01640695333480835,-0.0437161922454834,0.5871472400608213,-0.5898587615366939,0.03333666492092171,0.5533655879630812
1728666504207317500,3.7853173828125,0.6423519253730774,-2.6206653118133545,0.7840517163276672,0.6900543570518494,0.6471014022827148,-0.3241679072380066,0.38211971521377563,0.10770511627197266,-0.08275347948074341,0.5873400544466568,-0.5804845308044465,0.03088294966049226,0.5631302253854484
1728666504217347600,3.79534765625,0.5828185677528381,-2.8561832904815674,0.6292387247085571,0.6854314804077148,0.6402290463447571,-0.34682923555374146,0.37841129302978516,0.29147255420684814,0.06792908906936646,0.5873908653867328,-0.5708603068816197,0.026531005701069282,0.5730502963297932
1728666504227378700,3.805378662109375,0.6718685626983643,-3.1384570598602295,0.5057607293128967,0.6783773303031921,0.6338452696800232,-0.37154313921928406,0.39176732301712036,0.38751697540283203,-0.07843858003616333,0.5878965464062699,-0.5601579754746118,0.021247953392603228,0.5832230830483108
1728666504237408500,3.815408447265625,0.8466599583625793,-2.9603335857391357,0.4117186367511749,0.6696734428405762,0.6275643706321716,-0.39711496233940125,0.35467952489852905,0.4806356430053711,-0.2759349048137665,0.588815173600756,-0.5488107213426793,0.015789493052628584,0.5931728781807662
1728666504247439600,3.825439697265625,1.1178333759307861,-2.701448440551758,0.36275559663772583,0.6608709096908569,0.6203048825263977,-0.422458678483963,0.2623620629310608,0.39463335275650024,-0.326625794172287,0.5905222822692274,-0.5372443698388422,0.011796099954813,0.6020902470091035
1728666504257469700,3.8354697265625,1.2412530183792114,-2.53682279586792,0.5065622925758362,0.6522408723831177,0.6122287511825562,-0.44694262742996216,0.25249844789505005,0.3357539772987366,-0.24380746483802795,0.5924480385561567,-0.5257858756243515,0.008825760131717814,0.610308585565912
1728666504267499500,3.84549951171875,1.2890492677688599,-2.49013090133667,0.5828624367713928,0.6441494226455688,0.6025976538658142,-0.47111308574676514,0.3268435597419739,0.20453119277954102,-0.12010392546653748,0.5941842069555671,-0.5141952195285587,0.006836029040302433,0.6184671700859169
1728666504277530400,3.8555302734375,1.1322405338287354,-2.63954758644104,0.6462672352790833,0.6355495452880859,0.592635452747345,-0.494833379983902,0.37122541666030884,0.10249394178390503,0.02200925350189209,0.5954268577470638,-0.502555125674465,0.004653922819581528,0.6268042473589859
1728666504287560400,3.865560546875,0.809941828250885,-2.909421920776367,0.5896457433700562,0.625149667263031,0.5837316513061523,-0.5181170105934143,0.40394890308380127,0.14041990041732788,0.1116533875465393,0.5958792804386772,-0.4908569229552134,0.000984329435311609,0.6355992281333964
1728666504297591600,3.875591552734375,0.5742438435554504,-3.079540967941284,0.4300883114337921,0.6122325658798218,0.576799750328064,-0.5408080816268921,0.3481098413467407,0.14800798892974854,0.09540402889251709,0.5958857972685061,-0.47914079672608917,-0.004479252996083555,0.6444565021284151
1728666504307621400,3.885621337890625,0.5693524479866028,-3.0540547370910645,0.26566368341445923,0.5972646474838257,0.5715947151184082,-0.5626316070556641,0.2995096445083618,0.28515565395355225,-0.06554216146469116,0.595933290729976,-0.4675069331284119,-0.011020458715167904,0.6528240516323887
1728666504317652500,3.895652587890625,0.795354425907135,-3.0069563388824463,0.19432052969932556,0.5811368823051453,0.5664424896240234,-0.5843139290809631,0.28400593996047974,0.47590065002441406,-0.14079898595809937,0.596525082753028,-0.45556759156233523,-0.01735506528108545,0.6605412194681448
1728666504327682600,3.9056826171875,1.0275447368621826,-2.946108102798462,0.16531629860401154,0.5643376708030701,0.5598533153533936,-0.6067019104957581,0.29976755380630493,0.49457472562789917,-0.19719219207763672,0.5977291339667322,-0.44286593503038,-0.022777548211082937,0.6678852612595437
1728666504337713400,3.91571337890625,1.101001501083374,-2.863525152206421,0.33070632815361023,0.5476956367492676,0.5518003702163696,-0.6289243698120117,0.2886080741882324,0.38583695888519287,-0.15656757354736328,0.5988931382549217,-0.42987301115403503,-0.027331633142703142,0.6751215878520763
1728666504347743500,3.925743408203125,1.143204927444458,-2.731177568435669,0.33200860023498535,0.5316705107688904,0.5427554845809937,-0.6501868367195129,0.3159704804420471,0.24925190210342407,-0.13483214378356934,0.5996806930228579,-0.41705379490666294,-0.031188529920433746,0.682258333778682
1728666504357773600,3.935773681640625,0.9161332249641418,-2.7425527572631836,0.20324823260307312,0.5150366425514221,0.5343026518821716,-0.6702670454978943,0.2594994902610779,0.1364431381225586,0.010888993740081787,0.600465823815594,-0.4045077107556833,-0.03521339624421995,0.6888936091066196
1728666504367804400,3.945804443359375,0.7668814063072205,-2.701622247695923,0.2009485960006714,0.49754053354263306,0.5276919603347778,-0.6884726285934448,0.28579989075660706,0.2267177700996399,0.0818747878074646,0.6009053138573593,-0.3926199359321597,-0.0401654394563624,0.6950892567411279
1728666504377834500,3.95583447265625,0.8408116102218628,-2.864253044128418,0.20859453082084656,0.47928404808044434,0.5209954380989075,-0.7062935829162598,0.39252686500549316,0.22090214490890503,0.07451868057250977,0.6011459884649635,-0.38053159582812524,-0.04526496781929364,0.7012633991715101
1728666504387865600,3.965865478515625,0.8950610160827637,-3.076167345046997,0.1891939342021942,0.4589596688747406,0.5139397382736206,-0.7247219681739807,0.4267367422580719,0.14047914743423462,0.09032261371612549,0.6013531701524426,-0.3674977033358579,-0.050837493152717274,0.7076265086114778
1728666504397895700,3.975895751953125,1.0020370483398438,-3.11618709564209,0.30861008167266846,0.4373346269130707,0.5057498216629028,-0.7436097860336304,0.38424432277679443,0.09387475252151489,0.10748618841171265,0.6013655139616702,-0.35358271290668786,-0.05634163587597954,0.7142578675998051
1728666504407926500,3.985926513671875,0.8861285448074341,-2.9290645122528076,0.348097562789917,0.4161672294139862,0.49712419509887695,-0.7613621950149536,0.3370981514453888,0.07938334345817566,0.015985608100891113,0.6009242195698178,-0.3399145443089758,-0.061457294931886106,0.7208129129147396
1728666504417956600,3.99595654296875,0.8771239519119263,-2.8625614643096924,0.3777151107788086,0.3957171142101288,0.4890466332435608,-0.7773296236991882,0.2525830864906311,0.11239376664161682,0.06100583076477051,0.6001413322046455,-0.32699291979755746,-0.06641388182066614,0.7269768027748277
1728666504427987500,4.005987548828125,1.1114323139190674,-2.8123481273651123,0.35188430547714233,0.37510743737220764,0.47974148392677307,-0.7931849956512451,0.28102049231529236,0.22106415033340454,-0.07919049263000488,0.5993467840652009,-0.31369186138553795,-0.07074534680984944,0.7330592295586027
1728666504438017500,4.016017578125,1.386732578277588,-2.5792853832244873,0.3323090076446533,0.3550661504268646,0.46850475668907166,-0.8089693188667297,0.3094693720340729,0.31619369983673096,-0.12590616941452026,0.5990806849131003,-0.3001364953240527,-0.0737118265610649,0.7386386330954469
1728666504448047600,4.026047607421875,1.6080175638198853,-2.517371416091919,0.3690270781517029,0.3359939455986023,0.45495161414146423,-0.8246981501579285,0.3468216359615326,0.28075090050697327,-0.017586946487426758,0.5989997555514877,-0.2863477466499915,-0.07520557723491889,0.744008263958998
1728666504458078700,4.03607861328125,1.5579997301101685,-2.6416361331939697,0.3430607318878174,0.3161547780036926,0.44042348861694336,-0.8402816653251648,0.36653873324394226,0.12082526087760925,0.1490127444267273,0.5989344883190149,-0.2720631474053848,-0.07642518160809358,0.7492785015063137
1728666504468108500,4.046108642578125,1.3727701902389526,-2.7495625019073486,0.3228902220726013,0.29460015892982483,0.4270326793193817,-0.8548999428749084,0.35971200466156006,0.0572202205657959,0.25274229049682617,0.5985907673064509,-0.25762467259575755,-0.07861023509486238,0.7544131531474979
1728666504478139600,4.0561396484375,1.356457233428955,-2.8206629753112793,0.3950429856777191,0.2720644772052765,0.4141780138015747,-0.868583619594574,0.3621518611907959,0.0887363851070404,0.24413293600082397,0.5977876327812829,-0.24309410483635047,-0.08132314313201613,0.7595667797634639
1728666504488169500,4.06616943359375,1.2341803312301636,-2.7800369262695312,0.32084065675735474,0.24889838695526123,0.4018082618713379,-0.881248950958252,0.35705864429473877,0.15370318293571472,0.12313127517700195,0.596798850704022,-0.2286145088202408,-0.08432637486816864,0.7644968877601688
1728666504498200600,4.07620068359375,1.114530324935913,-2.7712759971618652,0.32314562797546387,0.2255564033985138,0.3904661238193512,-0.8925583958625793,0.2971944808959961,0.15851455926895142,0.11532151699066162,0.5956530623252392,-0.2145520003683732,-0.08768259267213951,0.7690751223309671
1728666504508230400,4.08623046875,0.9661339521408081,-2.6136622428894043,0.34896522760391235,0.20251600444316864,0.3805076479911804,-0.9023309946060181,0.28326281905174255,0.11091688275337219,0.14549505710601807,0.5942768825487807,-0.2011918645879236,-0.09141303518238235,0.7733049120718408
1728666504518261500,4.096261474609375,1.0399576425552368,-2.542928695678711,0.46633633971214294,0.1805448979139328,0.37047600746154785,-0.9111262559890747,0.3019227683544159,0.12934085726737976,0.11750137805938721,0.5924352215886132,-0.1883003405377187,-0.09476211692667458,0.777549656079516
1728666504528291600,4.10629150390625,0.8520533442497253,-2.3249776363372803,0.4946681261062622,0.15997281670570374,0.36086153984069824,-0.9187968373298645,0.34759557247161865,0.08854031562805176,0.0603983998298645,0.5902730421610562,-0.17617784966205535,-0.09779026269864202,0.7816496858617245
1728666504538321400,4.1163212890625,0.594276487827301,-2.4767417907714844,0.444070965051651,0.13976621627807617,0.353310227394104,-0.925006628036499,0.34407472610473633,-0.01577058434486389,0.23015189170837402,0.587820482714263,-0.16491673553337144,-0.10148473011234754,0.7854746180477465
1728666504548352500,4.1263525390625,0.41121506690979004,-2.8533051013946533,0.28027936816215515,0.11620941758155823,0.34834375977516174,-0.9301354885101318,0.38229525089263916,0.02728182077407837,0.33281493186950684,0.5853464984143293,-0.15314202980942418,-0.10714374762545296,0.7889468793742371
1728666504558382600,4.136382568359375,0.40565237402915955,-3.0097334384918213,0.08480335772037506,0.08924827724695206,0.3443957567214966,-0.9345728158950806,0.37239113450050354,0.16630062460899353,0.29265081882476807,0.5833291979151706,-0.14037549791103368,-0.11405403635113968,0.791841808108349
1728666504568413400,4.146413330078125,0.6458436250686646,-3.028932571411133,0.06706590950489044,0.06113995611667633,0.3395433723926544,-0.9386011958122253,0.30473530292510986,0.2403210997581482,0.22154492139816284,0.581616360539115,-0.126922291439145,-0.12078963640834041,0.7943695726284296
1728666504578443500,4.156443603515625,0.82685387134552,-2.80861234664917,0.10896195471286774,0.033633481711149216,0.33246171474456787,-0.9425168037414551,0.23522639274597168,0.25017982721328735,0.10722023248672485,0.579903579055219,-0.1130474706207512,-0.1263402265954983,0.7968501221208893
1728666504588474600,4.166474609375,1.1478161811828613,-2.4129247665405273,0.2838818430900574,0.009624707512557507,0.32317543029785156,-0.946290135383606,0.1492040455341339,0.30895042419433594,0.10962021350860596,0.577962381498506,-0.09992222655678641,-0.12988643964711824,0.7994400478537596
1728666504598504400,4.17650439453125,1.3584338426589966,-1.95853590965271,0.33146932721138,-0.010162745602428913,0.3110329806804657,-0.9503448009490967,0.15612834692001343,0.2771475613117218,0.06000971794128418,0.5758446745304375,-0.08765311903723462,-0.13093715243337592,0.8022314539570993
1728666504608535600,4.18653564453125,1.2516751289367676,-1.684456467628479,0.32152268290519714,-0.026229290291666985,0.29849961400032043,-0.954049289226532,0.18044990301132202,0.15612071752548218,0.05730551481246948,0.5739394593268811,-0.07687255727640513,-0.13063681015400336,0.8047471992532413
1728666504618565600,4.196565673828125,0.9974636435508728,-1.9810020923614502,0.29804691672325134,-0.04252529889345169,0.28777363896369934,-0.9567538499832153,0.287474662065506,0.03795573115348816,0.23960602283477783,0.5718330841908081,-0.06655769649853346,-0.13112264553755415,0.8070834803271343
1728666504628595700,4.206595703125,0.7916263341903687,-2.255096673965454,0.10817712545394897,-0.062454160302877426,0.27939438819885254,-0.9581431150436401,0.3693389296531677,-0.02867722511291504,0.34518229961395264,0.5698922830998683,-0.05551509444139997,-0.13359083195472354,0.8088845889209719
1728666504638626600,4.21662646484375,0.77378910779953,-2.3588199615478516,0.10845143347978592,-0.0843755230307579,0.27204248309135437,-0.9585790038108826,0.3167821764945984,0.05295443534851074,0.45804494619369507,0.5680817555126877,-0.04399801397740739,-0.13702074596043526,0.8102916411728219
1728666504648656600,4.22665673828125,0.9670875072479248,-2.257798194885254,0.08925696462392807,-0.10654237866401672,0.2638012170791626,-0.958674967288971,0.2638605237007141,0.17958864569664001,0.43798398971557617,0.5662169812685334,-0.032111622755444456,-0.14011200764735415,0.8116253670937141
1728666504658687500,4.2366875,1.1577974557876587,-1.9175413846969604,0.15774279832839966,-0.12643064558506012,0.2536514103412628,-0.9589975476264954,0.1328393816947937,0.1720992624759674,0.28141576051712036,0.5644578622139429,-0.020619656369064966,-0.1416900382401776,0.8129490551961631
1728666504668717600,4.246717529296875,1.1939125061035156,-1.52994704246521,0.36994799971580505,-0.14224021136760712,0.24251322448253632,-0.9596640467643738,0.09477013349533081,0.1679481863975525,0.20650547742843628,0.562209225163248,-0.010439849896977962,-0.1416297576302684,0.8147103477957677
