time,seconds_elapsed,rotationRateX,rotationRateY,rotationRateZ,gravityX,gravityY,gravityZ,accelerationX,accelerationY,accelerationZ,quaternionW,quaternionX,quaternionY,quaternionZ
1729873193977490400,0.055490478515625,0.2927749454975128,0.1496402472257614,0.17754654586315155,0.4009484648704529,0.4368968605995178,-0.8052089810371399,-0.0868309736251831,-0.03173017501831055,-0.015759587287902832,0.9500550899660857,-0.22993237902369396,0.21101326426460082,1.5594538303441712e-17
1729873193987520500,0.0655205078125,0.24112533032894135,0.1346336007118225,0.24513757228851318,0.4030523896217346,0.4339255690574646,-0.8057650923728943,-0.023901939392089844,-0.031947970390319824,-0.0014400482177734375,0.9502011866446176,-0.22845991535763352,0.2119516895890605,0.0005666271671639406
1729873193997551400,0.07555126953125,0.21826574206352234,0.11496572941541672,0.291620135307312,0.40521594882011414,0.43098506331443787,-0.806257963180542,0.008098959922790527,-0.03524830937385559,0.008162319660186768,0.9503299062643589,-0.22708262282888889,0.21284851434952304,0.0014605516687434927
1729873194007582500,0.08558251953125,0.21106109023094177,0.11020106822252274,0.2939314842224121,0.4074035882949829,0.4280660152435303,-0.8067104816436768,0.00020450353622436523,-0.0434529185295105,-0.003592193126678467,0.9504466901064186,-0.22575821766733428,0.2137240824481525,0.002517954120807401
1729873194017612500,0.095612548828125,0.19828744232654572,0.10015226900577545,0.26143398880958557,0.409465491771698,0.4252825081348419,-0.8071386218070984,-0.01465955376625061,-0.03252124786376953,-0.01814812421798706,0.9505561881620062,-0.22449397927076506,0.21455332241818734,0.003509061346725385
1729873194027643400,0.105643310546875,0.1784202605485916,0.061781980097293854,0.2361627221107483,0.4111849367618561,0.42274540662765503,-0.8075972199440002,-0.027151674032211304,-0.008560746908187866,-0.02974402904510498,0.9506730797559041,-0.22333356702063958,0.2152289819040339,0.0043883985071733285
1729873194037674500,0.115674560546875,0.18405045568943024,0.005784064065665007,0.24702364206314087,0.41246166825294495,0.4203197956085205,-0.8082120418548584,-0.02740606665611267,0.007338374853134155,-0.029876887798309326,0.9508302378264479,-0.2222297746041502,0.21565690943113086,0.005299579546960491
1729873194047704600,0.12570458984375,0.15766678750514984,-0.0050986772403120995,0.2318553328514099,0.4134676158428192,0.4179130792617798,-0.8089457750320435,-0.014053493738174438,0.00954669713973999,-0.023146510124206543,0.951017269784441,-0.221139660132531,0.215926778697154,0.006257213961977832
1729873194057735400,0.1357353515625,0.07892769575119019,-0.013795549049973488,0.21044404804706573,0.41433432698249817,0.41605764627456665,-0.8094585537910461,-0.007656991481781006,0.017017394304275513,-0.025868535041809082,0.9511454932994134,-0.22034674290259698,0.2161435640539639,0.007184996278365978
1729873194067766500,0.1457666015625,-0.008613602258265018,-0.05677257478237152,0.23518986999988556,0.41497212648391724,0.4148751199245453,-0.8097387552261353,-0.011865407228469849,0.022624939680099487,-0.01533442735671997,0.9512106425044184,-0.21994844402358293,0.21622515744394652,0.00823097458259646
1729873194077796400,0.15579638671875,-0.06019444018602371,-0.09749225527048111,0.2963336408138275,0.415431410074234,0.4140913188457489,-0.8099043965339661,-0.004756301641464233,0.010881274938583374,-0.00724947452545166,0.9512411724788395,-0.21984347374191715,0.21614034806467589,0.009616448793357378
1729873194087827500,0.165827392578125,-0.0483364462852478,-0.09361948817968369,0.3598566949367523,0.415998637676239,0.4132201075553894,-0.8100582361221313,0.010652393102645874,0.013476699590682983,-0.009659111499786377,0.9512624305217312,-0.21977535756980923,0.21603167137461826,0.011359359448656592
1729873194097857500,0.175857421875,0.06335446238517761,-0.07338234037160873,0.44748589396476746,0.41694220900535583,0.4115524888038635,-0.8104219436645508,0.00723692774772644,0.03891751170158386,-0.019976496696472168,0.9513319579938517,-0.2193381478945757,0.2160550745429267,0.013362991653057299
1729873194107888400,0.185888427734375,0.19752691686153412,0.0016514239832758904,0.513831615447998,0.4186584949493408,0.40847307443618774,-0.8110948204994202,-0.009524524211883545,0.07751941680908203,-0.04033029079437256,0.9514750022672955,-0.21819654314785736,0.2164321169174571,0.015579999770880128
1729873194117919500,0.19591943359375,0.2864614725112915,0.0463513545691967,0.5200226902961731,0.4209851622581482,0.4042856991291046,-0.8119879961013794,-0.017008692026138306,0.12711691856384277,-0.058586835861206055,0.9516715557277059,-0.216459146323067,0.2171438025558379,0.017753963086256378
1729873194127949600,0.205949462890625,0.28871235251426697,0.037055592983961105,0.5178985595703125,0.4234372675418854,0.39974263310432434,-0.8129616975784302,-0.0302792489528656,0.14372974634170532,-0.06422024965286255,0.9518861653122,-0.21451681557163313,0.21794880773966652,0.019840800081850688
1729873194137980400,0.21598046875,0.2439131885766983,0.0037621394731104374,0.5275143980979919,0.4256835877895355,0.39534467458724976,-0.8139386773109436,-0.03133535385131836,0.11684718728065491,-0.05471360683441162,0.9520950811347481,-0.21267256589977354,0.218634521050798,0.022010103254359443
1729873194148011500,0.226011474609375,0.1669161468744278,-0.028571033850312233,0.5109066963195801,0.42761334776878357,0.3914719223976135,-0.8147984743118286,-0.015931159257888794,0.08005520701408386,-0.03239995241165161,0.9522656097509732,-0.21113541428146093,0.21914057088769837,0.024281339379552225
1729873194158041600,0.23604150390625,0.07530120760202408,-0.04787341132760048,0.4806917905807495,0.42923861742019653,0.3883554935455322,-0.815434992313385,-0.00556299090385437,0.05250149965286255,-0.016779303550720215,0.9523716879943478,-0.21001140840372845,0.21949420040771658,0.026566401266562192
1729873194168072400,0.246072509765625,-0.03531026095151901,-0.061744749546051025,0.4452008903026581,0.4306007921695709,0.3862113654613495,-0.8157351016998291,-0.00941234827041626,0.03168115019798279,-0.010101020336151123,0.9523853682138432,-0.20940595045371793,0.2197307220951744,0.02880563922355351
1729873194178103600,0.256103515625,-0.13264253735542297,-0.07293252646923065,0.4185762107372284,0.4317106604576111,0.385051429271698,-0.8156968355178833,-0.01657998561859131,0.01254686713218689,-0.004875004291534424,0.9523055277816046,-0.20933059448170804,0.21984607003281967,0.031026077912467302
1729873194188133400,0.26613330078125,-0.15832632780075073,-0.10124219954013824,0.38546085357666016,0.43253293633461,0.38457345962524414,-0.8154866695404053,-0.02384147047996521,-0.009283483028411865,0.001979649066925049,0.9521770702140022,-0.20960878163249358,0.21981996110711807,0.03319966126915716
1729873194198164500,0.27616455078125,-0.10460677742958069,-0.11493948101997375,0.36979374289512634,0.43307656049728394,0.3840464949607849,-0.8154464960098267,-0.03235015273094177,-0.03130897879600525,0.00044411420822143555,0.9520926157738998,-0.20981966109919056,0.21966441032208084,0.03525607716584623
1729873194208195300,0.2861953125,-0.022575024515390396,-0.09779325127601624,0.3467411696910858,0.43357765674591064,0.383050799369812,-0.8156485557556152,-0.03246977925300598,-0.03215959668159485,-0.01725238561630249,0.9520737138074916,-0.2097321693398848,0.21951795410973324,0.037149989557905244
1729873194218225400,0.296225341796875,0.09054287523031235,-0.09542249888181686,0.3173563778400421,0.4341014325618744,0.3813752233982086,-0.816154956817627,-0.021793633699417114,-0.005734294652938843,-0.02240699529647827,0.9521409510118991,-0.20921393579234768,0.21943574639611158,0.03879741467803363
1729873194228256500,0.306256591796875,0.22531454265117645,-0.1214146837592125,0.2909335494041443,0.43437978625297546,0.3787684142589569,-0.817220151424408,-0.0164719820022583,0.019272416830062866,-0.022287845611572266,0.9523633689990254,-0.20810777919226936,0.21927398268802553,0.04017812797201331
1729873194238286600,0.31628662109375,0.3515375256538391,-0.17366132140159607,0.3796842098236084,0.434384286403656,0.3750365376472473,-0.8189370632171631,-0.005871623754501343,0.03008437156677246,-0.03311365842819214,0.9527553896092422,-0.20636443998858964,0.21896386510225566,0.04154365976790777
1729873194248317400,0.3263173828125,0.4176765978336334,-0.0956064760684967,0.5236730575561523,0.4349341094493866,0.3697965741157532,-0.8210254907608032,0.0037714242935180664,0.0397646427154541,-0.015125572681427002,0.9532170591902233,-0.20395394747878762,0.21883793026254403,0.04347554114098449
1729873194258348500,0.3363486328125,0.377846360206604,-0.01854364573955536,0.4570687413215637,0.4363398253917694,0.3643306791782379,-0.822721540927887,0.004700303077697754,0.04243817925453186,0.008222699165344238,0.9535696273936929,-0.2014828698388637,0.2191891304749273,0.045452086675568965
1729873194268378600,0.346378662109375,0.2820814847946167,-0.013992570340633392,0.41949474811553955,0.4378029704093933,0.3597084581851959,-0.8239772319793701,-0.04127272963523865,0.01370471715927124,0.03592187166213989,0.953815297583362,-0.19942523121318975,0.2196382677419128,0.047171253584250394
1729873194278409500,0.356409423828125,0.14597484469413757,-0.05000932142138481,0.4095211923122406,0.4390367567539215,0.3561095893383026,-0.8248834609985352,-0.06985026597976685,-0.022064119577407837,0.07329660654067993,0.9539629418563027,-0.19793487088910955,0.21995467346957576,0.04895433067553719
1729873194288440600,0.366440673828125,-0.028760747984051704,-0.04091835394501686,0.36777135729789734,0.44002214074134827,0.35389748215675354,-0.8253103494644165,-0.027592241764068604,-0.031174033880233765,0.09554356336593628,0.9539787781862755,-0.19720497426198882,0.22012503155561053,0.05079213864721738
1729873194298470400,0.376470458984375,-0.2203962206840515,0.010221104137599468,0.35708409547805786,0.44114020466804504,0.35336849093437195,-0.8249400854110718,-0.02253049612045288,-0.05252614617347717,0.10411489009857178,0.9537799190780141,-0.19741499756294506,0.22035718045087802,0.052669979826156996
1729873194308501500,0.38650146484375,-0.40358415246009827,0.2126719355583191,0.691742479801178,0.44412440061569214,0.35371506214141846,-0.8231884241104126,-0.049882978200912476,-0.08294779062271118,0.10712403059005737,0.9531682203271707,-0.19840880524622306,0.22144913578116585,0.05536006259252947
1729873194318532400,0.396532470703125,-0.3876330256462097,-0.08360866457223892,0.7218921184539795,0.44717761874198914,0.35377347469329834,-0.8215087056159973,-0.019580483436584473,-0.09217673540115356,0.10089719295501709,0.9524951167502888,-0.19953311575482477,0.22233349727290583,0.05922444760797948
1729873194328562400,0.4065625,-0.31735751032829285,-0.1994553804397583,0.696517288684845,0.44843626022338867,0.3535526990890503,-0.8209174871444702,0.1095777153968811,-0.08499795198440552,0.08460462093353271,0.9520871352748678,-0.20041310960470318,0.22220678111372189,0.06315913865289711
1729873194338593500,0.416593505859375,-0.1921946108341217,-0.09477604180574417,0.6558992862701416,0.4495273530483246,0.35261380672454834,-0.8207244873046875,0.05161711573600769,-0.04926905035972595,0.039337217807769775,0.9517861075381453,-0.2008277265250563,0.22204952801495884,0.06682354745458005
1729873194348624400,0.426624267578125,-0.13286258280277252,0.011984222568571568,0.6393035054206848,0.45148465037345886,0.3510231375694275,-0.820331871509552,-0.0141981840133667,0.052358269691467285,-0.0007282495498657227,0.9514484966359716,-0.200854760937288,0.22246667152761726,0.07008419394760446
1729873194358654500,0.436654541015625,-0.17734555900096893,0.02474507875740528,0.6513127684593201,0.4539313018321991,0.34933772683143616,-0.8197008967399597,-0.04614010453224182,0.09229746460914612,-0.013795137405395508,0.9510414985842892,-0.20085763631381254,0.22317203992045415,0.07328467021255085
1729873194368685600,0.446685546875,-0.24458105862140656,-0.033598653972148895,0.6500251293182373,0.45622867345809937,0.3481742739677429,-0.8189201354980469,-0.0515960156917572,0.08093342185020447,0.012798309326171875,0.9505740005203813,-0.2011730511666769,0.22376180630725917,0.07661153233781398
1729873194378716400,0.45671630859375,-0.33027297258377075,-0.0781189352273941,0.6775553226470947,0.45805418491363525,0.3474486768245697,-0.8182089328765869,-0.03587391972541809,0.06313484907150269,0.04577857255935669,0.9500947808982511,-0.20175004978799202,0.22403671504729242,0.08015349721853268
1729873194388746500,0.46674658203125,-0.5248560905456543,-0.08995109051465988,0.6585416793823242,0.459680438041687,0.3478454053401947,-0.8171275854110718,-0.02332475781440735,0.05915233492851257,0.06860774755477905,0.9494869526115256,-0.20297941002874587,0.22413292223578923,0.08389488469560734
1729873194398777600,0.476777587890625,-0.859705924987793,-0.021274078637361526,0.6294045448303223,0.46145960688591003,0.35046544671058655,-0.8150025010108948,-0.02817094326019287,0.06797635555267334,0.08367931842803955,0.9485750455840857,-0.20548365109001315,0.22422138971752129,0.08778795476888554
1729873194408808400,0.486808349609375,-1.2723984718322754,0.018588649109005928,0.5775141716003418,0.4635794758796692,0.3563893735408783,-0.8112217783927917,-0.06337189674377441,0.05291244387626648,0.12060904502868652,0.9471932552168516,-0.2098849837397611,0.22436000696192432,0.0918477127979001
1729873194418838500,0.496838623046875,-1.6815379858016968,0.08092962205410004,0.5794460773468018,0.4660366475582123,0.36572232842445374,-0.8056408166885376,-0.08778643608093262,0.00737038254737854,0.16069763898849487,0.9452879038921597,-0.21628787492232496,0.2244975441559041,0.09618433746106998
1729873194428869400,0.506869384765625,-1.8683973550796509,0.051266010850667953,0.6076787710189819,0.46883994340896606,0.3774730861186981,-0.7985631823539734,-0.09240555763244629,-0.036683231592178345,0.16398072242736816,0.9429180806800578,-0.2242048809251862,0.22461207057692129,0.1009308493678664
1729873194438899500,0.5168994140625,-1.8701039552688599,0.03281616047024727,0.5504032373428345,0.4715203642845154,0.38962918519973755,-0.7911116480827332,-0.08054432272911072,-0.05198267102241516,0.16878199577331543,0.940400309529633,-0.23243410693032973,0.22454075928272094,0.10584495350707324
1729873194448930600,0.5269306640625,-1.8067529201507568,-0.22299352288246155,0.5595096349716187,0.472792387008667,0.4016242027282715,-0.7843248248100281,-0.05885186791419983,-0.03207153081893921,0.09473443031311035,0.9380475777765659,-0.24044211736343246,0.22366308549884723,0.11058620245847256
1729873194458961400,0.53696142578125,-1.7209669351577759,-0.16960324347019196,0.7296794652938843,0.4737416207790375,0.41235440969467163,-0.7781598567962646,-0.04428291320800781,0.021468281745910645,0.0671461820602417,0.9357667599036201,-0.24786827755487104,0.22244409907935667,0.11584791036313645
1729873194468991500,0.546991455078125,-1.5927990674972534,-0.1429269015789032,0.7990857362747192,0.4758239984512329,0.4214755594730377,-0.771977961063385,-0.005197077989578247,0.07423675060272217,0.022496819496154785,0.9333955481515247,-0.2546393392696988,0.2217427085721325,0.12149865565205602
1729873194479022600,0.557022705078125,-1.6716715097427368,-0.1016644686460495,0.5212144255638123,0.4777606427669525,0.43071869015693665,-0.7656541466712952,-0.0011370182037353516,0.06780126690864563,-0.03030526638031006,0.9309997724218599,-0.26140865038846567,0.22099419594687267,0.12675470663036062
1729873194489053400,0.567053466796875,-1.797563076019287,-0.4669359028339386,-0.2596355676651001,0.47642138600349426,0.4430966377258301,-0.7593997716903687,-0.041591644287109375,-0.04699370265007019,-0.0424036979675293,0.9290224767128699,-0.26887638362899796,0.21910180014163264,0.12890757610334042
1729873194499083500,0.57708349609375,-2.6828761100769043,-0.4809369146823883,0.02668938785791397,0.47172021865844727,0.46060502529144287,-0.7518796920776367,-0.10265582799911499,-0.1686280369758606,-0.034954965114593506,0.9266753404401965,-0.2789686911988198,0.21502705544279863,0.1311969693529257
1729873194509114600,0.587114501953125,-3.6851859092712402,-0.4705106317996979,0.7740717530250549,0.47013920545578003,0.48269161581993103,-0.7389032244682312,-0.020172685384750366,-0.26595568656921387,0.08292794227600098,0.9222943996613554,-0.2931091154804917,0.21127097404266776,0.1372033775662332
1729873194519145500,0.5971455078125,-4.495730876922607,-0.41556859016418457,1.1622087955474854,0.47183671593666077,0.5079978704452515,-0.7206305265426636,0.0979875922203064,-0.3780081868171692,0.22497934103012085,0.9158447946593564,-0.3106432419416092,0.2078112660068921,0.14677765055350286
1729873194529175600,0.607175537109375,-4.918148994445801,-0.49607914686203003,1.1573567390441895,0.47485190629959106,0.5359389781951904,-0.6980581879615784,0.0435808002948761,-0.4767500162124634,0.25996315479278564,0.9078184983848641,-0.330646983873844,0.20406733446710498,0.157781115694143
1729873194539206400,0.617206298828125,-5.271244525909424,-0.758858323097229,0.7803892493247986,0.4760254919528961,0.5665135383605957,-0.672653079032898,-0.013241589069366455,-0.3913883566856384,0.2333526611328125,0.8988566402783971,-0.3523815642697534,0.19874778421032913,0.16847357359586893
1729873194549237500,0.627237548828125,-5.21712064743042,-1.0205670595169067,0.6515841484069824,0.4740329384803772,0.5981326103210449,-0.6461657285690308,0.006802082061767578,-0.19052451848983765,0.1350727081298828,0.8895465141042255,-0.3745586271691938,0.19137126407291724,0.17829741270016808
1729873194559267600,0.637267578125,-4.954835891723633,-1.0908422470092773,0.8501046895980835,0.47193315625190735,0.6268666386604309,-0.6199333071708679,0.05614307522773743,-0.05920916795730591,0.04130488634109497,0.8800290992552549,-0.3954479030138985,0.1834510760706697,0.18845540347863873
1729873194569298400,0.64729833984375,-4.888137340545654,-1.0162564516067505,0.9242290258407593,0.47122254967689514,0.6524864435195923,-0.5934734344482422,0.08453315496444702,-0.04622417688369751,-0.0025500059127807617,0.8701409242113816,-0.41514164634338674,0.17584279258213453,0.19897608884621978
1729873194579329500,0.65732958984375,-5.078897476196289,-0.8004615902900696,0.9048520922660828,0.4720703363418579,0.6770365238189697,-0.5645983815193176,-0.020928889513015747,-0.06135958433151245,0.006019949913024902,0.8593819936484535,-0.4349914788570576,0.16876969683304033,0.20919381607543625
1729873194589359600,0.667359619140625,-5.410125732421875,-0.6130850315093994,0.8733210563659668,0.474351704120636,0.7016318440437317,-0.53169846534729,-0.09466716647148132,-0.07589936256408691,0.04270017147064209,0.8473043658108961,-0.45592478605934805,0.16212140182456825,0.21891699839224074
1729873194599390500,0.677390380859375,-5.7749924659729,-0.558687150478363,0.8485574126243591,0.4775415360927582,0.7263403534889221,-0.4943520426750183,-0.10083246231079102,-0.11995601654052734,0.11337065696716309,0.8336891076346435,-0.47818932559037675,0.15543148468480739,0.2283389241459236
1729873194609420500,0.687420654296875,-6.042831897735596,-0.6543415188789368,0.8348077535629272,0.48089614510536194,0.7504315972328186,-0.45342200994491577,-0.059845030307769775,-0.17659425735473633,0.15651661157608032,0.8186325328786956,-0.5013600786428414,0.14807788471676403,0.23780651403658581
1729873194619451600,0.69745166015625,-6.176943302154541,-0.7830849289894104,0.7857432961463928,0.4840250313282013,0.7730274200439453,-0.4100590944290161,0.01003938913345337,-0.18649476766586304,0.15810608863830566,0.8023991153079764,-0.5248029778371279,0.1398294876496576,0.24735654998000267
1729873194629482500,0.707482421875,-6.15677547454834,-1.0050777196884155,0.6974411606788635,0.48634564876556396,0.7934530377388,-0.36592379212379456,0.07508629560470581,-0.13735562562942505,0.1985197365283966,0.7854665800942602,-0.5477459414807316,0.13043195405747943,0.25691269098955555
1729873194639512600,0.7175126953125,-5.739048004150391,-1.255911111831665,0.6642240285873413,0.48788437247276306,0.8108060359954834,-0.32336142659187317,0.1212313175201416,-0.05830353498458862,0.21020233631134033,0.768558560145505,-0.5691198713567946,0.12009106199578146,0.26645559923636114
1729873194649543400,0.72754345703125,-5.22829532623291,-1.3803437948226929,0.7137910723686218,0.4894712269306183,0.8241921663284302,-0.28482532501220703,0.15080291032791138,0.0286826491355896,0.1503649353981018,0.7524592895608772,-0.5878635758663442,0.10956166037727572,0.276075823859472
1729873194659574500,0.737574462890625,-4.670628547668457,-1.4094350337982178,0.8052908778190613,0.4920201897621155,0.8337357640266418,-0.2506014108657837,0.14591935276985168,0.13139796257019043,0.11914700269699097,0.7373372510616346,-0.6039679288350496,0.0996094413347995,0.28571771886682806
1729873194669604600,0.7476044921875,-4.303584098815918,-1.254389762878418,0.9136953949928284,0.4960452914237976,0.8400647044181824,-0.21961471438407898,0.09103670716285706,0.1804584264755249,0.11443597078323364,0.7229973051641553,-0.6180197114014925,0.09079803292875656,0.29509723416378875
1729873194679635500,0.757635498046875,-4.151722431182861,-1.0810116529464722,0.9839791655540466,0.5017728209495544,0.8438815474510193,-0.18996824324131012,0.031155705451965332,0.1266232132911682,0.09667611122131348,0.7089129790184953,-0.6309296109066981,0.08332887233681836,0.30401727666506023
1729873194689666600,0.76766650390625,-3.974147081375122,-0.8917851448059082,0.9485577940940857,0.5083015561103821,0.8461454510688782,-0.1602112054824829,-0.015335798263549805,-0.010925054550170898,0.10712599754333496,0.6947108892809039,-0.6434424712831545,0.07665626035802414,0.31222192802967785
1729873194699696600,0.777696533203125,-4.017049312591553,-0.7630467414855957,0.8323078751564026,0.5146564245223999,0.8473780751228333,-0.13068780303001404,-0.03675103187561035,-0.06965279579162598,0.012829005718231201,0.680666118294695,-0.6555123543724732,0.07042479705546643,0.3194332322339302
1729873194709727500,0.7877275390625,-4.018533229827881,-0.6384204030036926,0.7918323278427124,0.5206757187843323,0.8478665351867676,-0.10009612143039703,-0.02099609375,-0.03193330764770508,0.0068040043115615845,0.6662302122038636,-0.667707250583169,0.0641791692839561,0.3258609963781022
1729873194719758600,0.797758544921875,-3.715642213821411,-0.6728283166885376,0.7963528037071228,0.5268574953079224,0.8470149636268616,-0.07062067091464996,0.04389762878417969,0.0340123176574707,-0.01437067985534668,0.6520294760759381,-0.6791861727958949,0.0582735523935644,0.33191587029472985
1729873194729788400,0.807788330078125,-3.480220317840576,-0.6823831796646118,0.7262551784515381,0.532984733581543,0.8449955582618713,-0.04370503127574921,0.1049852967262268,0.05191612243652344,-0.08568942546844482,0.6386029334460429,-0.689470204672817,0.05270979012388316,0.3376966051315772
1729873194739819500,0.817819580078125,-3.210020065307617,-0.7218160033226013,0.6200035810470581,0.5384482741355896,0.8424413204193115,-0.019135016947984695,0.10913479328155518,0.0779382586479187,0.009888293221592903,0.625976253964481,-0.6987226220889888,0.047108271867466266,0.3431053487159948
1729873194749850600,0.8278505859375,-2.9089694023132324,-0.7671038508415222,0.6386457085609436,0.5436241030693054,0.8393248915672302,0.0026067530270665884,0.10629355907440186,0.08938610553741455,0.016237974166870117,0.6142884676408158,-0.7068003310560473,0.041673354730643195,0.3483481708663918
1729873194759880400,0.83788037109375,-2.7296812534332275,-0.7071630954742432,0.6792882084846497,0.549281120300293,0.8353450298309326,0.022122172638773918,0.11967957019805908,0.07296502590179443,-0.0007292013615369797,0.6032538436386499,-0.7139374257552837,0.03680269830294899,0.353587298414563
1729873194769911600,0.84791162109375,-2.4835612773895264,-0.5544978976249695,0.6971681714057922,0.5552314519882202,0.8307123780250549,0.04043927416205406,0.09358763694763184,0.08830934762954712,0.018856529146432877,0.5927457633171146,-0.7205196326551989,0.03272760833793448,0.35837549850437517
1729873194779941600,0.857941650390625,-2.2451837062835693,-0.470130056142807,0.7204968929290771,0.5614124536514282,0.8255523443222046,0.05726984515786171,0.057713091373443604,0.07033711671829224,0.027569182217121124,0.5829482287362612,-0.7264718658735223,0.029555905834166292,0.362679793987367
1729873194789972500,0.867972412109375,-2.0684139728546143,-0.4314340651035309,0.6595550179481506,0.5674460530281067,0.8202208876609802,0.07240775227546692,0.05225926637649536,0.03863537311553955,0.03065025806427002,0.5739138631360201,-0.7317654249005814,0.026893088895668136,0.36663211065768425
1729873194800003600,0.878003662109375,-2.171708345413208,-0.3041909337043762,0.5690112709999084,0.5727706551551819,0.8150148987770081,0.08766338229179382,0.031752169132232666,0.04136943817138672,0.01701200008392334,0.5650272530232214,-0.7370528832553088,0.02418135368691776,0.3700171454007199
1729873194810033700,0.88803369140625,-2.349945306777954,-0.2454139143228531,0.549166202545166,0.5775739550590515,0.8095918297767639,0.10473549365997314,0.011369645595550537,0.028985440731048584,0.0961923599243164,0.555534165105252,-0.7429111066027683,0.021232837198521294,0.3728459605754588
1729873194820064500,0.898064453125,-1.9807482957839966,-0.32211726903915405,0.468296617269516,0.5821024179458618,0.8041180968284607,0.12062602490186691,0.041188597679138184,0.01326453685760498,0.07596823573112488,0.5464694465679236,-0.748316849068854,0.01830047707952701,0.3755769399505609
1729873194830094600,0.908094482421875,-2.176530599594116,-0.23283478617668152,0.38178250193595886,0.5858438014984131,0.7990424633026123,0.13534459471702576,0.06463837623596191,0.08586043119430542,-0.15496733784675598,0.5380344736227927,-0.7532854974449661,0.015272735171097703,0.3779505146812312
1729873194840124700,0.918124755859375,-2.3587536811828613,-0.13878744840621948,0.3699234426021576,0.589111864566803,0.7935042381286621,0.15263739228248596,0.03864997625350952,0.14839023351669312,-0.022144094109535217,0.5286050885382751,-0.7590643892838945,0.011829956747993179,0.37981306232361883
1729873194850155500,0.928155517578125,-2.174116373062134,-0.14279337227344513,0.3840363323688507,0.5923224687576294,0.7875752449035645,0.16993947327136993,0.05541318655014038,0.07608741521835327,-0.008501425385475159,0.5191763232507868,-0.7647850748108466,0.008574875407709603,0.3814265853668463
1729873194860186600,0.9381865234375,-2.0111849308013916,-0.105536550283432,0.4021975100040436,0.5956835150718689,0.7814924716949463,0.18555502593517303,0.06970655918121338,0.02704012393951416,-0.0792926698923111,0.5104006156954289,-0.7698988263461591,0.005771326485500363,0.38303222241135004
1729873194870216700,0.948216796875,-2.0352466106414795,-0.029575470834970474,0.40277647972106934,0.598945140838623,0.7751590013504028,0.20098109543323517,0.03597313165664673,0.05250823497772217,-0.017539873719215393,0.5017881711951253,-0.77490632634953,0.0032765973396315243,0.38434116234250787
1729873194880247600,0.95824755859375,-1.9740325212478638,0.029704896733164787,0.4389597773551941,0.602174699306488,0.7684116363525391,0.2166311889886856,-0.006868302822113037,0.06439769268035889,-0.002382427453994751,0.49311757297639897,-0.7799452048501172,0.0010349566641932855,0.3853822047471377
1729873194890278700,0.968278564453125,-1.8879820108413696,0.12274669110774994,0.4610845148563385,0.6055095791816711,0.7613129615783691,0.23186419904232025,-0.011057555675506592,0.07465511560440063,-0.057135701179504395,0.48466244630284483,-0.7848130664665878,-0.0007432472224886327,0.38622575283650856
1729873194900308700,0.978308837890625,-1.739345669746399,0.245212584733963,0.40341323614120483,0.6083940863609314,0.7542875409126282,0.24679391086101532,-0.011378586292266846,0.10308855772018433,-0.07462882995605469,0.4766460193288209,-0.7895521501838629,-0.00208746700703656,0.38653812939610616
1729873194910339600,0.988339599609375,-1.7344914674758911,0.2869277894496918,0.29395490884780884,0.6103416085243225,0.7477642297744751,0.26140451431274414,-0.022786498069763184,0.12821239233016968,-0.0331023633480072,0.4691447260001945,-0.7941604508954286,-0.0033809127355833306,0.3862656936946419
1729873194920369700,0.99836962890625,-1.826346516609192,0.24464356899261475,0.2889460325241089,0.6117419004440308,0.741167426109314,0.27648329734802246,-0.018220722675323486,0.1774880290031433,0.05121457576751709,0.46141783206238385,-0.7988840476450074,-0.0050914901232110895,0.3858135172962424
1729873194930400500,1.008400390625,-1.6032066345214844,0.22871972620487213,0.3626612722873688,0.6134846210479736,0.7342779636383057,0.29064249992370605,0.009455621242523193,0.2236689329147339,0.07132664322853088,0.453871730223895,-0.8032917224512619,-0.006606940715614506,0.38558969172934343
1729873194940431600,1.018431640625,-1.2727258205413818,0.2420552372932434,0.40533551573753357,0.6156336069107056,0.7275752425193787,0.3027035892009735,0.012067198753356934,0.21967506408691406,-0.06576505303382874,0.4473040601112022,-0.8070310115968925,-0.007262722100640582,0.3854442445395813
1729873194950461700,1.028461669921875,-1.0629595518112183,0.3540475368499756,0.4021865725517273,0.6177300214767456,0.7214019894599915,0.3130316734313965,-0.03391343355178833,0.15501701831817627,-0.10760250687599182,0.4417499842685855,-0.810224397983964,-0.007229341522423918,0.38515079877109143
1729873194960492500,1.038492431640625,-0.7449375987052917,0.5479267835617065,0.27649229764938354,0.6187410950660706,0.7164385914802551,0.3222968876361847,-0.08360004425048828,0.018928229808807373,-0.12504640221595764,0.4374562099823534,-0.8130836464300353,-0.006590008917493004,0.384035983773865
1729873194970523600,1.048523681640625,-0.7224938273429871,0.6316848397254944,0.2523273229598999,0.6186127662658691,0.7125000953674316,0.3311529755592346,-0.1548370122909546,-0.07742923498153687,-0.09036922454833984,0.43405128357589046,-0.8158093664998917,-0.005618363066978747,0.3821297559534937
1729873194980553700,1.0585537109375,-0.6911569833755493,0.6272874474525452,0.3459853529930115,0.6186109781265259,0.7082226872444153,0.34020742774009705,-0.13303053379058838,-0.009431242942810059,-0.07319381833076477,0.4305420256278308,-0.818586767781473,-0.004406831527534617,0.3801708463558689
1729873194990584600,1.06858447265625,-0.5180770754814148,0.6400913596153259,0.38656580448150635,0.6190892457962036,0.7038148045539856,0.34838682413101196,-0.06882673501968384,0.09109175205230713,-0.12464717030525208,0.42736685990113454,-0.8210885537139552,-0.0026465395060382736,0.3783704736178265
1729873195000615700,1.07861572265625,-0.4700269103050232,0.6759960651397705,0.31988078355789185,0.6192972660064697,0.6998381018638611,0.35594600439071655,-0.05019015073776245,0.10802316665649414,-0.19954326748847961,0.424657588560478,-0.8233908679691843,-0.0006903976239187976,0.37642124636469815
1729873195010645500,1.0886455078125,-0.4727816581726074,0.639883279800415,0.2695228159427643,0.6189412474632263,0.6963231563568115,0.3633815348148346,-0.05448800325393677,0.06133675575256348,-0.15680789947509766,0.42215358419977467,-0.8256450166105243,0.0010350946346754765,0.3742936118288395
1729873195020676600,1.098676513671875,-0.41312453150749207,0.5601474046707153,0.3340437412261963,0.618797242641449,0.6928678750991821,0.3701685667037964,-0.04558539390563965,0.015887856483459473,-0.09580007195472717,0.41977462445665764,-0.8276937349003776,0.002714330283840901,0.3724315064534784
1729873195030707700,1.108707763671875,-0.37064364552497864,0.5838655233383179,0.4655144214630127,0.6194822788238525,0.6888732314109802,0.3764251470565796,-0.016943037509918213,-0.0029448270797729492,-0.11209696531295776,0.41735962430551904,-0.8295717003666236,0.004833952399087218,0.3709427761336831
1729873195040737500,1.118737548828125,-0.22860635817050934,0.6841916441917419,0.5485517978668213,0.6205909252166748,0.6845278739929199,0.38247737288475037,0.0038904547691345215,-0.023730695247650146,-0.12348979711532593,0.4151203066502776,-0.8313717132960484,0.007730243321470641,0.3693732662811269
1729873195050768600,1.1287685546875,-0.006482740398496389,0.7622771263122559,0.5814812183380127,0.6216582655906677,0.680543839931488,0.3878156840801239,0.016433775424957275,-0.04818922281265259,-0.08956736326217651,0.4135472594620739,-0.8329334581218404,0.011388323655071395,0.3675197672145778
1729873195060799500,1.138799560546875,0.11747795343399048,0.7120888233184814,0.6498408317565918,0.6229144334793091,0.6769476532936096,0.39207136631011963,0.06493663787841797,-0.025809288024902344,-0.0399746298789978,0.4126128292279708,-0.8341417054138873,0.015598019514216608,0.3656708193499091
1729873195070829600,1.14882958984375,0.21280686557292938,0.5946942567825317,0.7502595782279968,0.6250784397125244,0.6732199192047119,0.39503443241119385,0.14753520488739014,0.03129369020462036,0.029175281524658203,0.4119728391784315,-0.8349307250281396,0.020196372039322123,0.3643641805736466
1729873195080860700,1.158860595703125,0.16949768364429474,0.458833783864975,0.7795077562332153,0.6281898617744446,0.6691896915435791,0.3969416320323944,0.1993401050567627,0.04905670881271362,0.06283622980117798,0.4113765668567553,-0.8353745008591908,0.024904950357621046,0.36372861834866804
1729873195090890800,1.168890869140625,-0.005842450074851513,0.3244493305683136,0.7022846341133118,0.6316469311714172,0.6647476553916931,0.3989144265651703,0.17775559425354004,0.01730489730834961,0.1192740797996521,0.41027522684290374,-0.8358323978717316,0.02900722435652771,0.36361657174223655
1729873195100921600,1.178921630859375,-0.38217654824256897,0.2605614960193634,0.6081842184066772,0.634770929813385,0.659870445728302,0.40204107761383057,0.11478662490844727,-0.040973961353302,0.16459417343139648,0.40827568697695815,-0.8366566521087326,0.03203404998009635,0.3637175945653829
1729873195110952700,1.18895263671875,-0.8632776141166687,0.19840838015079498,0.5751362442970276,0.6377606391906738,0.6535764932632446,0.40755316615104675,0.06223642826080322,-0.08877235651016235,0.22095650434494019,0.40453454751631085,-0.8382328596846768,0.03379728316138192,0.3641090430082865
1729873195120982500,1.198982421875,-1.1539846658706665,0.2754361033439636,0.6162592172622681,0.6406804919242859,0.6455352306365967,0.4157080352306366,0.04329484701156616,-0.11843562126159668,0.17276251316070557,0.39908795427692206,-0.8406174757224093,0.03487517765502908,0.3645201096756391
1729873195131013600,1.209013671875,-1.1459776163101196,0.43449074029922485,0.6586772203445435,0.6432556509971619,0.6364834904670715,0.42557185888290405,0.025705039501190186,-0.10100668668746948,0.064250648021698,0.3929442096434122,-0.8434888925019396,0.03622739996905123,0.36442980042941875
1729873195141044700,1.219044677734375,-1.2156327962875366,0.26708027720451355,0.6661244630813599,0.6458602547645569,0.6271479725837708,0.4353739023208618,0.001570284366607666,-0.003688991069793701,0.02889019250869751,0.3866705401117067,-0.8463322069252327,0.03753333783916386,0.3644161173577291
1729873195151074600,1.229074462890625,-0.7054405808448792,0.3489716947078705,0.7625897526741028,0.6490803360939026,0.6179881691932678,0.443604975938797,0.0000438690185546875,0.1098102331161499,-0.047471463680267334,0.38097790362691547,-0.8486802649098796,0.039297465803481514,0.3647648187898149
1729873195161105700,1.239105712890625,-0.14429746568202972,0.3747481405735016,0.6655194163322449,0.651910662651062,0.6114250421524048,0.4485221803188324,0.0032102465629577637,0.07280957698822021,-0.23624181747436523,0.37783199319044175,-0.8499817259873174,0.042333846594169416,0.36466696557431677
1729873195171136500,1.249136474609375,-0.10603635758161545,0.3335336148738861,0.5777403116226196,0.6540533304214478,0.6068688035011292,0.45158079266548157,-0.05601537227630615,0.0122719407081604,-0.18458223342895508,0.37612830328343516,-0.8507219597297219,0.04541524071491876,0.36433139856200963
1729873195181166600,1.25916650390625,-0.03500892221927643,0.3261970281600952,0.5634692311286926,0.6560620665550232,0.6028090715408325,0.4540969431400299,-0.03919494152069092,0.0959976315498352,-0.08011916279792786,0.3747094407227757,-0.8513019824591805,0.04830530421879477,0.36406653841646885
1729873195191197700,1.26919775390625,-0.06421554833650589,0.3314322531223297,0.5716139674186707,0.6579954624176025,0.5988085865974426,0.45658591389656067,-0.0038815736770629883,0.14154785871505737,-0.07232367992401123,0.3733716481937919,-0.8518582050357117,0.05128891545545788,0.36373178488677343
1729873195201228500,1.279228515625,0.058760710060596466,0.42778638005256653,0.535428524017334,0.6596015095710754,0.5950042605400085,0.4592345952987671,0.0007532835006713867,0.12431037425994873,0.013849079608917236,0.3721311337096401,-0.8524487512156563,0.054299391463767256,0.36318225104223467
1729873195211258600,1.289258544921875,0.5119308829307556,0.48129382729530334,0.48394909501075745,0.6605311632156372,0.59291011095047,0.4606044590473175,-0.0017786026000976562,0.09684818983078003,-0.022097229957580566,0.37228084289625474,-0.8526149354913364,0.05787923628539915,0.362084022908929
1729873195221289700,1.299289794921875,0.3225327134132385,0.3953811526298523,0.4225906729698181,0.6611506938934326,0.5920618772506714,0.46080639958381653,-0.05230975151062012,0.12458235025405884,0.12226253747940063,0.3733069447075009,-0.8524226691477466,0.06147193775739927,0.36088605956015013
1729873195231320600,1.309320556640625,0.14689722657203674,0.4131859838962555,0.3006035089492798,0.6615471839904785,0.5905926823616028,0.46212106943130493,-0.08044666051864624,0.24128592014312744,0.2792273461818695,0.3734348106691572,-0.8526080874859167,0.06418712033414771,0.3598416348963774
1729873195241350700,1.3193505859375,0.04464169591665268,0.4901264011859894,0.042169276624917984,0.6604036092758179,0.5899306535720825,0.4645959138870239,-0.07896727323532104,0.24936383962631226,0.0851479172706604,0.3734166467052866,-0.8531961673589469,0.06598682110316272,0.3581371229577708
1729873195251381800,1.3293818359375,-0.23237580060958862,0.36983275413513184,-0.08098301291465759,0.6581674814224243,0.5897341370582581,0.46800604462623596,-0.10097742080688477,0.17071819305419922,0.10993605852127075,0.3729672677055128,-0.8541517336093749,0.06654196787479301,0.35621981819872917
1729873195261411300,1.339411376953125,-0.30803173780441284,0.22619888186454773,-0.1096934899687767,0.6562256813049316,0.5889390110969543,0.4717189371585846,-0.05516672134399414,0.17239826917648315,0.21588796377182007,0.3717493950206834,-0.8552681071872427,0.0661508476083775,0.35488440008280653
1729873195271442700,1.349442626953125,-0.18684779107570648,0.1921338587999344,-0.15334881842136383,0.6545034050941467,0.5885898470878601,0.47453930974006653,-0.03557628393173218,0.16272234916687012,0.05941164493560791,0.3708284454333734,-0.8561403400271063,0.06552385461582702,0.35385972839908814
1729873195281473500,1.3594736328125,0.03178069368004799,0.19234110414981842,-0.1915590465068817,0.6525453925132751,0.589346170425415,0.4762941002845764,-0.0886719822883606,0.11423665285110474,-0.13065177202224731,0.37072905675278495,-0.856692353144062,0.06500196666241198,0.352722408143908
1729873195291503400,1.36950341796875,0.18120986223220825,0.1688387095928192,-0.1961444765329361,0.6505390405654907,0.5911011099815369,0.47686347365379333,-0.13235044479370117,0.07908016443252563,-0.16440916061401367,0.37145020320453703,-0.8568828638312018,0.06467992013986065,0.3515581387981573
1729873195301534700,1.37953466796875,0.38414454460144043,0.18692034482955933,-0.24978134036064148,0.6484003067016602,0.5938448905944824,0.47636687755584717,-0.13918399810791016,0.0670589804649353,-0.12980917096138,0.37297075773079896,-0.856746253591712,0.06457011496003137,0.3502990421712073
1729873195311565600,1.389565673828125,0.5750284790992737,0.15992654860019684,-0.2845859229564667,0.6459304690361023,0.5979100465774536,0.4746342897415161,-0.14120018482208252,0.031209826469421387,-0.09066200256347656,0.3754647669844017,-0.8562391994812912,0.06458775847248126,0.3488684167753988
1729873195321595400,1.399595458984375,0.5825304388999939,0.06254231184720993,-0.28555959463119507,0.6436647772789001,0.6025899648666382,0.4717848598957062,-0.09608787298202515,0.012491762638092041,-0.07240122556686401,0.378490044547506,-0.8554038672755032,0.06462699437489151,0.3476389808705417
1729873195331626800,1.409626708984375,0.37418338656425476,0.032430216670036316,-0.2912675440311432,0.6417087912559509,0.6067530512809753,0.46910667419433594,-0.04159575700759888,-0.019869506359100342,-0.03854924440383911,0.3810648661300619,-0.854644904150369,0.06430722327607308,0.3467512407665958
1729873195341657600,1.41965771484375,0.12171737104654312,0.0069383312948048115,-0.2686522305011749,0.6399140357971191,0.6096774339675903,0.4677647054195404,-0.01053464412689209,-0.11394989490509033,0.010888338088989258,0.38257601991242657,-0.8543074141984062,0.06357044021540954,0.3460539768392788
1729873195351687400,1.4296875,0.012915259227156639,-0.055391889065504074,-0.26430782675743103,0.6383585929870605,0.6116767525672913,0.4672800600528717,0.02140122652053833,-0.2032446265220642,0.09352648258209229,0.38331318731382125,-0.8542434745266722,0.06251491593147773,0.3455882310862633
1729873195361718500,1.439718505859375,-0.025681668892502785,-0.18792584538459778,-0.22772450745105743,0.6374025344848633,0.6131954193115234,0.4665933847427368,0.055834829807281494,-0.1933346390724182,0.09483855962753296,0.3837187171458076,-0.8541380906280285,0.06119483123824961,0.34563457722525665
1729873195371749600,1.44974951171875,0.05378785729408264,-0.2444775551557541,-0.21413946151733398,0.637091875076294,0.6146214008331299,0.46513986587524414,0.07421207427978516,-0.10555756092071533,0.09037184715270996,0.38419966939407624,-0.8538069770620438,0.0598629739672163,0.3461515590612124
1729873195381779500,1.459779541015625,0.11402050405740738,-0.28268933296203613,-0.20165109634399414,0.6370319724082947,0.6163425445556641,0.4629388749599457,0.04781311750411987,-0.05358314514160156,0.06709051132202148,0.3849941157587607,-0.8532501237076219,0.05859752395831838,0.3468575770884091
1729873195391810300,1.469810302734375,0.032051071524620056,-0.34527549147605896,-0.19033798575401306,0.637275755405426,0.6179916262626648,0.4603983759880066,0.0080643892288208,-0.03995811939239502,0.07964092493057251,0.3858050115020936,-0.8525916632792595,0.057329206372915505,0.3477866262294187
1729873195401841700,1.479841552734375,-0.29978838562965393,-0.32059526443481445,-0.2509904205799103,0.6374937891960144,0.6187651753425598,0.4590551555156708,-0.024258196353912354,-0.07651364803314209,0.11137950420379639,0.3857126658494595,-0.8523177072745878,0.05551663802942111,0.34885279258623586
1729873195411871500,1.48987158203125,-0.6198018193244934,-0.29771658778190613,-0.3151038885116577,0.6371164917945862,0.6184216141700745,0.4600406289100647,-0.06089884042739868,-0.15252506732940674,0.14188820123672485,0.3842850696028099,-0.8527735768343812,0.05289176002055307,0.3497208934568386
1729873195421902300,1.49990234375,-0.727117657661438,-0.35705068707466125,-0.34381890296936035,0.6365504860877991,0.6173161864280701,0.4623033106327057,-0.0564723014831543,-0.19615846872329712,0.14809414744377136,0.38195974526287524,-0.8536337255864503,0.04960967178489386,0.3506496272828813
1729873195431932400,1.509932373046875,-0.5202898979187012,-0.4527719020843506,-0.3443946838378906,0.6363204717636108,0.6166176795959473,0.4635505974292755,-0.010465860366821289,-0.16768884658813477,0.09104549884796143,0.3799881964680016,-0.8541879159477196,0.04624175474039524,0.3519002209849181
1729873195441963500,1.519963623046875,-0.3142254948616028,-0.40267980098724365,-0.25959694385528564,0.6364477872848511,0.616584062576294,0.46342045068740845,0.0284540057182312,-0.08508992195129395,-0.014155805110931396,0.3788048865302843,-0.8543004474929949,0.0433700848469684,0.3532657448365192
1729873195451994400,1.529994384765625,0.01503733266144991,-0.3453744351863861,-0.14055578410625458,0.6369357705116272,0.6171287298202515,0.462022989988327,0.049496233463287354,0.002317070960998535,-0.016710400581359863,0.37856802444691406,-0.8539824089046,0.04153963370212949,0.35450648099535925
1729873195462024400,1.5400244140625,0.34077268838882446,-0.3358381986618042,-0.07830893248319626,0.6378571391105652,0.6186450123786926,0.4587119519710541,0.06590873003005981,0.017280220985412598,-0.015413552522659302,0.37960949057151705,-0.8530496519950478,0.040770838291522574,0.35572557795147625
1729873195472055600,1.5500556640625,0.4832265079021454,-0.286765992641449,-0.07825194299221039,0.6388078927993774,0.6211002469062805,0.4540477693080902,0.09048610925674438,-0.0007541179656982422,-0.05004066228866577,0.3816500224484056,-0.8516884772013035,0.040627907672724825,0.35681860735146315
1729873195482086400,1.56008642578125,0.2949506342411041,-0.28666797280311584,-0.04913666844367981,0.6396661996841431,0.6233647465705872,0.449715256690979,0.11567449569702148,0.0017573237419128418,0.0012125968933105469,0.3835572314219145,-0.8504203786170924,0.04053158078684868,0.3578076498569902
1729873195492116500,1.570116455078125,0.044922925531864166,-0.3714795410633087,0.036821916699409485,0.6411045789718628,0.6241029500961304,0.44663292169570923,0.14298367500305176,0.012890517711639404,0.15431934595108032,0.3843036695630015,-0.8495310745292503,0.040167378406581446,0.359157940367827
1729873195502147300,1.580147216796875,-0.03300709277391434,-0.4593728184700012,0.08236969262361526,0.6433532238006592,0.623675525188446,0.44398871064186096,0.15199601650238037,-0.01954948902130127,0.19662123918533325,0.3842608051164579,-0.848777064604206,0.03964664866904659,0.36103940666741036
1729873195512178400,1.590178466796875,-0.1258496791124344,-0.5388971567153931,0.07595121115446091,0.6461035013198853,0.6227946877479553,0.4412229061126709,0.09420734643936157,-0.04363203048706055,0.14839214086532593,0.38387611654196985,-0.847997357311835,0.038883582700721786,0.36335640191257845
1729873195522208500,1.60020849609375,-0.20744295418262482,-0.5223270058631897,-0.0077522085048258305,0.6487241387367249,0.6217703223228455,0.43881553411483765,0.011371195316314697,-0.005376219749450684,0.07299482822418213,0.383175925667202,-0.8473400264130888,0.03771806873789871,0.36574384845913727
1729873195532239400,1.6102392578125,-0.2138364017009735,-0.41719526052474976,-0.09749727696180344,0.650456964969635,0.6211556792259216,0.4371175169944763,-0.052220821380615234,0.04562288522720337,-0.06037783622741699,0.38242986883548064,-0.846905809365631,0.03618427640014637,0.3676802595785014
1729873195542270500,1.6202705078125,-0.09187214076519012,-0.3208499252796173,-0.12223431468009949,0.6513589024543762,0.6211844086647034,0.4357312321662903,-0.07730793952941895,0.08621299266815186,-0.11984363198280334,0.3820130156384075,-0.8465588467966298,0.034694909093911604,0.36905353916658923
1729873195552300500,1.630300537109375,0.09254111349582672,-0.3018421530723572,-0.0973699763417244,0.651989758014679,0.6218948364257812,0.4337697923183441,-0.05317378044128418,0.08725732564926147,-0.11148884892463684,0.3822620660905798,-0.8460216243216295,0.03364980166029069,0.3701227272574429
1729873195562331400,1.640331298828125,0.2619755268096924,-0.32616063952445984,-0.04251471534371376,0.6529388427734375,0.6230922937393188,0.4306124448776245,-0.01368701457977295,0.05114781856536865,-0.09378981590270996,0.3831784832045382,-0.84511068343202,0.03307809807848701,0.3713059243337215
1729873195572361500,1.650361572265625,0.3669586777687073,-0.32288044691085815,-0.018734818324446678,0.6541684865951538,0.6246476173400879,0.426472932100296,0.014395415782928467,-0.01063394546508789,-0.07066833972930908,0.3846520785987463,-0.8438898246946346,0.03296093218641994,0.3725673055640536
1729873195582392600,1.660392578125,0.24059581756591797,-0.32777947187423706,-0.0305456705391407,0.6554085612297058,0.6261333227157593,0.4223708510398865,0.01712268590927124,-0.060016930103302,-0.016151130199432373,0.3860761007653998,-0.8426790138896805,0.03282527616586263,0.37384487998254323
1729873195592423400,1.67042333984375,0.06657368689775467,-0.2778835594654083,-0.053923167288303375,0.6564486622810364,0.6270112991333008,0.41944271326065063,0.0225217342376709,-0.07259851694107056,0.035284608602523804,0.38681396780426874,-0.8418289746229182,0.032331523663408156,0.37503823080688614
1729873195602453500,1.68045361328125,0.01630379818379879,-0.2721005380153656,-0.06822700053453445,0.6571718454360962,0.6275768876075745,0.41745972633361816,0.04725027084350586,-0.07671934366226196,0.04443919658660889,0.3871254201181228,-0.8412672038025971,0.03161249366993858,0.3760373810340433
1729873195612484400,1.690484375,-0.011709993705153465,-0.3198417127132416,-0.002812311053276062,0.6581571698188782,0.6278421878814697,0.4155043065547943,0.06892424821853638,-0.07115572690963745,0.09528380632400513,0.38725368745404226,-0.8407131227578637,0.03088029284671473,0.3772036880665187
1729873195622515500,1.700515380859375,-0.11239718645811081,-0.3623671233654022,0.08438011258840561,0.6598552465438843,0.6273238658905029,0.41358959674835205,0.09112149477005005,-0.052433669567108154,0.11643987894058228,0.386988901777798,-0.8401649993772476,0.030291402598526362,0.37874130089189195
1729873195632545500,1.710545654296875,-0.21245135366916656,-0.3288547098636627,0.13792218267917633,0.6620447039604187,0.6258411407470703,0.4123351573944092,0.0791817307472229,-0.047654926776885986,0.10232874751091003,0.38609715915743126,-0.8398101988643365,0.02977261889285404,0.3804755386088538
1729873195642576400,1.720576416015625,-0.10193303227424622,-0.24647250771522522,0.13842551410198212,0.6641159653663635,0.6241803765296936,0.4115208387374878,0.0475541353225708,-0.06233644485473633,0.025170624256134033,0.3851432918631419,-0.8395774527085877,0.02949788068067918,0.38197435945546576
1729873195652607500,1.730607421875,0.05185253918170929,-0.20076148211956024,0.11479980498552322,0.6658557057380676,0.6232417821884155,0.41012904047966003,0.01992011070251465,-0.0666927695274353,-0.09248679876327515,0.38484883287194416,-0.83916052334755,0.029565861784659704,0.3831799232448518
1729873195662637600,1.740637451171875,0.2035236954689026,-0.15377965569496155,0.10956136882305145,0.6672608256340027,0.6230123043060303,0.4081895351409912,0.0040190815925598145,-0.003581821918487549,-0.12967076897621155,0.38518369972648875,-0.8385695175312166,0.02993210590363248,0.3841077690005708
1729873195672668400,1.75066845703125,0.32424211502075195,-0.10138116776943207,0.12135305255651474,0.6685267686843872,0.6233165860176086,0.40564632415771484,-0.0005425810813903809,0.06943249702453613,-0.09863930940628052,0.38610668178661334,-0.8377831072374579,0.030702336619709433,0.3848358802987159
1729873195682699500,1.760699462890625,0.32129374146461487,-0.07020087540149689,0.11260110139846802,0.6695997714996338,0.623857319355011,0.4030361473560333,0.001359701156616211,0.08382999897003174,-0.06558793783187866,0.38727789148087954,-0.8369671969846085,0.03168573964724524,0.38535405910569126
1729873195692729600,1.7707294921875,0.17493411898612976,-0.07643533498048782,0.09962031990289688,0.67054682970047,0.6241828799247742,0.40095236897468567,0.0002601146697998047,0.049431562423706055,0.010684072971343994,0.38815779337386136,-0.8363141751851964,0.03247738686586153,0.38582040139175616
1729873195702760400,1.780760498046875,-0.054625701159238815,-0.12407508492469788,0.1149958148598671,0.6715880632400513,0.6237173080444336,0.39993301033973694,0.0024385452270507812,-0.017668724060058594,0.083984375,0.3882254853441783,-0.8359946336809291,0.03285548352089769,0.3864124046638564
1729873195712791600,1.79079150390625,-0.26854145526885986,-0.20886613428592682,0.14532870054244995,0.6730846762657166,0.6221570372581482,0.3998469114303589,0.004466593265533447,-0.07551097869873047,0.12426203489303589,0.38729274135920383,-0.8359729921527584,0.03275084325177079,0.3874026909985634
1729873195722821400,1.8008212890625,-0.28095918893814087,-0.18594446778297424,0.16787847876548767,0.6749117374420166,0.619891881942749,0.4002854526042938,-0.004791378974914551,-0.10173392295837402,0.08401334285736084,0.38578399745743724,-0.836115536356183,0.032458302303000106,0.3886232958536186
1729873195732852500,1.8108525390625,-0.16216541826725006,-0.18313750624656677,0.16655968129634857,0.6766704320907593,0.6178381443023682,0.4004919230937958,-0.035694241523742676,-0.08815968036651611,-0.01761820912361145,0.3845301923741646,-0.8361804924610665,0.03237500104325595,0.3897317227341773
1729873195742882600,1.820882568359375,0.12316161394119263,-0.10634492337703705,0.1785428375005722,0.6783604025840759,0.6165036559104919,0.39968764781951904,-0.0749821662902832,-0.039691030979156494,-0.05181771516799927,0.3840629165402127,-0.8359253434765157,0.03275115205773519,0.3907067964785229
1729873195752913400,1.830913330078125,0.35502889752388,-0.008229008875787258,0.12362871319055557,0.6795660853385925,0.6164600849151611,0.39770272374153137,-0.1010136604309082,-0.011815249919891357,-0.11120349168777466,0.38484161999044564,-0.8352895905141421,0.033803182052887445,0.39121062475146756
1729873195762944500,1.840944580078125,0.3222666382789612,0.005225492641329765,0.09414832293987274,0.6801897883415222,0.6171247959136963,0.39560022950172424,-0.11779636144638062,0.015291094779968262,-0.08616700768470764,0.38607749366808364,-0.8346143260130502,0.03491470288505528,0.3913365896427691
1729873195772974600,1.850974609375,0.381904661655426,0.07646238803863525,0.15074396133422852,0.6807708144187927,0.6176702380180359,0.3937451243400574,-0.0751645565032959,0.020421862602233887,-0.05249744653701782,0.38727236503503265,-0.8340052772099873,0.036163030404850846,0.3913409924964675
1729873195783005400,1.86100537109375,0.41620853543281555,0.09182983636856079,0.21181583404541016,0.6815850138664246,0.6180212497711182,0.39178067445755005,-0.013463497161865234,-0.05912226438522339,-0.112590491771698,0.38861396286663924,-0.833338182349763,0.037918538297105744,0.3912659189580351
1729873195793036500,1.87103662109375,0.14232638478279114,0.11589042842388153,0.15973345935344696,0.682353138923645,0.6178169846534729,0.3907642364501953,0.01611804962158203,-0.13022232055664062,-0.08862483501434326,0.38941157934119724,-0.8329589658372953,0.039515475865390726,0.39112225503657827
1729873195803066400,1.88106640625,-0.12971626222133636,0.038895729929208755,0.0695340558886528,0.682773768901825,0.6170313358306885,0.39127033948898315,0.029476046562194824,-0.10740303993225098,-0.014530807733535767,0.3891656923239482,-0.833081656716307,0.040126344999438755,0.3910433912521845
1729873195813097500,1.891097412109375,-0.16728919744491577,0.044484905898571014,0.08274573087692261,0.6830232739448547,0.6158903241157532,0.392630010843277,0.04784226417541504,-0.05317676067352295,0.032846152782440186,0.38830797913072884,-0.833487817481666,0.04016300663489748,0.3910267307440736
1729873195823128600,1.901128662109375,0.013146687299013138,0.015480580739676952,0.186870276927948,0.6837429404258728,0.614626944065094,0.39335742592811584,0.06500613689422607,-0.023318231105804443,0.05705174803733826,0.38768251659328495,-0.8336836728925618,0.0406232444747372,0.3911825945068084
1729873195833158400,1.911158447265625,0.17027638852596283,0.023229314014315605,0.2437857687473297,0.6850496530532837,0.6134702563285828,0.3928880989551544,0.05971652269363403,-0.019674599170684814,0.037867575883865356,0.38764217769071363,-0.8334855848032413,0.04178317794420287,0.3915219576141856
1729873195843189500,1.921189453125,0.213060662150383,0.06933779269456863,0.193910613656044,0.6862543821334839,0.6127111315727234,0.39196956157684326,0.01998347043991089,-0.012903451919555664,0.004423350095748901,0.38802085490251514,-0.8331382256694706,0.043191223569719425,0.3917334303554544
1729873195853220400,1.931220458984375,0.17337237298488617,0.11666642874479294,0.1884830892086029,0.6870267987251282,0.612186074256897,0.39143651723861694,-0.0327298641204834,-0.007281959056854248,0.035916417837142944,0.38844444733377853,-0.8329071103244884,0.044542144770190126,0.3916538129238729
1729873195863250400,1.94125048828125,0.1255410760641098,0.13528458774089813,0.21364089846611023,0.6877722144126892,0.6113632917404175,0.39141371846199036,-0.03959399461746216,-0.01726233959197998,0.03390991687774658,0.3886371280165404,-0.8328242890236192,0.04594086950560773,0.39147727503862334
1729873195873281500,1.951281494140625,-0.029269546270370483,0.17604613304138184,0.15984398126602173,0.6883603930473328,0.6102456450462341,0.39212271571159363,-0.012960612773895264,-0.030716896057128906,-0.04307788610458374,0.38845181261756734,-0.8329694929390572,0.04715058004540227,0.39120817928233004
1729873195883311600,1.9613115234375,-0.16965588927268982,0.1890946626663208,0.09120099991559982,0.6883450746536255,0.6089875102043152,0.394101083278656,0.0015659332275390625,-0.01139223575592041,-0.044888317584991455,0.3877334076550609,-0.8335234566728218,0.04784549459407194,0.3906563774010176
1729873195893342500,1.971342529296875,-0.23168224096298218,0.12288820743560791,0.09397947788238525,0.6882790923118591,0.6075325608253479,0.39645445346832275,0.017150044441223145,0.021434664726257324,0.05274909734725952,0.386639955646762,-0.834213801753841,0.04810994589611215,0.39023367683183735
1729873195903373600,1.98137353515625,-0.09305039048194885,0.10645171254873276,0.12791161239147186,0.6885238289833069,0.6060368418693542,0.39831480383872986,0.05479288101196289,0.04319417476654053,0.055283308029174805,0.385646868728045,-0.8347508716740241,0.04846014898401024,0.39002465703335853
1729873195913403400,1.9914033203125,0.07955387234687805,0.115690216422081,0.12861043214797974,0.688875675201416,0.6051273345947266,0.39908838272094727,0.06718218326568604,0.06108665466308594,0.028112053871154785,0.38536182461908824,-0.8349376202808194,0.049227575565935225,0.38981043764403134
1729873195923434500,2.0014345703125,0.2240552008152008,0.18643635511398315,0.15150828659534454,0.6891024112701416,0.6047373414039612,0.3992879092693329,0.04426562786102295,0.08763021230697632,0.09058034420013428,0.38565214042589174,-0.8349278023049375,0.05039360534147259,0.38939511191788456
1729873195933465600,2.011465576171875,0.3376046419143677,0.08032748848199844,0.15129204094409943,0.6894728541374207,0.6048305630683899,0.39850661158561707,0.021159589290618896,0.07658118009567261,0.1724621057510376,0.38653645521964286,-0.8346017411994227,0.051896396889752214,0.3890197606159015
1729873195943495400,2.021495361328125,0.23190473020076752,-0.013912889175117016,0.11181467026472092,0.6901828050613403,0.6050655841827393,0.39691752195358276,0.023516595363616943,0.04938381910324097,0.11756318807601929,0.38748986772625227,-0.8340510357381512,0.053081333991078956,0.389092395961529
1729873195953526500,2.031526611328125,0.15793728828430176,0.03313771262764931,0.02619670331478119,0.6907008290290833,0.6053215861320496,0.3956241309642792,0.0436437726020813,0.04628974199295044,-0.06749904155731201,0.38817585710484254,-0.8336190315592855,0.0537714528650116,0.38923971701386784
1729873195963557400,2.041557373046875,0.15355665981769562,0.05470532178878784,0.007375611923635006,0.6906052827835083,0.6059162020683289,0.3948802947998047,0.036247313022613525,0.006220698356628418,-0.15693455934524536,0.3888356537990467,-0.8333684531934866,0.05419559480980984,0.38905894110526157
1729873195973587500,2.05158740234375,0.11811477690935135,-0.005037903785705566,0.09331874549388885,0.6907331943511963,0.6061266660690308,0.3943326771259308,0.030595600605010986,-0.05081361532211304,-0.12857022881507874,0.3892869913563371,-0.8331706763673113,0.05470800720893688,0.38895928195737156
1729873195983618600,2.06161865234375,0.2051285058259964,-0.026762906461954117,0.1953609734773636,0.6917065382003784,0.6056492924690247,0.3933587968349457,0.020116031169891357,-0.08860528469085693,-0.0688195526599884,0.38959173022271737,-0.8328207913008094,0.0555781258525458,0.38928001154490194
1729873195993649400,2.0716494140625,0.33104223012924194,0.03536970540881157,0.19205784797668457,0.6929141283035278,0.6053750514984131,0.3916526138782501,-0.038998425006866455,-0.11762773990631104,-0.03563430905342102,0.39037828422718246,-0.8322149993664308,0.05696050158920893,0.38958793304651024
1729873196003679500,2.081679443359375,0.19356772303581238,0.1307327002286911,0.12252137809991837,0.6934468746185303,0.6053907871246338,0.39068302512168884,-0.13412076234817505,-0.09657132625579834,0.026141315698623657,0.39118395059559946,-0.8318306547677483,0.05830332824617224,0.38940150340968893
1729873196013710600,2.091710693359375,0.04412977024912834,0.20110754668712616,0.042308561503887177,0.6931094527244568,0.6052379012107849,0.39151886105537415,-0.19283455610275269,-0.03797703981399536,0.13033196330070496,0.3913544774303639,-0.8320211369056156,0.05916292478587647,0.38869331900843307
1729873196023741400,2.101741455078125,-0.009386451914906502,0.237136110663414,-0.025994330644607544,0.6921627521514893,0.6052484512329102,0.39317286014556885,-0.17080050706863403,-0.02484995126724243,0.09210246801376343,0.39129287025598536,-0.8324841075106545,0.05963758087860884,0.38768983073247304
1729873196033771500,2.111771484375,0.03219481557607651,0.29730385541915894,-0.029105965048074722,0.6909549832344055,0.6055406928062439,0.39484453201293945,-0.07849752902984619,-0.03741014003753662,-0.03598815202713013,0.3913433175618727,-0.8329583139159621,0.060022600261487556,0.3865596076792214
1729873196043802600,2.121802734375,0.13212966918945312,0.1448352187871933,0.05917968600988388,0.6902654767036438,0.605906069278717,0.39548948407173157,0.023113608360290527,-0.055780887603759766,-0.048229753971099854,0.3917440380271435,-0.8331035128708847,0.06068999672588005,0.3857357195997926
1729873196053832400,2.13183251953125,0.1319948434829712,0.04131089895963669,0.18271733820438385,0.6908509731292725,0.6055465340614319,0.39501678943634033,0.09438157081604004,-0.07241982221603394,-0.008679449558258057,0.3920896399179404,-0.8328881356609258,0.0616907584949605,0.3856906705022432
1729873196063863600,2.141863525390625,-0.06670200824737549,-0.041298918426036835,0.21178628504276276,0.692311704158783,0.6042020320892334,0.3945184648036957,0.10398364067077637,-0.08251923322677612,-0.00514453649520874,0.3918834459069812,-0.8326650234817609,0.06267524878484095,0.38622308757410845
1729873196073894400,2.151894287109375,-0.24077127873897552,-0.014727388508617878,0.1690574586391449,0.6937427520751953,0.6020112633705139,0.39535245299339294,0.04122740030288696,-0.06448996067047119,0.02183815836906433,0.3907388225571329,-0.8328788633673585,0.06315876682697921,0.3868423164331748
1729873196083924500,2.161924560546875,-0.2146291583776474,0.08075635880231857,0.07492695748806,0.6942229270935059,0.6001957058906555,0.3972655236721039,-0.015176236629486084,-0.011343777179718018,-0.04249858856201172,0.38943539050152215,-0.8334454648351735,0.06325672317855914,0.38692041717784187
1729873196093955600,2.17195556640625,-0.06961417198181152,0.18648386001586914,0.01663382351398468,0.6935318112373352,0.5994305610656738,0.3996206521987915,-0.03719019889831543,0.060954511165618896,-0.12424522638320923,0.3886218634056367,-0.8341473222131385,0.06331326544025569,0.38621592718129966
1729873196103986400,2.181986328125,0.15358562767505646,0.1535901427268982,0.026060882955789566,0.6925427317619324,0.599582850933075,0.4011046886444092,-0.024604439735412598,0.08875632286071777,-0.0626646876335144,0.38864380019670236,-0.8345594553890908,0.06374061124197226,0.3852319431467551
1729873196114016500,2.1920166015625,0.33064961433410645,0.12275154143571854,0.09608417749404907,0.6922670006752014,0.600238561630249,0.40059956908226013,0.002053678035736084,0.0451928973197937,0.030598580837249756,0.389543146283416,-0.8343337175088573,0.06470727755949128,0.38465092359250097
1729873196124047600,2.202047607421875,0.3362891972064972,0.014033578336238861,0.13581721484661102,0.6929123997688293,0.6007488369941711,0.3987146317958832,0.016926467418670654,-0.026057124137878418,0.0751928985118866,0.3907942046668206,-0.8336609263740619,0.06608158793789479,0.38460709268433774
1729873196134078500,2.212078369140625,0.03912648931145668,0.018978536128997803,0.12229181081056595,0.6936495900154114,0.6005679368972778,0.3977045714855194,-0.0013581514358520508,-0.09130579233169556,0.08618229627609253,0.3913200132389057,-0.8332807438958995,0.06704837332521717,0.3847291923302125
1729873196144108500,2.222108642578125,-0.19158828258514404,0.011267193593084812,0.04556320980191231,0.6943891644477844,0.5993304252624512,0.39827972650527954,-0.032462894916534424,-0.10700571537017822,0.06267315149307251,0.3906932312415778,-0.8334249626340788,0.06739952429408701,0.38499210594043654
1729873196154139400,2.232139404296875,-0.23199616372585297,0.006209583953022957,0.03684322163462639,0.6947336196899414,0.5979536771774292,0.3997457027435303,-0.04704374074935913,-0.08528894186019897,0.013782799243927002,0.38957285134845565,-0.8338813419528205,0.06719198901105201,0.38517546337888137
1729873196164170500,2.24217041015625,-0.07912205159664154,0.020924294367432594,0.04682688042521477,0.6949419975280762,0.5970627665519714,0.4007145166397095,-0.01954209804534912,-0.028703272342681885,-0.055056989192962646,0.38885636879117946,-0.834180529866071,0.06708278477767926,0.3852708524945908
1729873196174200600,2.25220068359375,-0.0021393911447376013,-0.025038138031959534,0.024231024086475372,0.6951075196266174,0.5972269177436829,0.40018266439437866,-0.0015801191329956055,0.013979196548461914,-0.02989739179611206,0.3890261191204112,-0.8340238546722603,0.06704881969692715,0.3854446201331767
1729873196184231400,2.2622314453125,-0.06362738460302353,-0.02306814305484295,0.014068667776882648,0.6950781345367432,0.5975484251976013,0.3997534215450287,0.007146775722503662,0.03857529163360596,0.012081444263458252,0.38917775810509114,-0.833913039818994,0.06682627393464538,0.3855699015917669
1729873196194261500,2.272261474609375,-0.013310153968632221,-0.03661910444498062,0.01965411752462387,0.6950869560241699,0.5974319577217102,0.3999116122722626,0.018703997135162354,0.02961266040802002,0.0314544141292572,0.38901709402296236,-0.8339722291355731,0.06667928197481224,0.38562925915276663
1729873196204292600,2.282292724609375,0.09505660086870193,-0.06527929753065109,0.050833072513341904,0.69545978307724,0.5970996022224426,0.39975956082344055,0.00609356164932251,-0.010185658931732178,0.04445439577102661,0.38894958621147946,-0.8339110842158155,0.06687365024140114,0.385795809650994
1729873196214323500,2.292323486328125,0.10119093209505081,-0.03602687269449234,0.04886579513549805,0.696093738079071,0.5966110825538635,0.399385541677475,-0.0047942399978637695,-0.0237962007522583,0.0026683509349823,0.3889553545894637,-0.8337623820124157,0.06732805642160292,0.3860323546970733
1729873196224353500,2.302353515625,0.07607518881559372,0.011337127536535263,-0.006135935895144939,0.6963437795639038,0.5962457656860352,0.3994959890842438,-0.015999972820281982,0.0006781816482543945,-0.04485100507736206,0.38891767982777986,-0.8337632194403579,0.06772655633991634,0.3859990721571453
1729873196234384600,2.312384521484375,-0.06312664598226547,0.03453246131539345,-0.052964430302381516,0.6961041688919067,0.5962644219398499,0.39988553524017334,-0.02598363161087036,0.010043680667877197,-0.015409618616104126,0.3888654181956904,-0.8338788464057203,0.0677409623069964,0.3857993973744784
1729873196244415500,2.32241552734375,-0.16329851746559143,0.012327184900641441,-0.024656355381011963,0.6958624124526978,0.5960537791252136,0.40061861276626587,0.0032647252082824707,0.015869319438934326,0.026795417070388794,0.3884584748423834,-0.8341265965647454,0.06739529605716352,0.3857339371494812
1729873196254445600,2.332445556640625,-0.05791537091135979,-0.03184906393289566,0.005764133296906948,0.6958529949188232,0.5958091020584106,0.40099895000457764,0.03818631172180176,0.01245194673538208,0.08288785815238953,0.3881025705484428,-0.8342672091254278,0.06706487769672598,0.3858457533790558
1729873196264476400,2.342476318359375,0.01951603591442108,-0.09634145349264145,0.009393754415214062,0.6960097551345825,0.5959205031394958,0.40056174993515015,0.03867059946060181,0.020290493965148926,0.035305798053741455,0.3881498047529439,-0.8341521474564229,0.06686605252373087,0.3860816316454065
1729873196274507500,2.352507568359375,0.04570876061916351,-0.06362318247556686,-0.03259018063545227,0.6961817145347595,0.5961517095565796,0.3999181091785431,0.015350937843322754,0.06025087833404541,-0.0019840002059936523,0.388319671186133,-0.833971740876774,0.06670970183904924,0.38632744820077747
1729873196284537600,2.36253759765625,-0.02814815565943718,-0.018546203151345253,-0.11178965866565704,0.6958582401275635,0.5965700745582581,0.39985737204551697,-0.014522671699523926,0.07466411590576172,-0.04454106092453003,0.3884142250998289,-0.8339791056431527,0.06638932391413975,0.3862717524894227
1729873196294568400,2.372568359375,-0.1631682813167572,0.07095172256231308,-0.12337734550237656,0.6950826644897461,0.5968650579452515,0.4007653295993805,-0.030775845050811768,0.04826134443283081,-0.04059666395187378,0.3881332196175718,-0.8342998897711867,0.06577508547331666,0.3859665159528416
1729873196304599600,2.382599609375,-0.046379487961530685,-0.032706014811992645,-0.08528215438127518,0.6943924427032471,0.5973604917526245,0.4012226462364197,-0.018092453479766846,-0.020471513271331787,0.04634827375411987,0.3880304723700852,-0.8344873325470491,0.06513224220572517,0.38577330444166874
1729873196314629600,2.392629638671875,-0.015756865963339806,-0.14549115300178528,-0.07028961926698685,0.6942061185836792,0.5981099009513855,0.4004276394844055,-0.004096925258636475,-0.09334927797317505,0.060906678438186646,0.3882953972945838,-0.8342980969595288,0.0645019541866208,0.3860217949663539
1729873196324660500,2.402660400390625,-0.04171396419405937,-0.1421259194612503,-0.088889941573143,0.6941791772842407,0.5984864830970764,0.3999122083187103,0.004124283790588379,-0.07646793127059937,-0.051950603723526,0.38828855732205925,-0.83419463830334,0.06383896766664265,0.38636265913095164
1729873196334690600,2.412690673828125,-0.23047322034835815,-0.1964581310749054,-0.10693764686584473,0.6942117810249329,0.5984064936637878,0.39997467398643494,-0.039884328842163086,-0.05098217725753784,0.04875588417053223,0.3877934785381404,-0.8342854105967366,0.06289036231684517,0.3868189712803524
1729873196344721700,2.4227216796875,-0.32556620240211487,-0.1984841674566269,-0.12560559809207916,0.6943287253379822,0.5978831052780151,0.40055394172668457,-0.0656665563583374,-0.04488939046859741,0.1171157956123352,0.3867699290118489,-0.8345603138157115,0.061530866628314404,0.3874687710989976
1729873196354752500,2.43275244140625,-0.3436586260795593,-0.1706290990114212,-0.21319137513637543,0.6939752697944641,0.5979798436164856,0.4010222554206848,-0.06087273359298706,-0.048953354358673096,0.07456386089324951,0.3858936435300824,-0.8348333567948708,0.05970249231597773,0.3880400864107002
1729873196364782600,2.442782470703125,-0.31577539443969727,-0.1103421151638031,-0.2493584305047989,0.6929115653038025,0.5987913608551025,0.40165022015571594,-0.04113227128982544,-0.01698899269104004,0.013984084129333496,0.3852918984564246,-0.8351647354174708,0.05766255520268967,0.38823342667397176
1729873196374813400,2.4528134765625,-0.18817804753780365,-0.10823981463909149,-0.21130958199501038,0.6917352080345154,0.5997698903083801,0.4022167921066284,0.01979738473892212,0.03543812036514282,-0.015909969806671143,0.38489920929259375,-0.8354578260482918,0.05584463640052449,0.38825784064883756
1729873196384844500,2.462844482421875,-0.007355724461376667,-0.18107029795646667,-0.15529052913188934,0.6911397576332092,0.600517213344574,0.4021262526512146,0.09380298852920532,0.0698624849319458,-0.071513831615448,0.3847727154220254,-0.8355106151719155,0.054636422330715584,0.3884418389244739
1729873196394874600,2.47287451171875,0.17177808284759521,-0.010927856899797916,-0.13880369067192078,0.6908359527587891,0.6014318466186523,0.4012802243232727,0.127599835395813,0.08237552642822266,-0.15178358554840088,0.3851640473586696,-0.8352946156237718,0.054064918456327944,0.38859833811884337
1729873196404905500,2.482905517578125,0.4202396869659424,0.031769804656505585,-0.19456149637699127,0.6899190545082092,0.6036067008972168,0.39958858489990234,0.10483509302139282,0.0493779182434082,-0.1565006971359253,0.38667732535756644,-0.8347876644226163,0.05407262705780868,0.388183570559819
1729873196414936600,2.4929365234375,0.4529760479927063,-0.13754624128341675,-0.24740740656852722,0.6887504458427429,0.6068950891494751,0.3966122269630432,0.054642558097839355,-0.010429084300994873,0.025613844394683838,0.3889850395699181,-0.8339026740445786,0.053967032222866806,0.38779447687027224
1729873196424966700,2.502966552734375,0.1089235469698906,0.0020052515901625156,-0.19743984937667847,0.6877062320709229,0.6095591187477112,0.39433223009109497,0.060554325580596924,-0.03289902210235596,0.09135505557060242,0.39061060317080243,-0.8332554953310557,0.05339846279696675,0.387630332774096
1729873196434997500,2.51299755859375,-0.06331399828195572,0.006801604758948088,-0.13872672617435455,0.6866251826286316,0.6107478141784668,0.39437711238861084,0.07185876369476318,-0.07958930730819702,0.1677415370941162,0.3909874537538608,-0.833308108618744,0.05278407315280499,0.38722134608376746
1729873196445028600,2.523028564453125,-0.20962241291999817,-0.07648023962974548,-0.10574828088283539,0.6859949827194214,0.6110262274742126,0.39504149556159973,0.06141102313995361,-0.17967557907104492,0.20909982919692993,0.3906563059245,-0.8335581261213841,0.05197687840902622,0.38712645887263253
1729873196455058700,2.53305859375,-0.3574747145175934,-0.24332301318645477,-0.12580160796642303,0.6859354972839355,0.610650360584259,0.3957263231277466,0.07631760835647583,-0.17885702848434448,0.06763753294944763,0.3897017110020067,-0.8338464216187381,0.05062915719238475,0.3876462900540295
1729873196465089500,2.543089599609375,-0.42240798473358154,-0.3126116394996643,-0.07447744160890579,0.6864547729492188,0.609792947769165,0.3961474299430847,0.0523453950881958,-0.09390848875045776,0.010453641414642334,0.3882978086633995,-0.8340812626744296,0.04880744720804205,0.3887817505464989
1729873196475119600,2.55311962890625,-0.1154448390007019,-0.2433827817440033,0.042360760271549225,0.6874336004257202,0.6087254881858826,0.39609137177467346,0.014073967933654785,0.006981849670410156,-0.12294366955757141,0.38716794746329447,-0.8341306311455291,0.04766313196343844,0.38994272839618943
1729873196485150500,2.563150390625,0.17428909242153168,-0.21240296959877014,0.051016032695770264,0.6887152791023254,0.6085572242736816,0.39411893486976624,-0.06145685911178589,0.08272695541381836,-0.1826777458190918,0.3873361004137717,-0.8335471209288977,0.047525430137235154,0.39103885755953705
1729873196495181600,2.573181640625,0.193299800157547,-0.011623794212937355,-0.030640747398138046,0.6892859935760498,0.6091709136962891,0.39216867089271545,-0.14482170343399048,0.1563778519630432,-0.19589465856552124,0.3881191253901486,-0.8329486621393655,0.04775838929626268,0.391509171679723
1729873196505211600,2.583211669921875,0.22520901262760162,0.16658195853233337,-0.16289810836315155,0.6883670091629028,0.6106088757514954,0.3915456235408783,-0.17500019073486328,0.18084925413131714,-0.16133618354797363,0.38910877761287366,-0.8327532326794735,0.0479048170618103,0.39092410948935463
1729873196515242500,2.593242431640625,0.3056420385837555,0.12086798995733261,-0.2330646812915802,0.6864827871322632,0.6130712628364563,0.39100533723831177,-0.1407826542854309,0.11591732501983643,-0.09400814771652222,0.3906001396978078,-0.8325907079557606,0.04791007705522316,0.38978059358188144
1729873196525273600,2.603273681640625,0.1630721390247345,-0.047155581414699554,-0.23715023696422577,0.6849155426025391,0.6156497597694397,0.3897002637386322,-0.03345668315887451,0.0500912070274353,-0.06001877784729004,0.39208540631185823,-0.8322231104254036,0.04748500713892004,0.38912592592283896
1729873196535303700,2.6133037109375,-0.029246177524328232,-0.15890368819236755,-0.2385374754667282,0.683840811252594,0.6175081133842468,0.3886459767818451,0.07769495248794556,0.031738102436065674,-0.05116724967956543,0.3928321331818728,-0.8319651747265794,0.046442810947868875,0.3890501538367004
1729873196545334500,2.62333447265625,-0.17550306022167206,-0.3492206931114197,-0.23022282123565674,0.6834042072296143,0.6187239289283752,0.3874785900115967,0.11597335338592529,0.032399117946624756,-0.001721024513244629,0.39291930346291776,-0.8317081404318784,0.044731054226113905,0.38971172680177285
1729873196555365600,2.63336572265625,-0.1484149694442749,-0.3408208191394806,-0.17774736881256104,0.6834786534309387,0.6194109320640564,0.3862474262714386,0.13710856437683105,0.04025697708129883,-0.07571572065353394,0.39263445079351267,-0.8314370468059612,0.04285032655360883,0.3907870254129026
1729873196565395700,2.643395751953125,0.029477523639798164,-0.45180439949035645,-0.1509208083152771,0.6839879155158997,0.6203158497810364,0.3838866353034973,0.1426265835762024,0.003722846508026123,-0.19324326515197754,0.39281541911984114,-0.8308052941452848,0.041302396756378146,0.39211320568072217
1729873196575426600,2.653426513671875,0.20316755771636963,-0.3925091028213501,-0.09866560250520706,0.6848759055137634,0.6215593814849854,0.3802754878997803,0.13777142763137817,-0.037147700786590576,-0.26780274510383606,0.3935619659651267,-0.8297765650778665,0.04010726854047017,0.3936641290346483
1729873196585457700,2.663457763671875,0.517107367515564,-0.34164154529571533,-0.0341060496866703,0.6858503222465515,0.6233803033828735,0.375508189201355,0.148240864276886,-0.05480736494064331,-0.3221328854560852,0.3952863904775301,-0.8283506396230721,0.03986615731159086,0.39496149006170256
1729873196595487500,2.673487548828125,0.5316926836967468,-0.32700908184051514,0.03349189832806587,0.687098503112793,0.625403106212616,0.36981990933418274,0.1544542908668518,-0.09982943534851074,-0.2648240625858307,0.397599528081574,-0.8266122191253558,0.040276439044635036,0.39623821790541586
1729873196605518600,2.6835185546875,0.5440225601196289,-0.438717246055603,0.08070175349712372,0.6888182759284973,0.6269686818122864,0.36392298340797424,0.19040852785110474,-0.13221770524978638,-0.2081305980682373,0.3997764821507205,-0.8247983775857057,0.04085488554568969,0.3977654703838872
1729873196615548700,2.693548583984375,0.31258514523506165,-0.7476977109909058,0.07055670768022537,0.6914913058280945,0.6280363202095032,0.35694608092308044,0.20191091299057007,-0.1912229061126709,-0.1329774558544159,0.40159833334845585,-0.8226792037356965,0.04088968704414386,0.40030723365206405
1729873196625579500,2.70357958984375,-0.03933962434530258,-0.7627267241477966,0.012375430203974247,0.6944860219955444,0.6282012462615967,0.35078853368759155,0.21232861280441284,-0.24796748161315918,-0.16208302974700928,0.40220057826059574,-0.8208607274148437,0.03977356661879661,0.40353504048694966
1729873196635610600,2.713610595703125,-0.14591346681118011,-0.750885009765625,-0.040561020374298096,0.697024941444397,0.6279237866401672,0.3462197184562683,0.1848720908164978,-0.3115633726119995,-0.17712178826332092,0.4019167227124498,-0.8195546651940989,0.03794749906339547,0.4066363750264328
1729873196645640700,2.723640625,0.09719957411289215,-0.7637415528297424,-0.026663582772016525,0.6993741989135742,0.6280339360237122,0.34124740958213806,0.15885668992996216,-0.29990875720977783,-0.13470426201820374,0.40195610915513835,-0.8181156239462951,0.03620124273783754,0.4096435505168832
1729873196655671600,2.733671630859375,0.4571108818054199,-0.8398672342300415,0.07046642899513245,0.702210545539856,0.6288498044013977,0.33383864164352417,0.18165487051010132,-0.16130530834197998,-0.21199718117713928,0.4032142259676032,-0.8158903289928218,0.035246186028073716,0.4129151762261906
1729873196665702700,2.74370263671875,0.583541750907898,-1.0339233875274658,0.1705256551504135,0.7060947418212891,0.6297243237495422,0.32384827733039856,0.1920071244239807,0.03735935688018799,-0.243647962808609,0.40530505133473554,-0.8128347969464472,0.034981915146468354,0.41689777478426965
1729873196675732700,2.753732666015625,0.5756950378417969,-0.932906985282898,0.15820693969726562,0.7103966474533081,0.6303474307060242,0.3130476474761963,0.19251173734664917,0.15337443351745605,-0.2812024652957916,0.40745857864593693,-0.8095129337278197,0.03482297168624749,0.42125255430136505
1729873196685763600,2.763763671875,0.530969500541687,-0.9807379841804504,0.15224811434745789,0.714227020740509,0.6309770941734314,0.30289924144744873,0.16094094514846802,0.05002272129058838,-0.3240325450897217,0.4095767340212574,-0.8063750584079666,0.034769130561402926,0.4252027216635919
1729873196695794700,2.773794677734375,0.17312349379062653,-1.1970919370651245,0.1238553449511528,0.7184149622917175,0.6310997009277344,0.29256364703178406,0.15107673406600952,-0.16813278198242188,-0.2039099931716919,0.4110026358220199,-0.8032019330747808,0.03388928376642604,0.4298780686625029
1729873196705824500,2.783824462890625,-0.2973199784755707,-1.316477656364441,0.06758089363574982,0.722703218460083,0.6301403045654297,0.28394338488578796,0.18504232168197632,-0.26763713359832764,-0.1707383096218109,0.4106611902452772,-0.8006117646462937,0.031503943613683805,0.43518491022551303
1729873196715855600,2.793855712890625,-0.29507091641426086,-1.3956902027130127,-0.06858786195516586,0.7264904379844666,0.6291972994804382,0.27626585960388184,0.15844321250915527,-0.22656357288360596,-0.0815940797328949,0.40952262895936464,-0.7983411746245749,0.028005347848578048,0.4406341521175549
1729873196725886500,2.803886474609375,0.28452399373054504,-1.5562200546264648,-0.09220344573259354,0.7299673557281494,0.6297454237937927,0.26564767956733704,0.10799968242645264,-0.053741395473480225,-0.1174999475479126,0.4097813424907822,-0.7951236576559259,0.024539897741849413,0.44638046994024155
1729873196735916500,2.81391650390625,0.8181423544883728,-1.7209928035736084,-0.08961565047502518,0.733655571937561,0.631912112236023,0.2498733103275299,0.10077136754989624,0.22450262308120728,-0.27027419209480286,0.41252904259584255,-0.7902185998186337,0.022163443597319584,0.4526402294994579
1729873196745947600,2.82394775390625,0.9469237923622131,-1.4664511680603027,-0.007693086285144091,0.7372109889984131,0.6345173716545105,0.23218095302581787,0.09251630306243896,0.4298747181892395,-0.3987305164337158,0.416363605622788,-0.7846447231324208,0.020570212156399887,0.45885837009107305
1729873196755977700,2.833977783203125,1.0083706378936768,-1.366438865661621,0.01143213827162981,0.7404611110687256,0.6366060972213745,0.215522900223732,0.07733368873596191,0.3179684281349182,-0.45888519287109375,0.4203919745084175,-0.779331914890843,0.020080190370646882,0.4642296971791582
1729873196766008600,2.844008544921875,0.5958331823348999,-1.4438588619232178,-0.024380188435316086,0.743297815322876,0.6383806467056274,0.19994711875915527,0.02882760763168335,0.017564237117767334,-0.23748359084129333,0.4237369874570148,-0.7743461469256017,0.019015798019846056,0.46954609657472934
1729873196776039700,2.854039794921875,0.1806573122739792,-1.54427969455719,-0.0588926263153553,0.7460131049156189,0.6393627524375916,0.18622560799121857,0.05571424961090088,-0.03743404150009155,-0.03740657866001129,0.4253909792565947,-0.7699609339544052,0.016521620790817135,0.47532073994702345
1729873196786069500,2.864069580078125,0.04016871750354767,-1.5621135234832764,-0.12165108323097229,0.7481803894042969,0.640220046043396,0.17419685423374176,0.1605873703956604,-0.02205604314804077,-0.10380794107913971,0.42605844156818673,-0.766111596887191,0.013093731642509526,0.48101542360810634
1729873196796100600,2.8741005859375,0.491644024848938,-1.8057760000228882,-0.14915940165519714,0.7501593828201294,0.6415863633155823,0.16008667647838593,0.2043236494064331,0.10633832216262817,-0.11312010884284973,0.42733674453176823,-0.7615461199971689,0.009531376579427105,0.4871754634660958
1729873196806131700,2.884131591796875,1.0855283737182617,-1.992991328239441,-0.21950146555900574,0.7518698573112488,0.6441565155982971,0.1405489444732666,0.24574971199035645,0.3554619550704956,-0.29687511920928955,0.4309206669877759,-0.7551351982988266,0.0067310169621306966,0.4939968459776956
1729873196816161500,2.89416162109375,1.3624882698059082,-1.9358144998550415,-0.27382755279541016,0.7528451681137085,0.6476492881774902,0.11736622452735901,0.16829752922058105,0.606577455997467,-0.27717137336730957,0.43635349464645573,-0.7474367025018669,0.004635516136403461,0.5009117818050923
1729873196826192600,2.904192626953125,1.4112367630004883,-1.934967041015625,-0.3839836120605469,0.7527973651885986,0.6515403985977173,0.09376350790262222,0.09299743175506592,0.5987800359725952,-0.25364506244659424,0.4424061022083713,-0.7395094413392634,0.002746260067107404,0.5073413398562537
1729873196836224300,2.914224365234375,1.2181169986724854,-1.7624554634094238,-0.4134349822998047,0.7516716718673706,0.6557027101516724,0.07101888209581375,0.053000569343566895,0.35333043336868286,-0.22115004062652588,0.44835890163134645,-0.7317849432253646,0.0004888916812675952,0.513288281017122
1729873196846254000,2.924254150390625,0.9540011286735535,-1.6438398361206055,-0.3962765038013458,0.7500295042991638,0.6594337821006775,0.05101856216788292,0.08160507678985596,0.18843603134155273,-0.19271159172058105,0.45339414942161976,-0.7249173959071651,-0.002012379917698237,0.518579286551515
1729873196856285200,2.93428515625,0.4555037319660187,-1.7134015560150146,-0.273159384727478,0.7485359907150269,0.6622326970100403,0.03379613161087036,0.15264827013015747,0.1377246379852295,-0.15812468528747559,0.4567248664934117,-0.7189369347058661,-0.005267813343426667,0.5239318291405703
1729873196866316300,2.94431640625,0.21011275053024292,-1.7990795373916626,-0.22501181066036224,0.7474271059036255,0.6640844941139221,0.018566325306892395,0.2567843794822693,0.02283567190170288,-0.20032894611358643,0.4584551799664154,-0.7135808771508125,-0.00924634407549478,0.5296562793075074
1729873196876346000,2.95434619140625,0.25347834825515747,-2.1124966144561768,-0.2556179463863373,0.7460649013519287,0.66586834192276,0.002598546212539077,0.23863065242767334,-0.08192974328994751,-0.04938197135925293,0.459683244035389,-0.7078855300676306,-0.014048110711915425,0.5360896837073582
1729873196886377200,2.964377197265625,1.0269593000411987,-2.3375349044799805,-0.3058786988258362,0.7440636157989502,0.6678621172904968,-0.018155580386519432,0.18769913911819458,0.0765378475189209,0.05903393030166626,0.4623508061352481,-0.7004121077900756,-0.018576573637450623,0.5434239396614078
1729873196896407000,2.974406982421875,2.1472649574279785,-2.06144380569458,-0.2861159145832062,0.7412927746772766,0.6696386337280273,-0.045491985976696014,0.14913398027420044,0.38968759775161743,-0.09922230243682861,0.46849982403501506,-0.6905305954249459,-0.02053053532161447,0.5506851638964856
1729873196906438100,2.984438232421875,3.034606695175171,-1.8636020421981812,-0.136227086186409,0.7387259602546692,0.6695116758346558,-0.07770788669586182,0.13964641094207764,0.6991560459136963,-0.3388264775276184,0.4779632889047797,-0.6788255563201094,-0.018491089728605456,0.557140256566254
1729873196916469000,2.994468994140625,2.313997507095337,-2.0106351375579834,-0.10265182703733444,0.7361769080162048,0.6677436232566833,-0.11028339713811874,0.199629545211792,0.5865441560745239,-0.3227609395980835,0.4873951548871171,-0.6667907792628532,-0.015759427843184282,0.5635493677789061
1729873196926499000,3.0044990234375,1.0947434902191162,-2.084648609161377,-0.09378349781036377,0.7329987287521362,0.6662804484367371,-0.13705214858055115,0.25455015897750854,0.00031501054763793945,0.01824730634689331,0.49315803265016056,-0.6566643042567072,-0.016306887156399937,0.5703694321186724
1729873196936530200,3.0145302734375,-0.0848427265882492,-2.0754330158233643,-0.14166419208049774,0.7292335629463196,0.6663733720779419,-0.15545181930065155,0.3228294849395752,-0.5713263154029846,0.09929955005645752,0.4948823263644022,-0.6495065387877609,-0.020380132962887286,0.5769034487980842
1729873196946561000,3.02456103515625,-0.4809841215610504,-2.0747640132904053,-0.0818067267537117,0.725136399269104,0.6677191257476807,-0.16831083595752716,0.32288312911987305,-0.5615484714508057,0.19612765312194824,0.4938560915621386,-0.6443005013371055,-0.026859795862370788,0.5833195355089767
1729873196956591000,3.034591064453125,-0.0350940115749836,-2.1047370433807373,-0.07352109998464584,0.7210891842842102,0.6686610579490662,-0.18144714832305908,0.36524516344070435,-0.2394465208053589,0.026433169841766357,0.4927395607593634,-0.6388903279130029,-0.03309950588189131,0.5898571301284921
1729873196966622200,3.044622314453125,0.8166703581809998,-2.2598090171813965,-0.27817144989967346,0.7158549427986145,0.6690373420715332,-0.1998523473739624,0.33936673402786255,0.0737605094909668,-0.04006153345108032,0.4940692389745153,-0.6313809000523293,-0.03784155340255816,0.5965080729688225
1729873196976653000,3.054653076171875,1.693018913269043,-2.176666736602783,-0.41466110944747925,0.7087457776069641,0.6688556671142578,-0.2243029773235321,0.29332953691482544,0.3581829071044922,-0.08084225654602051,0.49865991187946856,-0.6214434058750488,-0.040701387075157934,0.6029012989864349
1729873196986683100,3.06468310546875,1.5631814002990723,-2.3463504314422607,-0.4355410933494568,0.7007868885993958,0.6676083207130432,-0.25139012932777405,0.2818944454193115,0.5831088423728943,-0.005308419466018677,0.5047054296702183,-0.6103408117713328,-0.04229691732000453,0.6090710421422019
1729873196996714200,3.07471435546875,1.0330488681793213,-2.5537216663360596,-0.42026811838150024,0.6915650963783264,0.6667643189430237,-0.2777824401855469,0.29912710189819336,0.44175612926483154,0.21899041533470154,0.5093893194346986,-0.5991810242526716,-0.045726156358283206,0.6159656945791326
1729873197006745000,3.0847451171875,0.49498268961906433,-2.598667860031128,-0.3289472758769989,0.6816728711128235,0.6670048236846924,-0.30071038007736206,0.3341658115386963,-0.10642743110656738,0.039571523666381836,0.5121820281590819,-0.5891034824119719,-0.05100877002096918,0.6229163945866889
1729873197016775200,3.094775146484375,0.22817550599575043,-2.3744986057281494,-0.18438155949115753,0.6722036600112915,0.6676651239395142,-0.31994637846946716,0.28931379318237305,-0.3645644783973694,-0.01562488079071045,0.5133074236742402,-0.5803161481379359,-0.05709619489941969,0.629673530181906
1729873197026806000,3.104805908203125,0.22652873396873474,-2.0956461429595947,-0.04107953980565071,0.6642329096794128,0.6675525307655334,-0.336404949426651,0.21792352199554443,-0.17069584131240845,-0.054494649171829224,0.513568229714394,-0.5726272967743913,-0.06241402874220965,0.635963925283245
1729873197036836000,3.114836181640625,0.348978728055954,-2.053130865097046,-0.16333487629890442,0.656711757183075,0.666972279548645,-0.35196271538734436,0.18807590007781982,-0.04357445240020752,0.028323858976364136,0.5139746043735367,-0.5652784286805147,-0.06692484635456802,0.6417254248648341
1729873197046867200,3.1248671875,0.4573898911476135,-2.111337423324585,-0.44558653235435486,0.6471036672592163,0.6675221920013428,-0.36833542585372925,0.20987576246261597,-0.002498447895050049,0.05458429455757141,0.5153418155736222,-0.5573698606177446,-0.07191053919502903,0.6469857309559649
1729873197056898000,3.13489794921875,1.027907133102417,-2.086373805999756,-0.46682843565940857,0.6361215710639954,0.6677740216255188,-0.38655853271484375,0.2889426350593567,0.23539376258850098,0.004921019077301025,0.5180439792602293,-0.5485470850547944,-0.07626816059668846,0.6518511364036907
1729873197066928000,3.14492822265625,1.6224231719970703,-2.2967517375946045,-0.4348340332508087,0.6244264245033264,0.6652262210845947,-0.4093480706214905,0.38958120346069336,0.4020345211029053,-0.006453871726989746,0.5223213148077074,-0.5377007872175094,-0.07876438911717358,0.65715644997498
1729873197076959200,3.154959228515625,1.897122859954834,-2.599591016769409,-0.39949148893356323,0.6112805604934692,0.6601769328117371,-0.43646615743637085,0.42051881551742554,0.42916327714920044,-0.01665884256362915,0.5274917586526856,-0.5246965025143461,-0.08037726240410574,0.6633141911376819
1729873197086990000,3.164989990234375,1.5678273439407349,-2.6602985858917236,-0.3300761878490448,0.5969364643096924,0.654485285282135,-0.4640215039253235,0.3651302456855774,0.33895343542099,0.04156672954559326,0.5321782522846258,-0.5110610380037485,-0.08249763425846698,0.669923292125393
1729873197097020200,3.175020263671875,0.8376696109771729,-2.6570889949798584,-0.31989786028862,0.5820982456207275,0.6506237387657166,-0.48769915103912354,0.24663716554641724,0.11693912744522095,0.1348549723625183,0.5351408203782047,-0.4986814579230919,-0.0864130827495299,0.6763682500281593
1729873197107051000,3.185051025390625,0.22660429775714874,-2.2938926219940186,-0.44538307189941406,0.5671871304512024,0.6502915620803833,-0.5053907036781311,0.16862225532531738,-0.1143265962600708,-0.01935899257659912,0.5365835181626346,-0.4886515457042981,-0.09232716962661527,0.6817430742939601
1729873197117082000,3.19508203125,0.29781538248062134,-1.9521958827972412,-0.4882413148880005,0.5533418655395508,0.6518393754959106,-0.5185733437538147,0.121310293674469,-0.052474141120910645,-0.09414327144622803,0.5377178053129642,-0.48065946305562013,-0.09838599966584999,0.6856722335144655
1729873197127112200,3.2051123046875,0.6690363883972168,-1.950869083404541,-0.49261876940727234,0.5398866534233093,0.6519937515258789,-0.5323781371116638,0.20529156923294067,0.17954915761947632,-0.09365934133529663,0.5395848597984572,-0.4724106543539172,-0.10314597001880496,0.6892294702656011
1729873197137143000,3.21514306640625,1.1009166240692139,-2.1459410190582275,-0.48762133717536926,0.5256690979003906,0.6496826410293579,-0.5491670370101929,0.3857841491699219,0.24455863237380981,-0.10689979791641235,0.5423026504413789,-0.4626390793875907,-0.10668438316376667,0.6931748493282094
1729873197147173000,3.225173095703125,1.4110605716705322,-2.470297336578369,-0.4667304456233978,0.5095847845077515,0.6451903581619263,-0.5692564249038696,0.4972054362297058,0.0953492522239685,0.02477705478668213,0.5455922631106038,-0.4509211482190093,-0.10973562308618086,0.6978233302042195
1729873197157204200,3.235204345703125,1.9987051486968994,-2.691723108291626,-0.32116177678108215,0.4918672740459442,0.6373196244239807,-0.593203604221344,0.47909533977508545,0.11037635803222656,0.10597527027130127,0.5493174462628563,-0.4369173179873229,-0.11180987939532987,0.7034574630870218
1729873197167235000,3.245235107421875,2.374924421310425,-2.603628158569336,-0.1730189174413681,0.4741820991039276,0.6249170303344727,-0.6201855540275574,0.38824471831321716,0.30414479970932007,0.011161506175994873,0.5534796095880592,-0.42120622849585454,-0.11177007782176039,0.7097556619258367
1729873197177265200,3.25526513671875,1.93557870388031,-2.6602485179901123,-0.12133070081472397,0.4566202163696289,0.6117225885391235,-0.6459826231002808,0.25800999999046326,0.37751996517181396,0.09034907817840576,0.5570423858239547,-0.40565914871746567,-0.11157667328497058,0.716027347028907
1729873197187296300,3.265296142578125,1.5492186546325684,-2.631240129470825,-0.04912468418478966,0.43864747881889343,0.6007465124130249,-0.668350338935852,0.17390143871307373,0.0322948694229126,0.24641430377960205,0.5593058667026982,-0.39123982844870003,-0.11294345395867902,0.7220473323825777
1729873197197327000,3.2753271484375,1.3245570659637451,-2.4406259059906006,-0.03349645435810089,0.42102673649787903,0.5912546515464783,-0.6878622770309448,0.17830806970596313,-0.31700843572616577,0.10941684246063232,0.5607441160837872,-0.37793908504306034,-0.11502564365835674,0.7276657162350038
1729873197207357200,3.285357177734375,1.6087946891784668,-2.2057175636291504,0.21685001254081726,0.40541428327560425,0.5809457898139954,-0.7057912945747375,0.18140828609466553,-0.18449199199676514,0.04566556215286255,0.5617904222334739,-0.3655417004232257,-0.11611897531184352,0.7329989179956622
1729873197217388000,3.295387939453125,1.8332650661468506,-2.201921224594116,0.36237633228302,0.3913293778896332,0.5670575499534607,-0.724780797958374,0.2660498321056366,-0.05141729116439819,-0.027096033096313477,0.5625098632398723,-0.3525831387623366,-0.11530284360006625,0.7388999709076408
1729873197227419100,3.305419189453125,1.6499203443527222,-2.021618127822876,0.44573912024497986,0.3779928386211395,0.5526664853096008,-0.7427524328231812,0.31623631715774536,-0.1414879560470581,-0.013259470462799072,0.5628798302395631,-0.3400178953529019,-0.11406840666687643,0.7446761838522447
1729873197237449200,3.31544921875,1.5246756076812744,-2.1799380779266357,0.47485652565956116,0.365008145570755,0.5386887788772583,-0.7593309879302979,0.32281234860420227,-0.1817246675491333,0.15828728675842285,0.562556215216076,-0.32794742516714365,-0.11307075951443851,0.7504639656500945
1729873197247480000,3.32547998046875,1.0112791061401367,-2.273827075958252,0.21229174733161926,0.34962427616119385,0.5276890397071838,-0.7741492986679077,0.35766640305519104,-0.10114485025405884,0.20229566097259521,0.5620633135251941,-0.3161083949681413,-0.11402113626328454,0.7557510197885505
1729873197257511200,3.33551123046875,0.8522239327430725,-2.474130392074585,0.12281698733568192,0.33206525444984436,0.5200599431991577,-0.7869373559951782,0.3317684233188629,0.17253649234771729,0.22355234622955322,0.5614404438221984,-0.30470844135950675,-0.1169790071885641,0.7604297712273197
1729873197267541200,3.345541259765625,0.6712399125099182,-2.8184633255004883,-0.20997987687587738,0.31079283356666565,0.5138236880302429,-0.7996205687522888,0.4125348627567291,0.21624833345413208,0.08285421133041382,0.561180453322964,-0.29230362159929596,-0.121442637819884,0.7647789521378854
1729873197277572000,3.355572021484375,0.5264907479286194,-2.9144484996795654,-0.2908560633659363,0.28615185618400574,0.510150134563446,-0.8110881447792053,0.35152825713157654,0.18400263786315918,0.023231089115142822,0.561252551783285,-0.2795120301208686,-0.12778477778425176,0.7684658768555896
1729873197287602200,3.365602294921875,0.7015297412872314,-2.9685983657836914,-0.19394497573375702,0.2607049345970154,0.5057376027107239,-0.8223517537117004,0.2733984887599945,0.13270533084869385,0.051828742027282715,0.5610908694973791,-0.26618969614759647,-0.13404166171671128,0.7722388492705831
1729873197297633300,3.37563330078125,0.6575867533683777,-2.656384229660034,0.03269055485725403,0.2367328703403473,0.5003728270530701,-0.8328172564506531,0.17855039238929749,-0.013678491115570068,0.006385982036590576,0.5604111794911644,-0.25324153820848627,-0.13949945586902307,0.7761107735830367
1729873197307664100,3.3856640625,0.7520312070846558,-2.2365920543670654,0.3602343499660492,0.21731753647327423,0.4940681457519531,-0.8418252468109131,0.10153016448020935,-0.016223937273025513,0.007047474384307861,0.5587346486952655,-0.24193736975619137,-0.14336552657166546,0.7802104046376576
1729873197317694200,3.395694091796875,0.6766288876533508,-2.1294162273406982,0.40311071276664734,0.200945183634758,0.4869537353515625,-0.8499982953071594,0.13372588157653809,-0.0331268310546875,0.048347294330596924,0.556487773769248,-0.23168126660846922,-0.14602958913513447,0.7844236892651602
1729873197327725000,3.40572509765625,0.5229697227478027,-2.279639482498169,0.3257003426551819,0.18395096063613892,0.48109713196754456,-0.8571508526802063,0.16663502156734467,0.08257776498794556,0.1497686505317688,0.5541015411304763,-0.22163000339028727,-0.1493476113694003,0.7883825098552579
1729873197337756200,3.415756103515625,0.45711055397987366,-2.5687003135681152,0.07277379184961319,0.163965106010437,0.476570725440979,-0.8637104630470276,0.2876340448856354,0.2674020230770111,0.08037000894546509,0.5519271924910275,-0.21081028512146055,-0.15396032743899468,0.7919796071962453
1729873197347786200,3.4257861328125,0.668516993522644,-2.8381361961364746,-0.15435096621513367,0.14026783406734467,0.47190913558006287,-0.870417594909668,0.3411775231361389,0.38742008805274963,0.02437877655029297,0.5505727567602962,-0.19853208176402792,-0.15929917142677716,0.7950337162375243
1729873197357817000,3.435817138671875,0.9354981184005737,-2.9373626708984375,-0.20631882548332214,0.11379814893007278,0.4649333953857422,-0.8780016899108887,0.3045215606689453,0.42480653524398804,-0.04269838333129883,0.5497413975791627,-0.184452825831973,-0.16424470795864182,0.797988264548609
1729873197367848200,3.44584814453125,1.1837233304977417,-2.547384023666382,-0.09041380137205124,0.0886976420879364,0.45592838525772095,-0.8855857253074646,0.2606523633003235,0.30241814255714417,-0.1528816819190979,0.5489963512971816,-0.17041838295340864,-0.1678234838354421,0.8008719494850705
1729873197377878300,3.455878173828125,1.4820796251296997,-2.349558115005493,0.06409507989883423,0.06686047464609146,0.44377484917640686,-0.8936406373977661,0.18056082725524902,0.06042131781578064,-0.05750072002410889,0.5481096380075857,-0.15683665067950758,-0.1690619690010023,0.803987672817235
1729873197387909000,3.4659091796875,1.3822128772735596,-2.1383776664733887,0.3273637294769287,0.0474800281226635,0.4305891692638397,-0.9012982845306396,0.1381736844778061,-0.05032491683959961,0.08769965171813965,0.5465488622621859,-0.14394084600359608,-0.16920956528869843,0.8074241155068502
1729873197397940200,3.475940185546875,1.047294020652771,-2.0226221084594727,0.5104129314422607,0.030612966045737267,0.419303297996521,-0.9073299169540405,0.19961166381835938,-0.037299543619155884,0.2060512900352478,0.5438583980442224,-0.1325789313256086,-0.16958141913376,0.8110999313984901
1729873197407970300,3.48597021484375,0.44790273904800415,-2.135483503341675,0.4140022397041321,0.013693874701857567,0.41219425201416016,-0.9109930992126465,0.23210997879505157,-0.09792426228523254,0.300382137298584,0.5406662281831782,-0.12245528318515615,-0.1717794079332136,0.8143565501554774
1729873197418001200,3.496001220703125,0.08685746043920517,-2.3408000469207764,0.23292432725429535,-0.005382033996284008,0.41003450751304626,-0.9120541214942932,0.22913694381713867,0.012542366981506348,0.2708798050880432,0.5374891135156907,-0.11296392990859713,-0.1766694332781994,0.8167817830537095
1729873197428032300,3.5060322265625,0.05320042744278908,-2.4842135906219482,-0.0151296965777874,-0.02727569080889225,0.4094502329826355,-0.9119246602058411,0.2618795931339264,0.13144326210021973,0.17365866899490356,0.5348891299363957,-0.10287370119612262,-0.18290621767889118,0.8184472950230856
1729873197438062000,3.51606201171875,0.32054024934768677,-2.4395484924316406,-0.21213676035404205,-0.05031868815422058,0.4079097509384155,-0.911634624004364,0.2705793082714081,0.20264014601707458,-0.024675190448760986,0.5331552184232942,-0.09219521234281777,-0.18889873403646362,0.8194894298464251
1729873197448093200,3.52609326171875,0.7249923944473267,-2.501143217086792,-0.31859421730041504,-0.07387025654315948,0.4028554856777191,-0.9122777581214905,0.2621637284755707,0.2482064962387085,-0.027724742889404297,0.5321589343324997,-0.08041976671364298,-0.19337474874637023,0.820332813120907
1729873197458123300,3.536123291015625,0.9048268795013428,-2.459238052368164,-0.19499851763248444,-0.09782341122627258,0.3950960040092468,-0.9134165048599243,0.21871881186962128,0.2632444500923157,0.15073645114898682,0.531111889002953,-0.06767588736985578,-0.1967529227027929,0.8213577005510644
1729873197468154000,3.546154052734375,1.013161301612854,-2.152167558670044,-0.12103695422410965,-0.1196151152253151,0.38601404428482056,-0.9147050976753235,0.2130141705274582,0.27768224477767944,0.2040117383003235,0.5297084681180882,-0.055399069845777034,-0.19894318968472027,0.8226552532506617
1729873197478185200,3.556185302734375,0.9750947952270508,-2.0019705295562744,-0.02735786885023117,-0.1388237625360489,0.3766724169254303,-0.915885329246521,0.1473839432001114,0.2011321485042572,0.2997353672981262,0.5282593787271074,-0.04415588577395408,-0.20026882987621697,0.8239447022020211
1729873197488215300,3.56621533203125,0.8779568076133728,-2.1236982345581055,0.11390364915132523,-0.15754541754722595,0.3681966960430145,-0.9163026809692383,0.17538294196128845,0.20528960227966309,0.24865436553955078,0.5261351278626625,-0.033229954422023616,-0.20185247526895914,0.8254290927211002
1729873197498246100,3.57624609375,0.6990291476249695,-2.0960545539855957,-0.03486159071326256,-0.1767532378435135,0.3610129654407501,-0.915657103061676,0.2766525149345398,0.11973041296005249,0.14792639017105103,0.5238689026935593,-0.022449826322003208,-0.20412607573458405,0.8266740000348033
1729873197508277200,3.58627734375,0.6193665862083435,-2.1672632694244385,-0.13512267172336578,-0.19658176600933075,0.3549332320690155,-0.9139901399612427,0.20518772304058075,0.0037550926208496094,0.2653695344924927,0.5221538565787143,-0.011863460158933723,-0.20703665678452282,0.8272547926826991
1729873197518307300,3.596307373046875,1.0814687013626099,-2.2058191299438477,-0.07862105965614319,-0.2169574797153473,0.3472316265106201,-0.9123374819755554,0.1789173185825348,0.11005899310112,0.3344718813896179,0.5203419244048355,-0.000554697771969538,-0.2093584318949254,0.8278968038081492
1729873197528338200,3.606338134765625,1.4904489517211914,-1.9270530939102173,-0.07794488221406937,-0.23640748858451843,0.33512231707572937,-0.912033200263977,0.16295167803764343,0.22489047050476074,0.31346142292022705,0.5184385474755372,0.011632164624204251,-0.20939936493800365,0.8289983478022559
1729873197538369300,3.616369384765625,1.7413346767425537,-1.272557258605957,0.03166523575782776,-0.25112205743789673,0.32011878490448,-0.9134887456893921,0.09726765751838684,0.27065572142601013,0.2265228033065796,0.5167255477803838,0.02254763987149754,-0.20675402386516795,0.8305053752399906
1729873197548399000,3.626399169921875,1.6892154216766357,-0.8581051230430603,0.07180706411600113,-0.26035118103027344,0.3043367564678192,-0.9162949323654175,0.09680747985839844,0.1567533016204834,0.27873694896698,0.5151845494297164,0.03125934347531095,-0.2021766177305222,0.8323054656253205
1729873197558430200,3.63643017578125,1.3011279106140137,-1.1070574522018433,0.06122525781393051,-0.2688429355621338,0.2906377911567688,-0.9182881712913513,0.16976764798164368,-0.005313754081726074,0.4200124144554138,0.5136940934421446,0.03902895674811462,-0.19832463830779556,0.8338239696658581
1729873197568461000,3.6464609375,0.987932026386261,-1.578223466873169,-0.07003342360258102,-0.2811802923679352,0.28023993968963623,-0.9178252816200256,0.3465489447116852,-0.058682382106781006,0.41375118494033813,0.512070137579737,0.04755078714259455,-0.19704387213744254,0.8346837308851712
1729873197578491100,3.6564912109375,0.7476112842559814,-1.83904230594635,-0.2325727939605713,-0.2974253296852112,0.27184802293777466,-0.9152250289916992,0.4047556519508362,-0.13194021582603455,0.4193601608276367,0.5108238844728343,0.05711343431718396,-0.19780179316355023,0.8346684507858927
1729873197588522200,3.666522216796875,0.6808407306671143,-1.6966686248779297,-0.12073442339897156,-0.3144143223762512,0.26481691002845764,-0.9116005897521973,0.2971871495246887,-0.10295170545578003,0.49733972549438477,0.5096037438770028,0.06663170483050165,-0.1993988693576259,0.8343287899002448
1729873197598552300,3.67655224609375,0.8052659630775452,-1.3339388370513916,-0.027446016669273376,-0.3282257914543152,0.2577553391456604,-0.908751904964447,0.21349495649337769,-0.020053952932357788,0.4947962164878845,0.5080941940514061,0.0748689317651557,-0.20004672953070723,0.8343957465538507
1729873197608583200,3.686583251953125,0.6203457117080688,-1.0380257368087769,0.026343975216150284,-0.3388313353061676,0.2510710060596466,-0.9067285656929016,0.08013379573822021,-0.082858145236969,0.5176141858100891,0.5066879156234498,0.08160002308079908,-0.1999428798118563,0.8346446173308758
1729873197618614300,3.6966142578125,0.4772200286388397,-0.7926380634307861,0.1972683221101761,-0.3462007939815521,0.24640001356601715,-0.9052248597145081,0.004129230976104736,-0.11584585905075073,0.5566988587379456,0.5050962369375779,0.08643437050442589,-0.1997915738290212,0.8351587671499123
1729873197628644400,3.706644287109375,0.30880415439605713,-0.7477774024009705,0.13654638826847076,-0.3523598611354828,0.2434421181678772,-0.9036473035812378,0.09685143828392029,-0.053195565938949585,0.5712956190109253,0.50337038633068,0.09031903590800466,-0.20004702454842724,0.8357284302883168
1729873197638675200,3.71667529296875,0.20831112563610077,-1.0096416473388672,-0.12981340289115906,-0.36002880334854126,0.24118947982788086,-0.901225209236145,0.23597484827041626,0.11974187195301056,0.4549514651298523,0.5023722683975089,0.09450471058466968,-0.2011373817026001,0.8356044151957476
1729873197648706300,3.726706298828125,0.11068576574325562,-1.46683931350708,-0.38078808784484863,-0.3717906177043915,0.23869813978672028,-0.8971036076545715,0.3164622485637665,0.18093377351760864,0.41730624437332153,0.5021133852773211,0.1003716836836467,-0.20340527930573984,0.8345262045193441
1729873197658736000,3.736736083984375,-0.03445705026388168,-1.6853183507919312,-0.511594831943512,-0.38727813959121704,0.23658695816993713,-0.8910905122756958,0.28124478459358215,0.09568838775157928,0.4543381929397583,0.5023627248110857,0.107654628765034,-0.20703920808100743,0.8325725195888479
1729873197668767200,3.746767333984375,-0.04806913062930107,-1.3751540184020996,-0.36092305183410645,-0.40219059586524963,0.23529782891273499,-0.8848037719726562,0.11382997035980225,-0.001090720295906067,0.39064788818359375,0.5026689149751862,0.1144635394498091,-0.21094127410567415,0.8304973933482218
1729873197678798000,3.756798095703125,0.09295829385519028,-0.8029410243034363,0.01016740407794714,-0.41227880120277405,0.2343813180923462,-0.8803929090499878,-0.02813565731048584,-0.07587306201457977,0.2513340711593628,0.5022325782130277,0.11925361521866343,-0.21349972037399287,0.8294329903002434
1729873197688828200,3.766828125,0.25853100419044495,-0.4130916893482208,0.19571542739868164,-0.41716501116752625,0.23333245515823364,-0.8783674240112305,-0.06507375836372375,-0.036936625838279724,0.20756053924560547,0.5009460707368698,0.12201727499080657,-0.21430835311384938,0.8296004348756262
1729873197698859300,3.776859375,0.35468336939811707,-0.2584909498691559,0.09374405443668365,-0.41965311765670776,0.23117347061634064,-0.8777529001235962,-0.06250938773155212,0.04511737823486328,0.2570253014564514,0.4997957076092856,0.12398769499684964,-0.21389393093792475,0.830108898143028
1729873197708890000,3.78689013671875,0.31214478611946106,-0.2572842538356781,0.026826009154319763,-0.42166346311569214,0.2285410612821579,-0.8774787187576294,-0.02767738699913025,0.09409072995185852,0.3084937334060669,0.49908538229992844,0.1257593111649256,-0.2131788589964624,0.8304536639698908
1729873197718920200,3.796920166015625,0.3408035933971405,-0.4782339334487915,-0.12981607019901276,-0.4249182641506195,0.22540314495563507,-0.8767199516296387,0.09001833200454712,0.11289943754673004,0.35546445846557617,0.4986894613335822,0.12813457474245324,-0.21265358422025832,0.8304630017807775
1729873197728951300,3.806951416015625,0.23196664452552795,-0.6250670552253723,-0.22587095201015472,-0.4302770793437958,0.22208482027053833,-0.8749514222145081,0.09820002317428589,0.08321300148963928,0.41053491830825806,0.4986565105170976,0.13139781428262595,-0.2127414031023855,0.8299502734601767
1729873197738981000,3.816981201171875,0.2851422429084778,-0.5066267251968384,-0.28920066356658936,-0.43592846393585205,0.21880705654621124,-0.872977614402771,0.05351269245147705,0.13086330890655518,0.3731454610824585,0.49898287058510715,0.13469093898866813,-0.213001301897424,0.8291592432701889
1729873197749012200,3.82701220703125,0.38686302304267883,-0.254274845123291,-0.17807041108608246,-0.43983718752861023,0.21474166214466095,-0.8720259666442871,-0.03771716356277466,0.09978771209716797,0.2821516990661621,0.4993429187238443,0.13741459611670578,-0.21237756943900205,0.828655475472498
1729873197759043300,3.837043212890625,0.37226730585098267,0.07810896635055542,-0.05907958000898361,-0.44080209732055664,0.2108997404575348,-0.8724762797355652,-0.04651784896850586,0.07871201634407043,0.16854256391525269,0.4994410102074336,0.1388401324395985,-0.21091535577114442,0.8287321106200536
1729873197769073200,3.8470732421875,0.25435319542884827,0.11678983271121979,-0.08145279437303543,-0.43986961245536804,0.20771917700767517,-0.8737090229988098,0.017323195934295654,0.009947404265403748,0.07549124956130981,0.49960502612725305,0.1392300310719283,-0.20919006415013736,0.8290050265319618
1729873197779104300,3.857104248046875,0.04053356871008873,-0.15761668980121613,-0.10470272600650787,-0.4400273263454437,0.20602478086948395,-0.8740307688713074,0.07496076822280884,-0.16461245715618134,0.09484070539474487,0.4999168607174947,0.1396719744858729,-0.2085098281750993,0.8289142247186038
1729873197789135000,3.867135009765625,-0.1909698247909546,-0.46584364771842957,-0.11781533062458038,-0.44309958815574646,0.20628832280635834,-0.8724149465560913,0.13166767358779907,-0.22421744465827942,0.2358335256576538,0.5000995969830484,0.14092063459295182,-0.20960412021133054,0.8283163164120575
1729873197799165200,3.877165283203125,-0.14781755208969116,-0.5126681327819824,-0.19441662728786469,-0.4478065073490143,0.2072141468524933,-0.8697882890701294,0.1385108232498169,-0.10234053432941437,0.3110266923904419,0.5003221385650051,0.14270929601775886,-0.21151813227926036,0.8273886067102426
1729873197809196300,3.8871962890625,0.04811792075634003,-0.37615618109703064,-0.19446322321891785,-0.4522058069705963,0.20668771862983704,-0.8676347732543945,0.028942227363586426,-0.0015943795442581177,0.27835559844970703,0.5007525226847952,0.14469548349391967,-0.21271064363531128,0.8264771568880768
1729873197819227100,3.89722705078125,0.20707428455352783,0.02541976422071457,0.011809774674475193,-0.4540327787399292,0.20517554879188538,-0.8670393228530884,-0.0898057222366333,0.05494098365306854,0.17932575941085815,0.5008381827497618,0.14589010494830285,-0.2125944582060991,0.8262449961336921
1729873197829257200,3.90725732421875,0.34118029475212097,0.3472287952899933,0.08086367696523666,-0.4521716833114624,0.20283003151416779,-0.8685624599456787,-0.08243528008460999,0.09810377657413483,0.04928755760192871,0.5005835405317188,0.14575336655840912,-0.21089030439840484,0.8268599595570276
1729873197839288000,3.9172880859375,0.1918453872203827,0.349344938993454,0.06576888263225555,-0.44878894090652466,0.20071908831596375,-0.8708044290542603,-0.04999038577079773,0.04015611112117767,-0.017516493797302246,0.5004699081015164,0.14483965136393348,-0.20885224855655504,0.827606283907144
1729873197849319000,3.92731884765625,-0.015904869884252548,0.04269009828567505,0.006846441887319088,-0.44678711891174316,0.2002810686826706,-0.8719339370727539,0.08086609840393066,-0.023050278425216675,-0.0666341781616211,0.5004613415073678,0.1440679071653364,-0.20803238227873,0.8279526184423537
1729873197859349000,3.937348876953125,-0.10388053208589554,-0.5375061631202698,-0.179133802652359,-0.4491635859012604,0.20037208497524261,-0.870691180229187,0.1882840394973755,-0.1215452253818512,0.05439174175262451,0.5005710549267266,0.1450732584238397,-0.2088256667431823,0.8275109170238577
1729873197869380000,3.947380126953125,-0.16057777404785156,-0.7201708555221558,-0.2765122950077057,-0.4554464519023895,0.2005002796649933,-0.8673915863037109,0.14457911252975464,-0.11573775112628937,0.13303184509277344,0.5009694515761531,0.1477344791133,-0.21089977772758306,0.8262720975652895
1729873197879410000,3.957409912109375,0.0726083517074585,-0.43544191122055054,-0.2019807994365692,-0.46109381318092346,0.19995692372322083,-0.8645285964012146,0.023456454277038574,0.030694887042045593,0.1004142165184021,0.5014148256175844,0.15028098583248584,-0.21248838601005696,0.8251348754176189
1729873197889441000,3.96744091796875,0.37184733152389526,0.025305140763521194,0.011403909884393215,-0.4631563127040863,0.19746555387973785,-0.8639985918998718,-0.12444442510604858,0.04685814678668976,0.017578303813934326,0.5014710333667882,0.1518525510352942,-0.21199409360359697,0.8249401107406894
1729873197899472000,3.977471923828125,0.48468145728111267,0.5068528652191162,0.2147354632616043,-0.4605734944343567,0.19425036013126373,-0.8661056160926819,-0.1921517252922058,0.01906745135784149,-0.09554904699325562,0.5008940755555179,0.15170734446676454,-0.20959981279827047,0.8259286330290819
1729873197909502000,3.987501953125,0.4349413216114044,0.7516841292381287,0.2449684739112854,-0.45436879992485046,0.19119954109191895,-0.8700527548789978,-0.11066418886184692,-0.006354615092277527,-0.2079654335975647,0.5002457253550889,0.14991561337083195,-0.2061526967088304,0.8275148205913204
1729873197919533000,3.997532958984375,0.061506230384111404,0.45476675033569336,0.13671177625656128,-0.4484309256076813,0.18980683386325836,-0.8734318017959595,0.041646867990493774,-0.11113256216049194,-0.08181416988372803,0.4998494967534209,0.1477358590191786,-0.20361291333914858,0.8287741173702851
1729873197929564000,4.00756396484375,-0.2908215820789337,-0.2686367332935333,-0.07575229555368423,-0.44738516211509705,0.1910047084093094,-0.8737068772315979,0.18989306688308716,-0.21546459197998047,0.1451912522315979,0.4999365386639544,0.14693045319810355,-0.20385778354363265,0.8288045533950986
1729873197939594000,4.017593994140625,-0.493619441986084,-0.9013327360153198,-0.21190880239009857,-0.4531111419200897,0.19388897716999054,-0.8701134324073792,0.22299334406852722,-0.21477830410003662,0.31086355447769165,0.5002149498499322,0.14864697963392115,-0.20699605256203407,0.8275516712508026
1729873197949625000,4.027625,-0.33648550510406494,-0.848254919052124,-0.24491654336452484,-0.4614686369895935,0.196686252951622,-0.8650787472724915,0.1612367033958435,-0.06330922245979309,0.20580750703811646,0.5005854545391564,0.15153502388887122,-0.21094493654242796,0.8258048571727892
1729873197959656000,4.037656005859375,0.07741794735193253,-0.3216974139213562,0.024854734539985657,-0.4670427143573761,0.19725072383880615,-0.8619531989097595,-0.0551588237285614,0.029052317142486572,0.01641792058944702,0.5005982828047204,0.15386902829749471,-0.21295006996381366,0.8248503195134198
1729873197969686000,4.04768603515625,0.5080088376998901,0.3683464527130127,0.3372206389904022,-0.4663664698600769,0.19560343027114868,-0.8626944422721863,-0.18574842810630798,0.11727799475193024,-0.0799936056137085,0.4995530284244984,0.15427561229943165,-0.2117824953883904,0.8257082922013351
1729873197979717000,4.057717041015625,0.7196694016456604,0.7236608266830444,0.27597033977508545,-0.4607163369655609,0.19159844517707825,-0.8666201829910278,-0.13988488912582397,0.18056337535381317,-0.12085235118865967,0.49832922191065493,0.1531245713263467,-0.207948962405762,0.8276341918954928
1729873197989748000,4.067748046875,0.629689633846283,0.6323192715644836,0.17482933402061462,-0.4541783332824707,0.1865682303905487,-0.8711568713188171,-0.0788264274597168,0.04402254521846771,-0.09580785036087036,0.4976021577508311,0.15171196190930916,-0.2034822727618506,0.8294398979380414
1729873197999778000,4.077778076171875,0.2961878180503845,0.19233791530132294,0.05874133110046387,-0.45016250014305115,0.1829691231250763,-0.8740000128746033,0.06287914514541626,-0.16119487583637238,-0.0067067742347717285,0.4971815647545624,0.15096735582560325,-0.20052143348442836,0.8305483501431851
1729873198009809000,4.087808837890625,-0.10552796721458435,-0.25540435314178467,-0.04220179468393326,-0.45054736733436584,0.1822354644536972,-0.8739550113677979,0.11442673206329346,-0.3087766766548157,0.11994194984436035,0.4970664949630681,0.15136069240405575,-0.20028092556796792,0.8306036330111156
1729873198019839000,4.0978388671875,-0.29039260745048523,-0.40957340598106384,0.03860250487923622,-0.45364710688591003,0.18404100835323334,-0.8719708919525146,0.060824811458587646,-0.2987718880176544,0.16718268394470215,0.49692177573247565,0.1523075265204417,-0.20203212734737258,0.8300928858634471
1729873198029870000,4.1078701171875,-0.15814323723316193,-0.2835811376571655,0.09293551743030548,-0.4566601514816284,0.18654870986938477,-0.8698626756668091,0.01452144980430603,-0.07110075652599335,0.17323791980743408,0.4964391881306993,0.15311398601760584,-0.20402147828109174,0.8297466539792762
