time,seconds_elapsed,rotationRateX,rotationRateY,rotationRateZ,gravityX,gravityY,gravityZ,accelerationX,accelerationY,accelerationZ,quaternionW,quaternionX,quaternionY,quaternionZ
1728066644928577500,0.14357763671875,-0.8216891288757324,0.21928715705871582,-0.1256178319454193,0.14301908016204834,0.10158611834049225,-0.9844926595687866,0.058991938829422,-0.008522823452949524,0.08042466640472412,0.9961155278698269,-0.05099113142330631,0.07178840093269702,-6.385218906533634e-18
1728066644938607600,0.153607666015625,-0.9026036858558655,0.17856290936470032,-0.10683882981538773,0.14489711821079254,0.11027029901742935,-0.9832829236984253,0.0707399994134903,-0.021342143416404724,0.11475259065628052,0.9958118013855227,-0.0553445232254004,0.07277038908994056,-0.0003081091532185446
1728066644948638700,0.163638671875,-0.9723604321479797,0.18545788526535034,-0.09183617681264877,0.14656463265419006,0.11966900527477264,-0.9819359183311462,0.05677390098571777,-0.048318974673748016,0.15642017126083374,0.9954735703373001,-0.06006885364296672,0.0736462940762611,-0.0005098055790096133
1728066644958668800,0.173668701171875,-1.0369277000427246,0.27220237255096436,-0.08926276862621307,0.14873826503753662,0.129667729139328,-0.9803383350372314,0.03009466826915741,-0.06074385344982147,0.18886488676071167,0.9950722365745955,-0.06510590992180497,0.07478010204748851,-0.000652358576092638
1728066644968699600,0.18369970703125,-1.09382164478302,0.33682289719581604,-0.10186724364757538,0.1516588181257248,0.14031577110290527,-0.9784227609634399,-0.010362520813941956,-0.07484036684036255,0.20495474338531494,0.9945906548116351,-0.07047674144205646,0.07629975730008862,-0.0008174838522072514
1728066644978730800,0.193730712890625,-1.1475056409835815,0.3841102421283722,-0.12218742817640305,0.15508976578712463,0.15145842730998993,-0.9762210249900818,-0.0534815788269043,-0.0949094146490097,0.2243441939353943,0.994036811863082,-0.07609890902865399,0.07809251026942335,-0.001076855212750825
1728066644988760800,0.2037607421875,-1.1795978546142578,0.3945128321647644,-0.14352013170719147,0.15873141586780548,0.1631101816892624,-0.9737553000450134,-0.060831114649772644,-0.09542225301265717,0.21351665258407593,0.9934160979250518,-0.08197990270856619,0.08001024807169062,-0.0014364897646759476
1728066644998791700,0.213791748046875,-1.1490814685821533,0.40158912539482117,-0.16425950825214386,0.16237565875053406,0.1747022271156311,-0.9711402058601379,-0.04404382407665253,-0.06880629062652588,0.20043396949768066,0.9927569996026557,-0.08783295637697021,0.081946782124054,-0.001883280360306868
1728066645008821800,0.22382177734375,-1.1254075765609741,0.4123067259788513,-0.1992316097021103,0.1660926192998886,0.1860588788986206,-0.9683983325958252,-0.017227962613105774,-0.02675718069076538,0.1353752613067627,0.9920649969330148,-0.09356191385840777,0.08394640748004963,-0.002500835462864443
1728066645018852600,0.2338525390625,-1.108823299407959,0.42891737818717957,-0.1751134842634201,0.16976837813854218,0.19725805521011353,-0.9655402302742004,0.0009773969650268555,0.018134936690330505,0.06008368730545044,0.9913425967454494,-0.09921577298703005,0.08594247340628156,-0.003167323127063163
1728066645028883700,0.2438837890625,-1.0899685621261597,0.4592256247997284,-0.15744447708129883,0.17379577457904816,0.20813129842281342,-0.9625364542007446,0.022523730993270874,0.046675145626068115,0.041714251041412354,0.9905828558598839,-0.10472364398391765,0.08811775398146228,-0.003724584017384198
1728066645038913800,0.253913818359375,-1.1516927480697632,0.4349825978279114,-0.14092887938022614,0.17783477902412415,0.21916989982128143,-0.9593431949615479,0.05353415012359619,0.045341119170188904,0.04416680335998535,0.9897746876121839,-0.1103324761387531,0.09030586868320549,-0.0042152055593263375
1728066645048944600,0.263944580078125,-1.2429473400115967,0.37177973985671997,-0.0521731860935688,0.1815209686756134,0.23087738454341888,-0.9559004902839661,0.06486260890960693,0.0052370429039001465,0.07705527544021606,0.9889038849474381,-0.11632430402555997,0.09229521793450474,-0.004389552085782146
1728066645058974700,0.273974609375,-1.2571992874145508,0.337182879447937,0.017487917095422745,0.18489021062850952,0.24290810525417328,-0.9522663950920105,0.08432051539421082,-0.03255051374435425,0.14048349857330322,0.9879860542688447,-0.1225428833925578,0.0940747220458688,-0.004075376819042004
1728066645069005800,0.284005859375,-1.2424671649932861,0.39245161414146423,0.0329694040119648,0.1883690506219864,0.2547774314880371,-0.9484753608703613,0.09523071348667145,-0.038697779178619385,0.17268800735473633,0.9870283026395115,-0.1287170989814109,0.09588648062099277,-0.003559328174608172
1728066645079035600,0.29403564453125,-1.241068720817566,0.4957260489463806,0.03930240124464035,0.19279597699642181,0.2665219306945801,-0.9443494081497192,0.05746334791183472,-0.04015788435935974,0.17056089639663696,0.9859843491346566,-0.13484972436393666,0.09818789002350892,-0.003068119214558953
1728066645089066800,0.304066650390625,-1.1446465253829956,0.511154055595398,0.0297259408980608,0.19765745103359222,0.27779582142829895,-0.9400856494903564,-0.0007428675889968872,-0.058313459157943726,0.17255324125289917,0.9849040127555015,-0.14075689988579188,0.1007207527103149,-0.002639666107336197
1728066645099097900,0.314097900390625,-1.0717560052871704,0.5571218132972717,0.03231266885995865,0.20278725028038025,0.28813284635543823,-0.9358721971511841,-0.03489488363265991,-0.0781872570514679,0.16290771961212158,0.9838347148997851,-0.14619042659294465,0.10340335702158532,-0.0023133154438952077
1728066645109127700,0.324127685546875,-0.9175782203674316,0.6281753182411194,0.06460988521575928,0.20847591757774353,0.2974793016910553,-0.9316887259483337,-0.028407037258148193,-0.04706737399101257,0.056566596031188965,0.9827717617178929,-0.15113251258557286,0.10637015672167889,-0.0019825334223960984
1728066645119158800,0.33415869140625,-0.7078737020492554,0.6722815632820129,0.18915341794490814,0.2150057554244995,0.30479156970977783,-0.9278332591056824,-0.006875947117805481,0.006274014711380005,-0.003959953784942627,0.9817914844676825,-0.1550631737754023,0.10972132852091557,-0.0014225863452227482
1728066645129188900,0.34418896484375,-0.5373700857162476,0.713032603263855,0.11188366264104843,0.22194533050060272,0.3101752698421478,-0.9244087338447571,0.022164687514305115,0.05031353235244751,-0.07540816068649292,0.9809198006447419,-0.15801276301913442,0.1132589411436061,-0.0007928061734175298
1728066645139219700,0.3542197265625,-0.33064332604408264,0.6022804975509644,-0.2917245328426361,0.22831372916698456,0.31444594264030457,-0.921410083770752,0.05980263650417328,0.09307044744491577,-0.12660932540893555,0.9801546703842092,-0.1602464253934957,0.11668775113655502,-0.0013428268252040645
1728066645149249800,0.364249755859375,-0.2296992540359497,1.096532940864563,-0.4275287091732025,0.2345651537179947,0.3180193305015564,-0.9186092019081116,-0.010367870330810547,0.09161803126335144,-0.12120097875595093,0.9794333990653386,-0.16187497959123634,0.12038222585871729,-0.0038535769620320925
1728066645159281000,0.374281005859375,-0.3722641170024872,1.2044570446014404,0.16547125577926636,0.24508462846279144,0.32108399271965027,-0.9147888422012329,-0.1561564952135086,0.09041497111320496,-0.11620181798934937,0.9784504019100442,-0.16338084094537922,0.12614391502332753,-0.0054060604045938505
1728066645169311700,0.384311767578125,-0.5563440918922424,0.6985425353050232,0.2894890606403351,0.25471338629722595,0.3245741128921509,-0.9109185934066772,-0.011991888284683228,0.03785255551338196,-0.051468491554260254,0.9774654180277847,-0.16541945219227158,0.13106141980152075,-0.004541882816745711
1728066645179341800,0.394341796875,-0.8166124224662781,0.5233214497566223,0.2520357072353363,0.26107174158096313,0.33026111125946045,-0.9070662260055542,0.3221038281917572,-0.09391781687736511,0.10694104433059692,0.9764846462435661,-0.16865411715016645,0.1342485533959787,-0.003295410670843995
1728066645189372700,0.40437255859375,-0.8051809668540955,0.5149672031402588,0.32464465498924255,0.26664695143699646,0.3370029628276825,-0.9029553532600403,0.1871035397052765,-0.12212881445884705,0.16998416185379028,0.9754354510459753,-0.1724919313561636,0.13699945984943854,-0.0018010071297557867
1728066645199402800,0.41440283203125,-0.6759622693061829,0.5852054357528687,0.48196929693222046,0.2730666697025299,0.3426542282104492,-0.8989008069038391,0.07075953483581543,-0.062426626682281494,0.11603331565856934,0.9743973940827986,-0.1758579364975123,0.14008419674665487,0.00020277493972892824
1728066645209431300,0.424431396484375,-0.4891260266304016,0.7005764842033386,0.49819648265838623,0.2805728018283844,0.3464956283569336,-0.8951087594032288,0.07005882263183594,-0.04316624999046326,0.008145809173583984,0.9734207911577181,-0.17834596571878908,0.14366052591398407,0.002490966189518192
1728066645219461400,0.43446142578125,-0.3437483310699463,0.8204264640808105,0.412439227104187,0.2890087068080902,0.3489104211330414,-0.8914793729782104,0.025078117847442627,0.029705822467803955,-0.10612505674362183,0.9724816749449211,-0.18005279305830643,0.14778807474108266,0.004349647899422485
1728066645229492500,0.444492431640625,-0.22767719626426697,0.8910863995552063,0.33698680996894836,0.29807206988334656,0.3502979576587677,-0.8879438638687134,0.004997909069061279,0.12032878398895264,-0.19568955898284912,0.9715660837250558,-0.1811503759156311,0.15235680076630148,0.005582844455150648
1728066645239523300,0.4545234375,-0.2531958520412445,0.8178905248641968,0.2926230728626251,0.3068901598453522,0.3514254093170166,-0.8844877481460571,0.029474467039108276,0.14001435041427612,-0.20727860927581787,0.9706706677469049,-0.18207289406656224,0.15686165280800318,0.00650330839064456
1728066645249553400,0.464553466796875,-0.3132261633872986,0.6855657696723938,0.26590436697006226,0.31456899642944336,0.35307377576828003,-0.8811272382736206,0.08048096299171448,0.08888170123100281,-0.17850416898727417,0.9697981711961391,-0.18326328586256121,0.16078231689247302,0.007410672023321948
1728066645259584500,0.47458447265625,-0.39104586839675903,0.5987411141395569,0.20377284288406372,0.3210796117782593,0.3553805351257324,-0.8778454065322876,0.11394834518432617,0.026485860347747803,-0.11887401342391968,0.9689449293382069,-0.184785320688443,0.16410876656589057,0.008266098742861445
1728066645270868500,0.485868408203125,-0.5010003447532654,0.5573151111602783,0.13395728170871735,0.3274962306022644,0.35920917987823486,-0.8739078640937805,0.11921998858451843,-0.006334513425827026,-0.10175442695617676,0.9679220226040431,-0.18711130208041882,0.1674378446754391,0.008985741264686771
1728066645289688600,0.5046884765625,-0.7379938960075378,0.5017338395118713,0.006834473926573992,0.33662545680999756,0.36879193782806396,-0.8664155006408691,0.10751202702522278,-0.01616138219833374,-0.053185999393463135,0.9659784961393864,-0.1926137561363325,0.17231421824720786,0.00966130778744985
1728066645299719700,0.5147197265625,-0.8205581903457642,0.43962362408638,-0.037507958710193634,0.34066152572631836,0.3756950795650482,-0.8618601560592651,0.08429566025733948,-0.07262510061264038,-0.02275294065475464,0.9647974780309706,-0.19647352778791216,0.17455106662123016,0.009794370064620677
1728066645309749500,0.52474951171875,-0.776239812374115,0.43773117661476135,-0.028852948918938637,0.3442956209182739,0.38276204466819763,-0.8572944402694702,0.06958368420600891,-0.09698024392127991,-0.03551262617111206,0.9636126376204938,-0.20042131265400243,0.17659013762002962,0.009895759452575656
1728066645319780600,0.534780517578125,-0.6082936525344849,0.41397419571876526,0.12060124427080154,0.3481822609901428,0.388700395822525,-0.8530422449111938,0.06560546159744263,-0.04754447937011719,-0.10223430395126343,0.9625048717287109,-0.20382726194388048,0.178698972110691,0.010266060536234614
1728066645329810700,0.544810791015625,-0.3428119122982025,0.39638572931289673,0.2237263172864914,0.35241830348968506,0.3920876681804657,-0.8497461676597595,0.08787396550178528,0.04007166624069214,-0.15593016147613525,0.961638080190427,-0.20596868150118164,0.18084195483644988,0.01118930429556714
1728066645339841500,0.554841552734375,-0.17780590057373047,0.4201749563217163,0.10882635414600372,0.3566082715988159,0.3936382830142975,-0.8472776412963867,0.09450244903564453,0.12628963589668274,-0.21796900033950806,0.960988194966812,-0.2070650250463481,0.1829897721981549,0.011847153531065153
1728066645349872600,0.56487255859375,-0.12112325429916382,0.4034610092639923,-0.009077114053070545,0.3603631258010864,0.3946569859981537,-0.8452125191688538,0.06325125694274902,0.15014269948005676,-0.19885486364364624,0.9604516781959455,-0.20772287767114925,0.18505388233110137,0.011776533842885918
1728066645359902700,0.57490283203125,-0.19011643528938293,0.33489978313446045,-0.01815849356353283,0.3634829819202423,0.3960232436656952,-0.8432352542877197,0.07793843746185303,0.10293909907341003,-0.14109402894973755,0.9599410898279577,-0.20849903624072808,0.186843592985989,0.011427618535316748
1728066645369933600,0.58493359375,-0.2931801676750183,0.283445805311203,0.08540678024291992,0.3661990165710449,0.39793598651885986,-0.841157078742981,0.10496178269386292,0.046781331300735474,-0.08029073476791382,0.9593991220582844,-0.20964123626189696,0.18834018341072578,0.011477212577031487
1728066645379963600,0.594963623046875,-0.4301132559776306,0.27066290378570557,0.13332611322402954,0.3690561354160309,0.4005436301231384,-0.8386670351028442,0.11321300268173218,-0.0076909661293029785,-0.04893678426742554,0.9587424567464453,-0.2112852665031416,0.18980261054987035,0.012098565878257767
1728066645389994500,0.604994384765625,-0.5164035558700562,0.25006526708602905,0.06193847209215164,0.37171563506126404,0.4041670858860016,-0.8357490301132202,0.0737798810005188,-0.03360748291015625,-0.03557366132736206,0.9579724404362285,-0.21349893324955801,0.19116404618704932,0.012777239302921628
1728066645400024300,0.6150244140625,-0.5735227465629578,0.22763106226921082,-0.004061583429574966,0.37386852502822876,0.4086327850818634,-0.8326112627983093,0.03499063849449158,-0.030428528785705566,-0.03973376750946045,0.9571477906905482,-0.21611202132508242,0.19232771348939992,0.01317932464571212
1728066645410055700,0.6250556640625,-0.6072393655776978,0.18626470863819122,-0.00687894131988287,0.3756232261657715,0.4136453866958618,-0.829339861869812,0.056200385093688965,-0.0047251880168914795,-0.050970256328582764,0.956288673237407,-0.21900197883801373,0.19330854814816475,0.01348316873467467
1728066645420086500,0.63508642578125,-0.5260406732559204,0.12698380649089813,0.027897415682673454,0.377034068107605,0.4183741509914398,-0.8263221979141235,0.09565261006355286,0.019736140966415405,-0.05913013219833374,0.9554931586346203,-0.22175981813143486,0.19406564801519957,0.013927860538479038
1728066645430116400,0.645116455078125,-0.37326595187187195,0.07781317830085754,0.032652486115694046,0.3780519664287567,0.42198899388313293,-0.8240157961845398,0.09602323174476624,0.024528861045837402,-0.09567725658416748,0.9548824770216194,-0.22389745508421116,0.19458172068897814,0.014396336842189326
1728066645440147700,0.655147705078125,-0.1802341639995575,0.10748317837715149,0.07191227376461029,0.37904447317123413,0.4240695834159851,-0.8224902749061584,0.052931755781173706,0.03737136721611023,-0.11264467239379883,0.9544762491830235,-0.22518071961781577,0.1950602548192071,0.014840805881933958
1728066645450177500,0.665177490234375,-0.0655398815870285,0.20361679792404175,0.060870274901390076,0.3806822597980499,0.42476391792297363,-0.8213748335838318,0.00696718692779541,0.0732370913028717,-0.11585056781768799,0.9541796703052705,-0.22568430875174303,0.19590604989400914,0.015116540880136867
1728066645460208400,0.67520849609375,0.04373174533247948,0.2621016800403595,0.0695367380976677,0.38292017579078674,0.4246154725551605,-0.8204107880592346,-0.017594337463378906,0.0941985547542572,-0.10822391510009766,0.9539265142134928,-0.2256929224788295,0.19712259418895647,0.015151639239142927
1728066645470238500,0.685238525390625,0.028556257486343384,0.2669846713542938,0.10199081897735596,0.38559243083000183,0.4238604009151459,-0.8195491433143616,0.0013703405857086182,0.06432920694351196,-0.0866703987121582,0.953699395224155,-0.22538938214976978,0.19855745247144965,0.01522742613119974
1728066645480269300,0.695269287109375,-0.1092575341463089,0.19623249769210815,0.06933140754699707,0.38795018196105957,0.4238351583480835,-0.8184487819671631,0.03253614902496338,0.005257159471511841,-0.036898016929626465,0.9534077346669554,-0.22550669659573172,0.19980578463266216,0.015426196715723841
1728066645490300400,0.705300537109375,-0.20614533126354218,0.12821157276630402,0.008711203932762146,0.3895024061203003,0.42501306533813477,-0.8170995712280273,0.043038398027420044,-0.02228793501853943,0.02091115713119507,0.9530510699653535,-0.22625928212763352,0.2006413299724516,0.015600548171544899
1728066645500330500,0.71533056640625,-0.26515936851501465,0.10222791880369186,-0.04660531505942345,0.3903721570968628,0.4270264506340027,-0.8156334757804871,0.046563178300857544,-0.03148820996284485,0.018087029457092285,0.9526662180015957,-0.2274190009319807,0.20115628878784544,0.015615553998376209
1728066645510361300,0.725361328125,-0.2858203947544098,0.11537056416273117,-0.05721588432788849,0.39104846119880676,0.4295128881931305,-0.814002275466919,0.043048709630966187,-0.014306068420410156,0.00224989652633667,0.9522395221453638,-0.22881427261059625,0.20160079232541347,0.015523466641129613
1728066645520391400,0.735391357421875,-0.29153501987457275,0.14434096217155457,-0.07553363591432571,0.3919004797935486,0.4321238696575165,-0.8122086524963379,0.03658148646354675,0.0008899569511413574,-0.018418848514556885,0.9517712315914857,-0.2302712562747133,0.20216532762397768,0.015351874274320413
1728066645530422500,0.745422607421875,-0.2997347414493561,0.12842446565628052,-0.06481973826885223,0.3927686810493469,0.4348096251487732,-0.8103538155555725,0.03870400786399841,0.008732795715332031,-0.051661014556884766,0.9512869702704932,-0.23176963820891527,0.202745931642089,0.015164940633850191
1728066645540453400,0.755453369140625,-0.30410709977149963,0.08000288158655167,-0.09052111208438873,0.393355131149292,0.43754029273986816,-0.8085976839065552,0.06608691811561584,0.03281179070472717,-0.0570792555809021,0.9508277042564063,-0.2332915636061966,0.20316548080270927,0.015012081669333953
1728066645550483500,0.7654833984375,-0.33663251996040344,0.0502774715423584,-0.13807609677314758,0.39341312646865845,0.440594345331192,-0.8069093227386475,0.07518419623374939,0.04442143440246582,-0.046194374561309814,0.9503883545818488,-0.23494483400089763,0.20333779332188756,0.014712761062359797
1728066645560514600,0.7755146484375,-0.33876943588256836,0.04775466024875641,-0.13462784886360168,0.3932307958602905,0.443886935710907,-0.8051918148994446,0.06509733200073242,0.04373812675476074,-0.032424211502075195,0.9499422156948887,-0.23670935674638607,0.20340294876178402,0.014339749537963443
1728066645570544400,0.78554443359375,-0.3437938094139099,0.077410027384758,-0.09791111201047897,0.39327141642570496,0.44709014892578125,-0.8033977746963501,0.06125730276107788,0.025855928659439087,-0.021431386470794678,0.9494743240067743,-0.2384535592074295,0.20357063104321718,0.014051441653518145
1728066645580575500,0.795575439453125,-0.36980170011520386,0.08514490723609924,-0.0681939646601677,0.393622487783432,0.45029762387275696,-0.8014320731163025,0.04662400484085083,0.0006300210952758789,-0.0005851984024047852,0.9489581629925504,-0.24025398433311573,0.20386757872831726,0.013941236065459134
1728066645590605600,0.80560546875,-0.3834491968154907,0.0959988385438919,-0.06334327906370163,0.39411231875419617,0.4535732865333557,-0.7993414402008057,0.034110188484191895,-0.010336101055145264,0.03345698118209839,0.9484074127419589,-0.2421229146218458,0.20421994110996902,0.013928710991093328
1728066645600636400,0.815636474609375,-0.3865829408168793,0.08622317016124725,-0.10947642475366592,0.3945137560367584,0.4569949507713318,-0.7971916198730469,0.018968820571899414,-0.023187637329101562,0.0561332106590271,0.9478421979911136,-0.24405317292319637,0.20455373784306155,0.013817523696736209
1728066645610667500,0.82566748046875,-0.3945993483066559,0.08112279325723648,-0.1649087816476822,0.39460626244544983,0.46066510677337646,-0.7950304746627808,-0.00712469220161438,-0.03734061121940613,0.07182490825653076,0.9472771715992815,-0.24606070010705092,0.20478985115911094,0.013453486226976006
1728066645620697600,0.835697509765625,-0.4857228696346283,0.15411578118801117,-0.10314316302537918,0.39505845308303833,0.46466079354286194,-0.7924765348434448,-0.00962156057357788,-0.04975917935371399,0.08095920085906982,0.9466077455383407,-0.24827658429252147,0.20523272580310695,0.013107725747941215
1728066645630728400,0.845728515625,-0.6276758313179016,-0.05999790132045746,-0.10014230757951736,0.39542996883392334,0.46936655044555664,-0.789512574672699,0.059724360704422,-0.0656038224697113,0.1092299222946167,0.9458231345766158,-0.25099889866535074,0.20553163757444634,0.013220774481138974
1728066645640758500,0.855758544921875,-0.7220873236656189,-0.30760452151298523,-0.35233622789382935,0.39277777075767517,0.4756312966346741,-0.7870835065841675,0.13790756464004517,-0.07871976494789124,0.1545761227607727,0.9451827035450726,-0.2544372331364161,0.20425456860896285,0.013091612662764464
1728066645650789400,0.865789306640625,-0.7938317656517029,-0.27702999114990234,-0.4107060432434082,0.3884883522987366,0.48313766717910767,-0.7846367359161377,0.045883506536483765,-0.08582937717437744,0.16119307279586792,0.9445448771438696,-0.25840326186674883,0.20226068920970455,0.012383279702185588
1728066645660819500,0.8758193359375,-0.9298670887947083,-0.11105246096849442,-0.38281184434890747,0.38503143191337585,0.49138307571411133,-0.7812128067016602,-0.007834285497665405,-0.07616099715232849,0.1326073408126831,0.943648640791273,-0.2628225472795059,0.20079320628890768,0.01155716693807151
1728066645670850600,0.8858505859375,-0.9684401750564575,0.025021705776453018,-0.1374361515045166,0.3834138810634613,0.49991893768310547,-0.7765789031982422,-0.028174132108688354,-0.06852251291275024,0.1375560164451599,0.9424231664288093,-0.26763319526929263,0.2002074422813772,0.011309569632287249
1728066645680881400,0.89588134765625,-0.9656502604484558,0.15317301452159882,0.12385829538106918,0.3841508626937866,0.5074037313461304,-0.7713426947593689,-0.03597593307495117,-0.08307212591171265,0.14005601406097412,0.941022584539098,-0.27219367722114846,0.20059724615858332,0.012156381680480225
1728066645690911500,0.905911376953125,-0.985163688659668,0.3017328679561615,0.30778950452804565,0.3870435357093811,0.5140935182571411,-0.7654443979263306,-0.06856217980384827,-0.10058045387268066,0.1464105248451233,0.9394306485391546,-0.2766002064355916,0.20191611224755535,0.013866885863712132
1728066645700942600,0.915942626953125,-0.9660429954528809,0.4890172779560089,0.4627351462841034,0.3920021653175354,0.5200901031494141,-0.7588415741920471,-0.10611358284950256,-0.11922651529312134,0.16881465911865234,0.9376360319610296,-0.28084839990594307,0.2042140767002315,0.016103374932633915
1728066645710972700,0.92597265625,-0.9781939387321472,0.5531371235847473,0.7180569171905518,0.3996579945087433,0.5250760316848755,-0.7513778209686279,-0.10133349895477295,-0.17088907957077026,0.19353169202804565,0.9355852756828177,-0.2848796307492133,0.20773704078732852,0.019212628102407175
1728066645721003500,0.93600341796875,-1.1854549646377563,0.2916695773601532,0.4449700117111206,0.4058227241039276,0.5305055975914001,-0.7442255616188049,0.014144808053970337,-0.2570834755897522,0.25579166412353516,0.933598848237361,-0.289187573633837,0.21037527274255302,0.022494929842271888
1728066645731034600,0.94603466796875,-1.595772385597229,0.23227229714393616,0.2794031500816345,0.4096282720565796,0.5394591093063354,-0.7356551289558411,-0.07396551966667175,-0.369659423828125,0.3536055088043213,0.9312311898463085,-0.29538743506426524,0.211940322318662,0.025216685080999567
1728066645741064400,0.956064453125,-1.8331643342971802,0.24849627912044525,0.38208264112472534,0.4131276309490204,0.5507556200027466,-0.7252542972564697,-0.11936554312705994,-0.37231940031051636,0.41109102964401245,0.9283490586899262,-0.30311083263146127,0.21329947200922503,0.02819910018771288
1728066645751095600,0.966095458984375,-2.033824920654297,0.36200186610221863,0.587436854839325,0.41806676983833313,0.5626517534255981,-0.7131921648979187,-0.1064976155757904,-0.3881981372833252,0.4004784822463989,0.9249688582863095,-0.3116074926216695,0.2151852122797465,0.032071623289177745
1728066645761125600,0.976125732421875,-2.2519466876983643,0.5121221542358398,0.7444688081741333,0.4250098764896393,0.5750209093093872,-0.6990832686424255,-0.13948753476142883,-0.369363009929657,0.40831172466278076,0.9209705504131056,-0.32089093206895536,0.2179159590850922,0.03680612140131494
1728066645771156500,0.986156494140625,-2.3694210052490234,0.6717067956924438,0.8768439292907715,0.4338594973087311,0.5875806212425232,-0.6830189824104309,-0.18504977226257324,-0.34669017791748047,0.42068982124328613,0.9163701579208624,-0.3307871913886663,0.2215182662031519,0.04213290465902631
1728066645781186600,0.9961865234375,-2.4793522357940674,0.8459893465042114,1.00455641746521,0.44462573528289795,0.5997981429100037,-0.6652445197105408,-0.2036895453929901,-0.35825157165527344,0.3894570469856262,0.9112241924118845,-0.3409953593492543,0.22605290769459765,0.04788330018198619
1728066645791217700,1.0062177734375,-2.6893327236175537,1.0383822917938232,1.1454064846038818,0.4573478400707245,0.6118658781051636,-0.6453317403793335,-0.20933157205581665,-0.38563913106918335,0.36994099617004395,0.9053940979042941,-0.35173714415505697,0.2315493913611312,0.05410424637673301
1728066645801248500,1.01624853515625,-3.034558057785034,1.1833860874176025,1.2795863151550293,0.4720349907875061,0.6243608593940735,-0.622379720211029,-0.21400892734527588,-0.41848933696746826,0.364582359790802,0.8985964198518056,-0.3635503166641028,0.23799437062410794,0.06094507142300889
1728066645811278600,1.026278564453125,-3.475238561630249,1.2806898355484009,1.4210423231124878,0.48811304569244385,0.637723445892334,-0.5958645343780518,-0.2220151126384735,-0.45113903284072876,0.3718653917312622,0.8906293336824425,-0.37689920096925816,0.24497905471505496,0.06864165347344187
1728066645821309400,1.036309326171875,-3.9195497035980225,1.3136965036392212,1.596691608428955,0.5055069327354431,0.6517539620399475,-0.5654019713401794,-0.20576339960098267,-0.46307915449142456,0.34413421154022217,0.8813063656537979,-0.39194498316846216,0.25234526311863215,0.07745982432861945
1728066645831339500,1.046339599609375,-4.178397178649902,1.2789199352264404,1.7869603633880615,0.523841142654419,0.6653780341148376,-0.531848132610321,-0.16931861639022827,-0.4544405937194824,0.30626213550567627,0.870784259133949,-0.4081635184612232,0.2597661748540018,0.087514647648569
1728066645841370600,1.05637060546875,-4.317108154296875,1.21387779712677,1.9776099920272827,0.5430001020431519,0.6772351861000061,-0.4964908957481384,-0.13000589609146118,-0.41328877210617065,0.22872957587242126,0.8593609774281604,-0.4247203036631158,0.267146419140804,0.0987116856112185
1728066645851401500,1.0664013671875,-4.361517906188965,1.2066062688827515,2.139508008956909,0.5628965497016907,0.6866463422775269,-0.4600696563720703,-0.0948944091796875,-0.3446054458618164,0.17289915680885315,0.8472026450408441,-0.44115167118418197,0.27450023501507603,0.11082574672587969
1728066645861431600,1.076431640625,-4.310081958770752,1.1931711435317993,2.2801222801208496,0.5835327506065369,0.6931613087654114,-0.4231037199497223,-0.07784140110015869,-0.2712711691856384,0.12804439663887024,0.8344454709377083,-0.45708004757061355,0.28200349976784084,0.1235009960700576
1728066645871462700,1.086462646484375,-4.243005752563477,1.184830665588379,2.42140793800354,0.6047844290733337,0.6964679956436157,-0.38622283935546875,-0.052324771881103516,-0.2058369517326355,0.0504683256149292,0.8212456857240186,-0.4722192312477273,0.2896507964350853,0.1366266549854358
1728066645881492700,1.09649267578125,-4.247081756591797,1.172120451927185,2.538820266723633,0.6265431642532349,0.696739912033081,-0.34928077459335327,-0.020616769790649414,-0.14640122652053833,-0.007103621959686279,0.8075194200264988,-0.48672047218268955,0.29742694934793223,0.15017562204730026
1728066645891523600,1.106523681640625,-4.3215718269348145,1.1117850542068481,2.597513198852539,0.6483014225959778,0.6945042014122009,-0.31204044818878174,0.005415558815002441,-0.10368388891220093,-0.0338306725025177,0.7931482844149147,-0.5009337722005852,0.3050329982750368,0.16412213931663283
1728066645901553700,1.1165537109375,-4.396483898162842,0.9956145286560059,2.6319305896759033,0.6696081161499023,0.6900308132171631,-0.2747404873371124,0.025795817375183105,-0.07203465700149536,-0.03808009624481201,0.7781439662205728,-0.5149818910037529,0.312127235898616,0.17849974773821833
1728066645911584500,1.12658447265625,-4.388123512268066,0.8381762504577637,2.6285786628723145,0.690121054649353,0.6833606958389282,-0.2382250279188156,0.05333292484283447,-0.05331003665924072,-0.03400716185569763,0.7627413626372385,-0.5286439030490229,0.3184699536458724,0.1932308567513607
1728066645921615600,1.13661572265625,-4.399690628051758,0.700438380241394,2.5952868461608887,0.7096482515335083,0.6747269034385681,-0.20283755660057068,0.08191663026809692,-0.01913297176361084,-0.028150171041488647,0.7470599592616085,-0.5418554973168881,0.323996666828733,0.20813517225331843
1728066645931645700,1.146645751953125,-4.341920375823975,0.5436595678329468,2.5313103199005127,0.7280625700950623,0.6643571853637695,-0.16898030042648315,0.10291564464569092,0.03885930776596069,0.024906650185585022,0.7312384807573955,-0.5545391968078394,0.3286276477790395,0.22311517756961724
1728066645941676500,1.156676513671875,-4.27633810043335,0.37487345933914185,2.4649875164031982,0.7452920079231262,0.6524887681007385,-0.1371062994003296,0.1287771463394165,0.09618371725082397,0.049017131328582764,0.7154702905510231,-0.5665553580525713,0.33235806024372516,0.2380238369420977
1728066645951706400,1.166706298828125,-4.302001953125,0.16658960282802582,2.3539531230926514,0.7612848877906799,0.6394748687744141,-0.10731655359268188,0.15224337577819824,0.13316911458969116,0.08000320196151733,0.6997524009965336,-0.5780396496475181,0.33498042839682274,0.2529914628863822
1728066645961737700,1.17673779296875,-4.407988548278809,-0.03486202657222748,2.2423620223999023,0.7758952975273132,0.6258769631385803,-0.07914699614048004,0.16491568088531494,0.1447376012802124,0.1069026067852974,0.6838765533388025,-0.5894032314183372,0.33619984161220223,0.26811602840468035
1728066645971767600,1.186767578125,-4.560697555541992,-0.2503204941749573,2.1975154876708984,0.7896144986152649,0.6113554239273071,-0.052472975105047226,0.18462854623794556,0.13775956630706787,0.09200835227966309,0.6676733679907493,-0.6006310610488944,0.336163414861533,0.2836348235590585
1728066645981798400,1.19679833984375,-4.810032367706299,-0.4910191297531128,2.0709428787231445,0.8023998141288757,0.5961732864379883,-0.02705376036465168,0.21394234895706177,0.127780020236969,0.06303387880325317,0.6509092263456059,-0.6120088608741007,0.3345418869192755,0.2997399338060932
1728066645991829800,1.206829833984375,-4.9966888427734375,-0.7165927290916443,1.9280301332473755,0.8141883611679077,0.5805927515029907,-0.003019814845174551,0.19229644536972046,0.14290273189544678,0.05999600887298584,0.6336211170270156,-0.6235059473930565,0.3312558318841972,0.31628166808616964
1728066646001859300,1.216859375,-5.036952972412109,-0.8924555778503418,1.7447012662887573,0.8248328566551208,0.565047562122345,0.019279561936855316,0.17029941082000732,0.18951475620269775,0.0249555092304945,0.6160760112418457,-0.6349255204603069,0.3263577244552841,0.33288199720095285
1728066646011890400,1.226890380859375,-4.945815086364746,-1.0420676469802856,1.5923354625701904,0.8344565033912659,0.5496828556060791,0.03912371024489403,0.11325138807296753,0.2522885203361511,0.03282129392027855,0.5987524076032831,-0.6457729219404207,0.32021740699526835,0.3491897918374049
1728066646021920500,1.23692041015625,-4.68788480758667,-1.120333194732666,1.4530047178268433,0.8432594537734985,0.5345584750175476,0.05622057616710663,0.07646399736404419,0.31424230337142944,0.03163934499025345,0.5820069824964698,-0.6556919500392165,0.31333425529525927,0.36490765690258026
1728066646031951400,1.246951416015625,-4.335064888000488,-1.1003450155258179,1.3026576042175293,0.8512905240058899,0.5199227929115295,0.07060086727142334,0.03754901885986328,0.3485463857650757,0.025865070521831512,0.5662120267930514,-0.6644558553980925,0.30626598190828785,0.3796095446527188
1728066646041981400,1.2569814453125,-3.98362135887146,-0.9830213189125061,1.1027934551239014,0.8583213090896606,0.5063492059707642,0.08303483575582504,-0.0036156177520751953,0.3400406241416931,0.018878459930419922,0.5515280929643481,-0.6722421584951584,0.29934578320861516,0.3928094172858525
1728066646052012500,1.267012451171875,-3.696464776992798,-0.8951187133789062,0.8754164576530457,0.8641316294670105,0.4943786859512329,0.09415977448225021,-0.05205899477005005,0.3076843023300171,0.05267536640167236,0.537952928647582,-0.67936246841991,0.2924833706494817,0.40438430754730315
1728066646062043400,1.27704345703125,-3.5643022060394287,-0.864734947681427,0.6805707812309265,0.8688162565231323,0.48401421308517456,0.10434740036725998,-0.07920455932617188,0.27384406328201294,0.1127239391207695,0.5252131731309173,-0.6861032525190476,0.28536998451517553,0.41470149141989715
1728066646072073500,1.287073486328125,-3.504154920578003,-0.8861867189407349,0.5805973410606384,0.8727961778640747,0.4746670424938202,0.11365701258182526,-0.08074307441711426,0.2419467568397522,0.1662043333053589,0.5129186448837667,-0.6925649113598703,0.27781711492594463,0.42436528027461495
1728066646082104300,1.297104248046875,-3.4242515563964844,-0.9051734805107117,0.5634282231330872,0.8765448331832886,0.465567022562027,0.12213265150785446,-0.0674477219581604,0.2144562304019928,0.1681656837463379,0.5008358223662911,-0.6986609501974705,0.2700725899398994,0.43370163429839204
1728066646092134400,1.307134521484375,-3.3191256523132324,-0.9057941436767578,0.5467807650566101,0.8802891373634338,0.45635977387428284,0.1297176331281662,-0.06830811500549316,0.20574963092803955,0.12691986560821533,0.4889475583586137,-0.7042859907512675,0.26237388975758347,0.44279951904658127
1728066646102165500,1.31716552734375,-3.049131155014038,-0.7324311137199402,0.4291630685329437,0.8836684823036194,0.4476732015609741,0.13681620359420776,-0.08389437198638916,0.22272181510925293,0.024728432297706604,0.4775670384268949,-0.7095205144194789,0.25492889802212376,0.4511336870460784
1728066646112196400,1.3271962890625,-2.5671043395996094,-0.4141855537891388,0.2307109832763672,0.8859713673591614,0.4407293200492859,0.1442645788192749,-0.13726848363876343,0.2540644109249115,-0.11315202713012695,0.46747650783718747,-0.7144601400683526,0.2483525686668035,0.45752965448838406
1728066646122226400,1.337226318359375,-2.098177909851074,-0.18968798220157623,0.027420708909630775,0.8869773745536804,0.43613550066947937,0.15184572339057922,-0.19300764799118042,0.2993077039718628,-0.1760920137166977,0.4591900505255237,-0.7190190514916156,0.24276421218678798,0.4617593516739831
1728066646132257500,1.347257568359375,-1.7886790037155151,-0.07296286523342133,-0.11102718114852905,0.8869767785072327,0.4335201382637024,0.1591615229845047,-0.20025509595870972,0.3404819965362549,-0.13708221912384033,0.4524496390321776,-0.7232035933014772,0.23781783429101847,0.46444430657665353
1728066646142287600,1.35728759765625,-1.5444297790527344,-0.04360124468803406,-0.1866191327571869,0.8864187598228455,0.43212607502937317,0.16591808199882507,-0.16148895025253296,0.311007559299469,-0.07428918778896332,0.4467982653095369,-0.7270125148085592,0.23326346721388583,0.4662748699012507
1728066646152318500,1.367318359375,-1.3645113706588745,-0.0616857074201107,-0.2310369312763214,0.8856042623519897,0.43154382705688477,0.17168177664279938,-0.11434900760650635,0.19728612899780273,0.004831776022911072,0.4420849881948832,-0.7303402914962779,0.22900643724033554,0.4676749015070018
1728066646162348500,1.3773486328125,-1.4056729078292847,-0.08247540146112442,-0.2584909498691559,0.8846744298934937,0.4313061535358429,0.1769915372133255,-0.0719456672668457,0.08260989189147949,0.06605029106140137,0.437697176007312,-0.7334800136180484,0.22472836746633543,0.4689619699686202
1728066646172379400,1.38737939453125,-1.5869194269180298,-0.14201879501342773,-0.28605014085769653,0.8837002515792847,0.431020587682724,0.18246769905090332,-0.03735661506652832,0.034631818532943726,0.13505227863788605,0.43296750683976765,-0.7367758024574406,0.2199892449192019,0.47043068043660596
1728066646182410500,1.397410400390625,-1.767938494682312,-0.20631735026836395,-0.3409104645252228,0.8826845288276672,0.43065565824508667,0.18815743923187256,-0.008707165718078613,0.04616621136665344,0.1595596969127655,0.4276747691889487,-0.7403211919187317,0.21448369363643022,0.47224504129757794
1728066646192440600,1.407440673828125,-1.826215147972107,-0.22634127736091614,-0.37138181924819946,0.8815776109695435,0.43031421303749084,0.19403766095638275,0.006102383136749268,0.08444112539291382,0.11689057946205139,0.42202100007584337,-0.7440280267674544,0.20842535499955245,0.4742145827979393
1728066646202471400,1.417471435546875,-1.790999412536621,-0.2219662368297577,-0.398018479347229,0.8803715109825134,0.43011191487312317,0.19987379014492035,0.01585334539413452,0.12344646453857422,0.056168556213378906,0.41636500593240383,-0.7477047061751874,0.20217459687078335,0.4761335805134992
1728066646212501800,1.427501708984375,-1.7430411577224731,-0.25491172075271606,-0.4134847819805145,0.8791036009788513,0.43011683225631714,0.2053678184747696,0.02623063325881958,0.12571504712104797,0.030532926321029663,0.4109652092429869,-0.7511893282273812,0.1959553524996882,0.47793672194575576
1728066646222532900,1.437532958984375,-1.792757272720337,-0.25666168332099915,-0.4313010573387146,0.877837061882019,0.4301449954509735,0.2106587439775467,0.04712003469467163,0.09471157193183899,0.03586207330226898,0.40557623525972997,-0.7545733729810661,0.1896006146438768,0.4797691540995601
1728066646232562400,1.4475625,-1.812943458557129,-0.18702737987041473,-0.4713289141654968,0.8763835430145264,0.4302124083042145,0.21649318933486938,0.07700085639953613,0.0422760546207428,0.03928986191749573,0.4000029370177048,-0.7581068404366602,0.18308635923197342,0.48140534140229063
1728066646242593800,1.45759375,-1.8080956935882568,-0.18706625699996948,-0.4858279526233673,0.8747072815895081,0.4304449260234833,0.2227199226617813,0.09390521049499512,0.011892139911651611,0.05749237537384033,0.3944336268310187,-0.7617076194525901,0.17652609967331237,0.4827650567324507
1728066646252624600,1.467624755859375,-1.81386399269104,-0.2248803824186325,-0.4450989067554474,0.8731651306152344,0.43042171001434326,0.22873471677303314,0.1175115704536438,0.038038402795791626,0.10662281513214111,0.3888076888693233,-0.7651690606918811,0.16995194789045417,0.4842118852123991
1728066646262654500,1.477654541015625,-1.672326922416687,-0.2573946416378021,-0.4029613137245178,0.8719003796577454,0.4300380051136017,0.23421579599380493,0.1549549698829651,0.09903004765510559,0.11141097545623779,0.38328264493786585,-0.7683388260024174,0.1635950627722468,0.48578445046148633
1728066646272685800,1.487685791015625,-1.4205594062805176,-0.31769612431526184,-0.35727131366729736,0.8709580898284912,0.4296753704547882,0.23834958672523499,0.1792125105857849,0.1420256495475769,0.07781238853931427,0.37846405438040004,-0.7708915407058116,0.15780059344884514,0.48743197430609614
1728066646282715600,1.497715576171875,-1.2243800163269043,-0.33905893564224243,-0.34186387062072754,0.8702716827392578,0.42951837182044983,0.24112439155578613,0.19997966289520264,0.13801702857017517,0.029322251677513123,0.3744656448850032,-0.7728340193519708,0.15260986919678848,0.489094255344284
1728066646292746500,1.50774658203125,-1.1656702756881714,-0.3450484871864319,-0.38127464056015015,0.8695571422576904,0.4297657608985901,0.24325230717658997,0.21168053150177002,0.0975169837474823,-0.014141678810119629,0.37100508408887994,-0.7744802137534571,0.14767040933493752,0.49064144368928614
1728066646302776600,1.517776611328125,-1.2759538888931274,-0.32602208852767944,-0.44423922896385193,0.868641197681427,0.43035003542900085,0.24548175930976868,0.20173227787017822,0.03978860378265381,-0.006208747625350952,0.36753795747719026,-0.7761765945007204,0.1424456767846936,0.492112774222504
1728066646312807700,1.5278076171875,-1.370782732963562,-0.2699064016342163,-0.488128125667572,0.8673640489578247,0.4311100244522095,0.2486436665058136,0.19618868827819824,-0.016223490238189697,0.02812016010284424,0.36372984844616857,-0.778203425796538,0.13682567230745912,0.4933343145566095
1728066646322838500,1.537838623046875,-1.4545029401779175,-0.20821347832679749,-0.48349690437316895,0.8658729791641235,0.43179580569267273,0.2526184916496277,0.18437403440475464,-0.05023452639579773,0.04967328906059265,0.3595624214224496,-0.7804885038372518,0.13094630486557132,0.494373867780946
1728066646332868600,1.54786865234375,-1.3908580541610718,-0.08381348848342896,-0.430928498506546,0.864273726940155,0.4320909082889557,0.2575426399707794,0.18221968412399292,-0.0487138032913208,0.04619872570037842,0.3551753060362448,-0.782982145061107,0.12534064728303193,0.4950546665614777
1728066646342899500,1.5578994140625,-1.2421019077301025,0.01153806783258915,-0.3715597093105316,0.8626453280448914,0.4321032166481018,0.26292550563812256,0.17263299226760864,-0.021687477827072144,0.03274396061897278,0.3510087167443014,-0.7854663805083313,0.12043804267701272,0.4953080829393805
1728066646352929500,1.567929443359375,-1.0660765171051025,0.10616257786750793,-0.32619115710258484,0.8610102534294128,0.43198859691619873,0.2684163749217987,0.15658318996429443,0.028277605772018433,0.030686289072036743,0.34725219965503973,-0.7878359843329333,0.1162869140885154,0.49518458076040417
1728066646362960600,1.577960693359375,-0.787216305732727,0.18924787640571594,-0.3057290315628052,0.8592274188995361,0.4322071373462677,0.27372467517852783,0.1432749629020691,0.06393247842788696,-0.002438753843307495,0.3442997257199334,-0.7899942525181826,0.11301071396425244,0.4945658271936566
1728066646372991500,1.587991455078125,-0.5496446490287781,0.3043110966682434,-0.2852802276611328,0.8572878241539001,0.43286824226379395,0.2787160873413086,0.13479286432266235,0.06420215964317322,-0.05329808592796326,0.3422344120184164,-0.7919107905404429,0.11061350495914568,0.4934749763650314
1728066646383021600,1.598021484375,-0.3619530498981476,0.3835531771183014,-0.2910504937171936,0.8550859093666077,0.4340461194515228,0.28360509872436523,0.14965945482254028,0.04356926679611206,-0.07819139957427979,0.34096121240787053,-0.793682324037612,0.10895374258681056,0.4918768532499836
1728066646393052700,1.608052734375,-0.2758678197860718,0.42661961913108826,-0.3044224977493286,0.8526394963264465,0.43566590547561646,0.2884456515312195,0.17433792352676392,0.012652605772018433,-0.08741128444671631,0.34020484535444473,-0.7953784273795821,0.10768464690744492,0.48993648074495005
1728066646403082500,1.61808251953125,-0.1789489984512329,0.4116806089878082,-0.3103775680065155,0.8500608205795288,0.4376125633716583,0.2930724620819092,0.21631473302841187,-0.002401381731033325,-0.06211557984352112,0.3398247128720739,-0.7969714165358811,0.10664327675307447,0.48783479477028674
1728066646413113600,1.628113525390625,-0.13738425076007843,0.3290663957595825,-0.31016799807548523,0.8476101160049438,0.43977513909339905,0.2969076335430145,0.2536926865577698,-0.0197007954120636,-0.01257556676864624,0.3397561613840679,-0.7983044004156152,0.1056593304844405,0.4859132098162846
1728066646423143700,1.638143798828125,-0.10645110160112381,0.27244120836257935,-0.3098638653755188,0.8453677892684937,0.4420015811920166,0.29997923970222473,0.27667176723480225,-0.0321352481842041,0.017693370580673218,0.3398392770305275,-0.7994017002595424,0.10462569515475935,0.48427215900803355
1728066646433174500,1.648174560546875,-0.05096886307001114,0.24182923138141632,-0.3227356970310211,0.8431922793388367,0.44444647431373596,0.3024791181087494,0.28467613458633423,-0.03667059540748596,0.0006670653820037842,0.34017017123672244,-0.8003145887500008,0.10361521858138703,0.4827468316321323
1728066646443205600,1.65820556640625,0.007859033532440662,0.2742295265197754,-0.31416699290275574,0.8410038948059082,0.44704678654670715,0.30473193526268005,0.2640528082847595,-0.041605472564697266,-0.016142606735229492,0.34070424444774267,-0.8011340016807725,0.1027145275068013,0.4812012176723895
1728066646453235700,1.668235595703125,0.05796873942017555,0.21540439128875732,-0.2609192132949829,0.838941216468811,0.44961950182914734,0.3066263496875763,0.24873560667037964,-0.03615206480026245,-0.029603123664855957,0.3414442758689031,-0.8018070736975268,0.10207148696597892,0.4796900749712485
1728066646463266600,1.6782666015625,0.055929288268089294,0.26233431696891785,-0.19225412607192993,0.8372383117675781,0.45163094997406006,0.308320552110672,0.2670860290527344,-0.014436036348342896,-0.05439910292625427,0.3420583131839028,-0.8023832745447391,0.10169243894785568,0.47836792047349525
1728066646473296600,1.688296630859375,0.15129156410694122,0.29953253269195557,-0.17588020861148834,0.8355545401573181,0.45346298813819885,0.3101930618286133,0.29779189825057983,-0.009477943181991577,-0.09580719470977783,0.3427654373775747,-0.8029658797473844,0.10169724585909644,0.47688076352694786
1728066646483327700,1.69832763671875,0.195242241024971,0.34221822023391724,-0.17060235142707825,0.833781361579895,0.45545098185539246,0.31204643845558167,0.30064845085144043,-0.01587572693824768,-0.12366151809692383,0.3437189773460958,-0.8035087986288537,0.10196483118779424,0.4752199918344178
1728066646493357600,1.708357666015625,0.18412041664123535,0.318821519613266,-0.13318440318107605,0.8320562839508057,0.4573049247264862,0.3139331340789795,0.31305456161499023,-0.012511283159255981,-0.09495443105697632,0.3446863201552459,-0.8040401982137023,0.10240081424021563,0.47352355634629173
1728066646503388700,1.718388671875,0.1652125120162964,0.2462139129638672,-0.10821861028671265,0.8306439518928528,0.4588088393211365,0.3154754638671875,0.3434128761291504,-0.03502646088600159,-0.06774917244911194,0.34551949505447965,-0.8044629320575233,0.10284516874442971,0.4721000324551024
1728066646513419500,1.72841943359375,0.04092923551797867,0.15633179247379303,-0.12999235093593597,0.8295036554336548,0.4600987136363983,0.31659531593322754,0.3754064440727234,-0.09498640894889832,-0.08003845810890198,0.3461421806525411,-0.8047899127187068,0.10300903101349398,0.4710497187825336
1728066646523449600,1.73844970703125,-0.12521472573280334,0.21698501706123352,-0.21821115911006927,0.8281954526901245,0.4613403379917145,0.31820935010910034,0.39801597595214844,-0.14862671494483948,-0.10356402397155762,0.34625521678799415,-0.805355492534369,0.10250465137719131,0.4701091085756605
1728066646533480700,1.748480712890625,-0.35856491327285767,0.31005382537841797,-0.2905980050563812,0.8261749744415283,0.4627041816711426,0.3214649558067322,0.4148223400115967,-0.14081993699073792,-0.11400660872459412,0.3457772928067932,-0.8065075572061561,0.10138065011958658,0.46872761438272575
1728066646543510800,1.7585107421875,-0.49759921431541443,0.2956905961036682,-0.2001035213470459,0.8239731192588806,0.46334347128868103,0.3261612355709076,0.4188551902770996,-0.04043084383010864,-0.03400123119354248,0.34441125890324226,-0.8081495274387929,0.09987469528788329,0.4672261327432859
1728066646553541600,1.768541748046875,-0.36259180307388306,0.09475807100534439,-0.06848052144050598,0.8227868676185608,0.46291211247444153,0.3297485113143921,0.43913012742996216,0.05504754185676575,0.03690481185913086,0.3428114923022535,-0.8094086824905703,0.09865008484953318,0.4664825656545293
1728066646563572700,1.77857275390625,-0.10408541560173035,0.02507965639233589,-0.02959517203271389,0.8224500417709351,0.46246010065078735,0.3312196135520935,0.4377884864807129,0.06706565618515015,-0.04667377471923828,0.34193663847153155,-0.8099376111612271,0.09803504245539058,0.46633623678480013
1728066646573602600,1.7886025390625,0.01864244043827057,-0.00897812470793724,-0.04386092722415924,0.822308361530304,0.46261918544769287,0.3313494324684143,0.38156431913375854,0.060330092906951904,-0.1337176263332367,0.34189148108809053,-0.8100012292566443,0.09784032094206759,0.4662997944325354
1728066646583633700,1.798633544921875,0.12965843081474304,0.022031188011169434,-0.014856440015137196,0.8221739530563354,0.4630666971206665,0.33105695247650146,0.33212268352508545,0.0691903829574585,-0.1385827362537384,0.34223535161587143,-0.8099030327998026,0.09790583884155243,0.46620413931028853
1728066646593663700,1.808663818359375,0.19149550795555115,0.006620541214942932,0.01709696650505066,0.8221859335899353,0.46357521414756775,0.330314964056015,0.34111344814300537,0.035478800535202026,-0.21073198318481445,0.34291685792453447,-0.809619245014317,0.09835733024297313,0.46610130388139676
1728066646603694600,1.818694580078125,0.039229538291692734,-0.08563561737537384,0.04965437576174736,0.822503924369812,0.4636686444282532,0.3293907046318054,0.3523615598678589,-0.011703342199325562,-0.25154048204421997,0.34335167359815244,-0.8092882460646217,0.09873136656886214,0.4662768527205515
1728066646613724700,1.828724609375,-0.12513011693954468,-0.15605013072490692,0.1196555569767952,0.8233665227890015,0.4627702832221985,0.32849791646003723,0.3541082739830017,-0.062059223651885986,-0.20584788918495178,0.3430255949178829,-0.8090076666880595,0.09877021311825115,0.4669950288125579
1728066646623755800,1.838755859375,-0.29288557171821594,-0.20048949122428894,0.17372334003448486,0.8247164487838745,0.46079882979393005,0.3278827667236328,0.35767173767089844,-0.13354352116584778,-0.20701801776885986,0.34191674784945625,-0.8088388626523598,0.09859554846127465,0.46813619275545926
1728066646633786600,1.84878662109375,-0.42707711458206177,-0.20759981870651245,0.23094214498996735,0.8263944983482361,0.4578443467617035,0.3277965188026428,0.34319156408309937,-0.15973332524299622,-0.20279669761657715,0.3400438211207236,-0.8088563920737322,0.09823235034492381,0.469544342474185
1728066646643816700,1.858816650390625,-0.36893951892852783,-0.20481336116790771,0.26749056577682495,0.8282909989356995,0.45435771346092224,0.32786139845848083,0.32600587606430054,-0.1311764419078827,-0.20368549227714539,0.33788079301131896,-0.808911788630016,0.09794089240607344,0.4710688713498827
1728066646653847800,1.868847900390625,-0.21745896339416504,-0.24560466408729553,0.29408302903175354,0.830378532409668,0.4509958028793335,0.3272221088409424,0.30475324392318726,-0.07468345761299133,-0.22999322414398193,0.33613764006141855,-0.8087025372764424,0.09803706542985488,0.4726525379210764
1728066646663877600,1.878877685546875,-0.10664990544319153,-0.28402236104011536,0.3138439357280731,0.832718014717102,0.44782939553260803,0.32562151551246643,0.2823178768157959,-0.005904287099838257,-0.2292470932006836,0.3348760568977725,-0.8081540612636524,0.09847723168762898,0.4743913874482014
1728066646673908700,1.88890869140625,-0.022290877997875214,-0.31744295358657837,0.3151978850364685,0.8351888060569763,0.4449211359024048,0.32327133417129517,0.27014243602752686,0.03841620683670044,-0.21284368634223938,0.33402191342600973,-0.8073462559338395,0.09913471093937362,0.4762284108670538
1728066646683938800,1.898938720703125,0.023079266771674156,-0.3436969518661499,0.32770782709121704,0.8377822637557983,0.4421447813510895,0.3203568160533905,0.26062148809432983,0.021310418844223022,-0.20338311791419983,0.3334131434946094,-0.8063477093729032,0.09990888682658604,0.4781810396092848
1728066646693969700,1.9089697265625,0.031021878123283386,-0.3510017395019531,0.35140594840049744,0.8404914736747742,0.4393019378185272,0.3171558082103729,0.26271897554397583,-0.03883492946624756,-0.19508561491966248,0.33289778489277827,-0.8052417539327985,0.10081482585465062,0.4802094514325776
1728066646704000800,1.919000732421875,-0.048719026148319244,-0.317350834608078,0.3772391676902771,0.8432614207267761,0.43610554933547974,0.3142004907131195,0.2634584307670593,-0.08966997265815735,-0.18834617733955383,0.33214844878580746,-0.8042076734373403,0.10173621828072804,0.4822624602754528
1728066646714030800,1.92903076171875,-0.08057775348424911,-0.2592073082923889,0.3952423930168152,0.8459606170654297,0.4324975311756134,0.3119238317012787,0.25834834575653076,-0.10670706629753113,-0.16131961345672607,0.33105344494754535,-0.8033805399669613,0.10267240383209568,0.4841917855751589
1728066646724061700,1.939061767578125,-0.021424420177936554,-0.20939074456691742,0.4223347306251526,0.8485525250434875,0.4287645220756531,0.3100309669971466,0.24701309204101562,-0.09415450692176819,-0.15588676929473877,0.32996011771564265,-0.8026410606509776,0.10384031038750229,0.48591223192278915
1728066646734091800,1.949091796875,0.20347487926483154,-0.21213620901107788,0.4452704191207886,0.8511897921562195,0.4251391589641571,0.3077857494354248,0.23920297622680664,-0.04585146903991699,-0.16366666555404663,0.32928933040581804,-0.8017256449285761,0.10549340875540487,0.48751970647630594
1728066646744122600,1.95912255859375,0.5970941185951233,-0.2409510761499405,0.4005926847457886,0.8538447618484497,0.4225844144821167,0.3039264380931854,0.23993557691574097,-0.0049818456172943115,-0.2020588219165802,0.3299727457294996,-0.8002041848167828,0.10787251158193174,0.48903442037277395
1728066646754152400,1.96915234375,0.8844859004020691,-0.2208973467350006,0.38637351989746094,0.8563246130943298,0.4213547706604004,0.2986098825931549,0.21928244829177856,0.015992581844329834,-0.26118019223213196,0.3321060775975454,-0.7981239652381164,0.11091926017044915,0.49030645687442276
1728066646764183800,1.979183837890625,1.0274302959442139,-0.29366958141326904,0.406987726688385,0.8589064478874207,0.4206911325454712,0.29205918312072754,0.2025100588798523,0.02112710475921631,-0.1659911870956421,0.33516289359742907,-0.7955587657860544,0.1145244286905003,0.4915650659223323
1728066646774214700,1.989214599609375,0.7484410405158997,-0.42575809359550476,0.42827412486076355,0.8618335127830505,0.41953936219215393,0.2850083112716675,0.20779234170913696,-0.0016010105609893799,-0.052708595991134644,0.3379594141402634,-0.7928377822479877,0.11795086619254755,0.49323348395610167
1728066646784244500,1.999244384765625,0.22203931212425232,-0.6044588685035706,0.41308850049972534,0.865236759185791,0.41707825660705566,0.2782283127307892,0.22321832180023193,-0.035257548093795776,0.07356297969818115,0.33912792588859725,-0.7903884944334555,0.12000073873621067,0.49586093149407906
1728066646794275800,2.00927587890625,-0.0540575310587883,-0.669357419013977,0.40254077315330505,0.868908703327179,0.4134955406188965,0.27206459641456604,0.22462767362594604,-0.13010922074317932,0.10855057835578918,0.3387288189248702,-0.7883227557624173,0.12074571296652295,0.49922991150137436
1728066646804305700,2.0193056640625,-0.21725523471832275,-0.6047576665878296,0.40033408999443054,0.872526228427887,0.4094041883945465,0.26661986112594604,0.22479432821273804,-0.24241191148757935,-0.03398439288139343,0.3375729484528585,-0.7865585283246229,0.12097772366636785,0.5027271133236624
1728066646814336500,2.02933642578125,-0.5584471225738525,-0.5320519208908081,0.419094979763031,0.8759200572967529,0.40453094244003296,0.2629036009311676,0.18860912322998047,-0.23651644587516785,-0.07427456974983215,0.33536183927711927,-0.7854041267377704,0.12079802821155895,0.5060439252506892
1728066646824367900,2.039367919921875,-0.9307727217674255,-0.5566571354866028,0.39910343289375305,0.8792431950569153,0.3986119329929352,0.26084432005882263,0.15615707635879517,-0.09749495983123779,0.02763819694519043,0.3316207083831682,-0.7849166876263863,0.1196994480513617,0.5095149498534336
1728066646834397400,2.0493974609375,-0.9983504414558411,-0.5565202236175537,0.3357204794883728,0.8824542164802551,0.3924269378185272,0.25937479734420776,0.13997602462768555,0.018354952335357666,0.09693297743797302,0.32705960062810585,-0.784738533293212,0.1177829784230285,0.5131709954766658
1728066646844428500,2.059428466796875,-0.8850997686386108,-0.5460838675498962,0.25039198994636536,0.8853654265403748,0.3869633376598358,0.2576567232608795,0.13492852449417114,0.04862925410270691,0.014910906553268433,0.32286910947468916,-0.7844923841963151,0.11575865450930564,0.5166497660085628
1728066646854458600,2.069458740234375,-0.954308271408081,-0.6349599957466125,0.2085806429386139,0.8882222771644592,0.38201043009757996,0.25520431995391846,0.12090247869491577,0.06240189075469971,-0.01640436053276062,0.318965218068055,-0.7840335383173962,0.11354988845429734,0.5202490130712933
1728066646864489500,2.079489501953125,-0.9406158924102783,-0.4762912690639496,0.1889267861843109,0.8910462856292725,0.3770005702972412,0.2527978718280792,0.1259823441505432,0.08286884427070618,0.005563825368881226,0.3147903946252482,-0.7836256369832117,0.11103958832890433,0.5239350553452826
1728066646874519600,2.08951953125,-0.7457449436187744,-0.36071112751960754,0.1545610874891281,0.8931178450584412,0.3728523552417755,0.2516370117664337,0.11998921632766724,0.07714462280273438,-0.04188981652259827,0.3112364680507583,-0.7835317371576872,0.10907120779539199,0.5266053352965705
1728066646884550700,2.099550537109375,-0.7818934321403503,-0.3877533972263336,0.1615111380815506,0.8949153423309326,0.36918413639068604,0.25065845251083374,0.06367236375808716,0.08134692907333374,0.03832772374153137,0.30797792934092205,-0.7834789285553762,0.10719136907718828,0.5289805152362504
1728066646894581500,2.10958154296875,-0.6781309843063354,-0.464380145072937,0.14685869216918945,0.8967368006706238,0.36573106050491333,0.24920649826526642,0.07454609870910645,0.09584736824035645,0.11509695649147034,0.30487887383201634,-0.7832778960479027,0.10525677942338102,0.5314561231716689
1728066646904611600,2.119611572265625,-0.5815466642379761,-0.4740959107875824,0.11995730549097061,0.8984800577163696,0.3628840148448944,0.24707995355129242,0.06964415311813354,0.06178337335586548,0.09712767601013184,0.30230637353237305,-0.7828440331219398,0.103417577558816,0.5339202029718624
1728066646914642700,2.129642578125,-0.5164881944656372,-0.4387248754501343,0.13323982059955597,0.9001550674438477,0.3602890372276306,0.2447700947523117,0.04028975963592529,0.051942408084869385,0.11721408367156982,0.3000162881006278,-0.7823251146959532,0.10174706367996478,0.5362882234507336
1728066646924672500,2.139672607421875,-0.4181346893310547,-0.39899370074272156,0.12915852665901184,0.9017019867897034,0.3578556180000305,0.24263690412044525,0.04058915376663208,0.07204553484916687,0.1013723611831665,0.29802611547762425,-0.7818128484988267,0.1004346510400472,0.5383882439091362
1728066646934703600,2.14970361328125,-0.4553426206111908,-0.38160932064056396,0.046963781118392944,0.903020441532135,0.35595813393592834,0.24051521718502045,0.014108896255493164,0.10903823375701904,0.09755834937095642,0.29631096801196877,-0.7813079172753791,0.09907345203862758,0.540316627788075
1728066646944734500,2.159734375,-0.4845484495162964,-0.29032760858535767,-0.02561561018228531,0.9039502739906311,0.3545862138271332,0.23904407024383545,-0.042088329792022705,0.1472296118736267,0.1416320502758026,0.29449876734827807,-0.7810615395338202,0.09728775966973197,0.5419854725457388
1728066646954764500,2.1697646484375,-0.45805931091308594,-0.27834656834602356,-0.13497671484947205,0.9043321013450623,0.35421502590179443,0.23814894258975983,-0.0818224549293518,0.12462106347084045,0.13343298435211182,0.29309103216883226,-0.7810118067267133,0.09536788124051233,0.543160259022521
1728066646964795600,2.179795654296875,-0.5919398665428162,-0.23730866611003876,-0.22289271652698517,0.9043568968772888,0.3545513153076172,0.23755419254302979,-0.11720174551010132,0.08322343230247498,0.10373905301094055,0.2916304240168935,-0.7811261800510103,0.09283851121415315,0.5442192511290594
1728066646974825700,2.18982568359375,-0.6011636257171631,-0.15167339146137238,-0.2775847315788269,0.9039679169654846,0.3553677201271057,0.2378145009279251,-0.12566286325454712,0.04906654357910156,0.08175018429756165,0.2900427654647082,-0.7815512720480916,0.08991586393945825,0.5449476137323858
1728066646984856600,2.199856689453125,-0.5589879751205444,0.012522744946181774,-0.275407075881958,0.9031639695167542,0.3564783036708832,0.23920263350009918,-0.1286432147026062,-0.002367556095123291,0.03246474266052246,0.28857542757648225,-0.782306081099586,0.08716942694408421,0.5450897420104353
1728066646994886700,2.20988671875,-0.6082016229629517,0.09749872982501984,-0.2639767825603485,0.9021186232566833,0.35744789242744446,0.24168768525123596,-0.1294441819190979,-0.010356158018112183,0.057262420654296875,0.28699893021381356,-0.7833783555354888,0.0846297661159205,0.5447822905246247
1728066647004917500,2.21991748046875,-0.5651540160179138,0.1381572186946869,-0.2823081314563751,0.900895893573761,0.35836678743362427,0.2448662966489792,-0.11395454406738281,0.018052279949188232,0.09393976628780365,0.28531266744213196,-0.7846589498826892,0.08211870517938454,0.5442089878319705
1728066647014948600,2.229948486328125,-0.38078007102012634,0.1292581409215927,-0.3191702663898468,0.8995315432548523,0.35985276103019714,0.2476864904165268,-0.0999712347984314,0.033732473850250244,0.10173961520195007,0.2842062722369948,-0.7857903875069129,0.07985434108374814,0.5434918433396883
1728066647024978700,2.239978759765625,-0.2869877815246582,0.13853739202022552,-0.3602133095264435,0.8980236649513245,0.3620588183403015,0.2499336451292038,-0.09428220987319946,0.05636775493621826,0.08293679356575012,0.2838099194372619,-0.7867060756055629,0.07784838987546691,0.5426647723759125
1728066647035009500,2.250009521484375,-0.3140309751033783,0.2095390260219574,-0.3906764090061188,0.8962892293930054,0.3646361529827118,0.25240036845207214,-0.09953641891479492,0.1016266942024231,0.10483837127685547,0.28360877607058754,-0.7876856814295587,0.07583829827416445,0.5416325638111017
1728066647045039600,2.26003955078125,-0.37543466687202454,0.28467318415641785,-0.48031336069107056,0.8941331505775452,0.3675651252269745,0.2557772696018219,-0.11920017004013062,0.13057342171669006,0.1601009964942932,0.28331529706756087,-0.7889714174819724,0.07357129627290562,0.5402257751580712
1728066647055070700,2.27007080078125,-0.4730388820171356,0.2967473864555359,-0.5985121726989746,0.8914334774017334,0.37124454975128174,0.2598530054092407,-0.13822925090789795,0.12252986431121826,0.20535683631896973,0.2830076072909133,-0.7905190972113072,0.07075353226882165,0.5384980080099736
1728066647065100500,2.2801005859375,-0.616646945476532,0.308437317609787,-0.6799572110176086,0.8882850408554077,0.3754773437976837,0.2645111382007599,-0.13007599115371704,0.1027941107749939,0.23603805899620056,0.28245484808044613,-0.7923018851091204,0.06718100418919686,0.5366223692599384
1728066647075131600,2.290131591796875,-0.7625491619110107,0.26514115929603577,-0.6958467364311218,0.884932816028595,0.3797348141670227,0.26962047815322876,-0.09324592351913452,0.07767793536186218,0.25383222103118896,0.28147385114584483,-0.7942544161898147,0.063009189291217,0.5347543146662956
1728066647085162800,2.300162841796875,-0.9681332111358643,0.1445430964231491,-0.6935784816741943,0.8817431926727295,0.3835022449493408,0.27469003200531006,-0.05569356679916382,0.055737316608428955,0.2642655372619629,0.27983877712613536,-0.7962112179657064,0.05824700671330665,0.5332402004126277
1728066647095192600,2.310192626953125,-1.1517212390899658,0.023879051208496094,-0.7280510067939758,0.878811240196228,0.386759489774704,0.2794778645038605,-0.03950154781341553,0.0642903745174408,0.25979819893836975,0.27743843031320353,-0.7980994850091775,0.05268909689128866,0.5322489824562823
1728066647105223700,2.3202236328125,-1.1462335586547852,0.02649400755763054,-0.7259942293167114,0.8759328126907349,0.3898928463459015,0.2841217517852783,-0.05220240354537964,0.10020428895950317,0.21825852990150452,0.2747257522428747,-0.799925658155561,0.046688549864434416,0.5314742235406201
1728066647115253800,2.330253662109375,-0.9733161926269531,0.12772251665592194,-0.6886109113693237,0.8729277849197388,0.39304056763648987,0.28899189829826355,-0.0878172516822815,0.13535615801811218,0.1371554434299469,0.2723151930301342,-0.8017514792126836,0.041115922530857094,0.5304229573281792
1728066647125284600,2.34028466796875,-0.7923762202262878,0.17506633698940277,-0.6689956784248352,0.8698128461837769,0.39635393023490906,0.2938176393508911,-0.13224893808364868,0.14720994234085083,0.10516905784606934,0.27052461135612055,-0.8034884394601781,0.03626492959483929,0.5290628396737588
1728066647135314700,2.350314697265625,-0.6185753345489502,0.20018750429153442,-0.7239105701446533,0.8664865493774414,0.400276780128479,0.2982942759990692,-0.16197311878204346,0.125296950340271,0.1163632869720459,0.26947975185156053,-0.8050661209110985,0.031869784353709456,0.5274784311115348
1728066647145345800,2.360345703125,-0.5315488576889038,0.18177254498004913,-0.8208190202713013,0.8627839088439941,0.40528157353401184,0.3022429049015045,-0.18327951431274414,0.09639698266983032,0.1453125774860382,0.26920232597055493,-0.8064522344817214,0.027500042633425835,0.5257457924937771
1728066647155376600,2.370376708984375,-0.4456334710121155,0.20439918339252472,-0.8561424016952515,0.8587357401847839,0.4110791087150574,0.30591949820518494,-0.18034541606903076,0.1008685827255249,0.15877151489257812,0.26941035014611203,-0.8077306576286001,0.023042047043310587,0.5238876414808051
1728066647165406700,2.38040673828125,-0.4805528521537781,0.17662374675273895,-0.7443045377731323,0.8547635674476624,0.41660189628601074,0.30955103039741516,-0.1500059962272644,0.14116787910461426,0.14093410968780518,0.269607004629169,-0.8089641617149396,0.018774915472369074,0.5220502341505157
1728066647175437600,2.3904375,-0.2897619307041168,0.18689991533756256,-0.6203053593635559,0.8513421416282654,0.4211438000202179,0.3128160238265991,-0.12127041816711426,0.18835321068763733,0.14549678564071655,0.2697145860577385,-0.8100475413045674,0.01519850943076643,0.5204284960848037
1728066647185467600,2.400467529296875,0.07838866114616394,0.2129586786031723,-0.5888017416000366,0.8481425046920776,0.42595136165618896,0.314990758895874,-0.1300641894340515,0.16015392541885376,0.05630120635032654,0.2708450463074512,-0.8107606370383204,0.012750363872710535,0.5187941724777447
1728066647195498800,2.410498779296875,0.31251126527786255,0.2653631567955017,-0.6098537445068359,0.8447751402854919,0.4317469298839569,0.3161480724811554,-0.17418181896209717,0.08113154768943787,-0.01930364966392517,0.2732486802679873,-0.8111408483126943,0.011160545292337138,0.5169730415652135
1728066647205529600,2.420529541015625,0.46680310368537903,0.32840630412101746,-0.614098310470581,0.8411233425140381,0.43819546699523926,0.31701135635375977,-0.21026402711868286,0.041189998388290405,0.005788236856460571,0.2764081274797265,-0.8114211228592364,0.010071759759642723,0.5148716834728327
1728066647215560000,2.430559814453125,0.6318939328193665,0.31136175990104675,-0.6037293076515198,0.8373460173606873,0.4451443552970886,0.3173297643661499,-0.22397321462631226,0.03456154465675354,0.026221781969070435,0.280227439522482,-0.8115267992528249,0.00944098388699549,0.5126477401008912
1728066647225591000,2.440591064453125,0.6285884380340576,0.3321719765663147,-0.5816647410392761,0.8336455225944519,0.4522087574005127,0.3170839846134186,-0.21532893180847168,0.032929301261901855,0.030785828828811646,0.2843801367008457,-0.8114547129277297,0.009123298923564149,0.510476149936127
1728066647235620900,2.450620849609375,0.433402419090271,0.37212613224983215,-0.5877330303192139,0.8298255801200867,0.4588145613670349,0.3176136016845703,-0.2038034200668335,0.016145765781402588,0.07427772879600525,0.2880531353306808,-0.8116233052979347,0.008626062210740476,0.5081520335194412
1728066647245652000,2.46065185546875,0.20353859663009644,0.36143994331359863,-0.5686618685722351,0.8259539604187012,0.4646567106246948,0.3192085325717926,-0.20656925439834595,-0.03745633363723755,0.16631081700325012,0.29081277730306865,-0.8121246110799203,0.007607618215714593,0.5057901063013778
1728066647255682000,2.47068212890625,0.07395749539136887,0.24855360388755798,-0.5233985185623169,0.8223888278007507,0.4695732593536377,0.32121285796165466,-0.18774521350860596,-0.10464394092559814,0.17218002676963806,0.2926896894113418,-0.812753719973117,0.0061503299821090585,0.5037125652863269
1728066647265713000,2.480712890625,0.1291126310825348,0.17475101351737976,-0.5099256038665771,0.8192823529243469,0.47412946820259094,0.32245543599128723,-0.15247339010238647,-0.15273359417915344,0.0728081464767456,0.29436252298056464,-0.8131462526055676,0.004570722416187501,0.502118422060157
1728066647275744000,2.490743896484375,0.21361924707889557,0.2112800031900406,-0.5094760060310364,0.8162201642990112,0.47890499234199524,0.32316356897354126,-0.13615119457244873,-0.16260546445846558,-0.09167250990867615,0.29637217512403274,-0.8133704336028903,0.003211997644180682,0.500581418401738
1728066647285774000,2.500774169921875,0.25382816791534424,0.2708336114883423,-0.4879763424396515,0.8130211234092712,0.4837262034416199,0.324045330286026,-0.1500268578529358,-0.11254090070724487,-0.11722782254219055,0.2985486282643496,-0.8136450370031667,0.00210387852729074,0.4988446171329439
1728066647295805000,2.510804931640625,0.3986138701438904,0.27690428495407104,-0.460105299949646,0.8098071217536926,0.48860445618629456,0.3247735798358917,-0.15705150365829468,-0.03727996349334717,-0.05905711650848389,0.3010288562950898,-0.8138702748038587,0.0014008750735742255,0.49698567297009827
1728066647305835000,2.5208349609375,0.6888704895973206,0.26229843497276306,-0.454872190952301,0.8066989183425903,0.4940378665924072,0.32428884506225586,-0.15020489692687988,0.0054280757904052734,-0.0472351610660553,0.3043338149714979,-0.8137215950271475,0.0012601952363255778,0.49521351723101703
1728066647315866000,2.5308662109375,1.0408364534378052,0.29180413484573364,-0.45370277762413025,0.8035250306129456,0.5005383491516113,0.32219359278678894,-0.1253482699394226,0.005992472171783447,-0.09799635410308838,0.3090144125434237,-0.8130761460525556,0.001992569645431321,0.4933692767825083
1728066647325895700,2.540895751953125,1.2948051691055298,0.36753350496292114,-0.4186728894710541,0.8002492189407349,0.5078524351119995,0.31888437271118164,-0.10011494159698486,0.013021647930145264,-0.1217866837978363,0.31488805550529975,-0.812052380844851,0.003621578163926729,0.4913281908147554
1728066647335927000,2.550927001953125,1.3710732460021973,0.44298937916755676,-0.3894958198070526,0.7968826293945312,0.5153644680976868,0.3152417242527008,-0.0876694917678833,0.04652518033981323,-0.08700084686279297,0.32134760497564174,-0.8109165160978474,0.00593842568887254,0.48899361806800923
1728066647345958000,2.5609580078125,1.2579305171966553,0.5058671236038208,-0.380344420671463,0.7933738231658936,0.5225951671600342,0.3121727705001831,-0.09032529592514038,0.07773131132125854,-0.021935492753982544,0.32765005164196404,-0.8099481109644343,0.008392619902247097,0.48637323022599016
1728066647355987700,2.57098779296875,1.0563316345214844,0.5437913537025452,-0.37426096200942993,0.7897393703460693,0.5291954278945923,0.31026434898376465,-0.10280400514602661,0.07390820980072021,0.0790024995803833,0.3332396359155181,-0.8093335219294783,0.010555906259709594,0.48354852173630275
1728066647366019000,2.58101904296875,0.8522993326187134,0.43703243136405945,-0.32886871695518494,0.7862977981567383,0.534926176071167,0.30917635560035706,-0.0955323576927185,0.005616545677185059,0.11764246225357056,0.337878918371941,-0.8089740775079983,0.012211231717163814,0.480884360157515
1728066647376049000,2.591048828125,0.9049956798553467,0.29836443066596985,-0.2860059142112732,0.7835198044776917,0.5400165319442749,0.30737414956092834,-0.04179006814956665,-0.14957457780838013,0.05749395489692688,0.34211921168615933,-0.8083931321438265,0.013697383001073711,0.47881870924994036
1728066647386079700,2.601079833984375,0.643826425075531,0.22038151323795319,-0.377362996339798,0.7809950113296509,0.5450477004051208,0.3049090504646301,0.02971959114074707,-0.32704538106918335,-0.0792316198348999,0.34617791342663573,-0.8076113177756927,0.014781133241324336,0.4771857406406894
1728066647396109800,2.61110986328125,-0.0640125572681427,0.2767339050769806,-0.5299810171127319,0.7776941657066345,0.5495540499687195,0.3052576780319214,0.04567009210586548,-0.3400355577468872,-0.01915547251701355,0.3484626992563559,-0.8077319519736759,0.014068799912300865,0.47533666982517764
1728066647406141000,2.621140869140625,-0.40652674436569214,0.13707078993320465,-0.5331507325172424,0.774032473564148,0.552894651889801,0.30851420760154724,0.020721435546875,-0.18883520364761353,0.17566239833831787,0.34858766426074433,-0.8087787288294472,0.011578939352835707,0.4735287387448232
1728066647416171800,2.631171875,-0.09575876593589783,-0.009481783956289291,-0.4572426676750183,0.7710590958595276,0.5559432506561279,0.31047487258911133,0.03899925947189331,-0.03374171257019043,0.14582380652427673,0.3486680712018207,-0.809417475279488,0.008988363153175232,0.472433097720316
1728066647426201900,2.641201904296875,0.24611760675907135,-0.053239114582538605,-0.3279983699321747,0.768992006778717,0.5592056512832642,0.3097420930862427,0.03127032518386841,0.061369359493255615,-0.04431557655334473,0.34991163911417067,-0.8092061033682145,0.0075181286320374395,0.47190119214867127
1728066647436232700,2.651232666015625,0.5811011791229248,0.048290595412254333,-0.24860501289367676,0.7674333453178406,0.5626521110534668,0.3073570430278778,-0.016426503658294678,0.1013951301574707,-0.07508781552314758,0.3522425564910693,-0.808470720907074,0.007321858936874049,0.4714303260713511
1728066647446262800,2.6612626953125,0.9190912246704102,0.19123150408267975,-0.23790869116783142,0.7656830549240112,0.566829264163971,0.3040291965007782,-0.06512171030044556,0.06361812353134155,-0.10076701641082764,0.3558907449868294,-0.8074307208770843,0.008380169130770587,0.47045412285966887
1728066647456294000,2.6712939453125,0.9933407306671143,0.18284675478935242,-0.25474414229393005,0.7637026906013489,0.5716570019721985,0.29994329810142517,-0.09858763217926025,-0.01750361919403076,-0.08778515458106995,0.36038803242155093,-0.8061460435841696,0.01001039734737738,0.46920000174547
1728066647466324000,2.681323974609375,0.9535046219825745,0.15015912055969238,-0.2673936188220978,0.7616900205612183,0.576570987701416,0.2956249713897705,-0.08358943462371826,-0.08358997106552124,0.011915832757949829,0.3649354554071423,-0.8047849958126783,0.01155823012267917,0.46798460489311283
1728066647476354800,2.691354736328125,0.901046633720398,0.021043209359049797,-0.2541036605834961,0.7598922848701477,0.5813173651695251,0.2909184992313385,-0.04523181915283203,-0.12645286321640015,0.07230162620544434,0.3692997236113027,-0.8033020581589662,0.012847074797274849,0.46707428121800576
1728066647486386000,2.701385986328125,0.8492436408996582,-0.1014677882194519,-0.1913294643163681,0.7586885690689087,0.5855672955513,0.28548577427864075,-0.006811976432800293,-0.13421237468719482,0.1087706983089447,0.37334055882154116,-0.8015921436899568,0.013889504488063075,0.46676951868125455
1728066647496415700,2.711415771484375,0.905748188495636,-0.17989905178546906,-0.1164001077413559,0.7581881284713745,0.5891891121864319,0.27929624915122986,0.03420054912567139,-0.10681307315826416,0.06604048609733582,0.37719940303806504,-0.7996384128036884,0.015051034528661588,0.466982090897363
1728066647506446800,2.72144677734375,0.9668826460838318,-0.223666250705719,-0.0803675428032875,0.7581678628921509,0.5925358533859253,0.2721812427043915,0.02746129035949707,-0.08847701549530029,0.007161378860473633,0.3812123312714296,-0.7973826471339623,0.016478361239778062,0.46753233343293854
1728066647516477000,2.731476806640625,0.7772032618522644,-0.28006497025489807,-0.08762412518262863,0.7584049105644226,0.5955190062522888,0.26491305232048035,-0.023267090320587158,-0.09559530019760132,0.007105231285095215,0.3849513115831352,-0.7950736353161322,0.017732561193982484,0.46835445481132404
1728066647526507800,2.7415078125,0.27367329597473145,-0.20085297524929047,-0.16564834117889404,0.7582705616950989,0.5979470610618591,0.2597784698009491,-0.0706181526184082,-0.12568747997283936,0.035662055015563965,0.38746711770254283,-0.7934504976480008,0.01804284198672007,0.46902016422305726
1728066647536537900,2.751537841796875,-0.2724156975746155,-0.18636052310466766,-0.2503696382045746,0.7575048208236694,0.5994899868965149,0.2584526836872101,-0.12638628482818604,-0.18689239025115967,0.14651545882225037,0.3879181943068712,-0.7930594189884068,0.016825628380447353,0.46935380457700393
1728066647546569000,2.76156884765625,-0.5687682628631592,-0.2789916396141052,-0.3433392643928528,0.7562713623046875,0.6006539463996887,0.2593608498573303,-0.1556246280670166,-0.2496408224105835,0.21308168768882751,0.3869210245834004,-0.793397544007487,0.014169295939887692,0.46969302027395515
1728066647556599800,2.771599853515625,-0.68025141954422,-0.2977890372276306,-0.35326752066612244,0.7549343109130859,0.6016542315483093,0.2609337270259857,-0.1386929154396057,-0.21308904886245728,0.09972289204597473,0.3852206728813176,-0.7939477307489716,0.010670777285745177,0.47025331665219544
1728066647566630000,2.7816298828125,-0.4448147118091583,-0.26160120964050293,-0.30672159790992737,0.753649890422821,0.6026262640953064,0.26239925622940063,-0.1143983006477356,-0.1184801459312439,0.01183164119720459,0.3836841012926827,-0.7944458744229819,0.007441885367235496,0.47073012609957127
1728066647576661000,2.791660888671875,-0.04098154604434967,-0.24706710875034332,-0.2437703013420105,0.7526435256004333,0.6040881872177124,0.26192545890808105,-0.1061134934425354,-0.0345538854598999,-0.027977824211120605,0.383389270489604,-0.7943140819500626,0.005278626527372595,0.47122165569192526
1728066647586690800,2.80169091796875,0.2657903730869293,-0.21801123023033142,-0.17765919864177704,0.7519771456718445,0.6059690713882446,0.25948357582092285,-0.09941989183425903,0.07370322942733765,-0.0751270055770874,0.38434553069061,-0.7935512396721903,0.004267910361431951,0.47173793101046135
1728066647596722000,2.811721923828125,0.6112526655197144,-0.24578677117824554,-0.13195616006851196,0.7516346573829651,0.6082473397254944,0.25510871410369873,-0.10429584980010986,0.1571946144104004,-0.054074257612228394,0.3864463689019859,-0.792171874804686,0.004251738123993698,0.47233975289423796
1728066647606752800,2.821752685546875,0.9114508628845215,-0.30515289306640625,-0.1094772219657898,0.7515903115272522,0.6110965013504028,0.24834011495113373,-0.11432242393493652,0.1345089077949524,-0.025516048073768616,0.3897812572866048,-0.7900281952027007,0.005050771553991727,0.4731811565032099
1728066647616782800,2.831782958984375,1.0428744554519653,-0.3662204444408417,-0.08697298169136047,0.7518185377120972,0.6142461895942688,0.23972944915294647,-0.103457510471344,0.013286709785461426,-0.040846481919288635,0.39393747440734084,-0.7872891394795253,0.006366597979918644,0.474287286983711
1728066647626814000,2.84181396484375,0.817176103591919,-0.37047111988067627,-0.10013698786497116,0.7521295547485352,0.6172084212303162,0.23098553717136383,-0.09270602464675903,-0.13582420349121094,-0.031782180070877075,0.39794117443996074,-0.7844973592955508,0.00752724482150044,0.4755521248435298
1728066647636844000,2.851843994140625,0.33910608291625977,-0.24676810204982758,-0.15063689649105072,0.7520742416381836,0.619475781917572,0.22502018511295319,-0.1014242172241211,-0.22973573207855225,0.019532352685928345,0.40053711576517226,-0.7825913259033941,0.007804654473790254,0.47650803488173915
1728066647646875000,2.861875,-0.08183742314577103,-0.11799308657646179,-0.2142299860715866,0.7513512372970581,0.6211111545562744,0.22291681170463562,-0.13099008798599243,-0.25486981868743896,0.1221606582403183,0.4014358412271759,-0.7819267303785299,0.0069996617359568405,0.47685502810151736
1728066647656905000,2.871905029296875,-0.37011197209358215,-0.0653596967458725,-0.24615730345249176,0.7500723004341125,0.6223587989807129,0.22374260425567627,-0.13668441772460938,-0.2359604835510254,0.17797541618347168,0.4011140061929714,-0.7822034029540206,0.005398326654497081,0.47669291456786367
1728066647666935800,2.881935791015625,-0.7196627855300903,-0.23253244161605835,-0.2186841368675232,0.7489004135131836,0.6229185461997986,0.22609801590442657,-0.09780806303024292,-0.15984487533569336,0.2018650621175766,0.3995490336450487,-0.7829691485519811,0.0028845987542128445,0.4767718554037063
1728066647676967000,2.891966796875,-0.8562600612640381,-0.4662398099899292,-0.15524257719516754,0.7485478520393372,0.6224473714828491,0.22854919731616974,-0.014112114906311035,-0.061854779720306396,0.22121864557266235,0.39681083056307964,-0.7837565845397164,-0.0004616819553649515,0.47777221337880005
1728066647686997000,2.9019970703125,-0.8196983337402344,-0.7366049289703369,-0.14967229962348938,0.7490027546882629,0.6216481328010559,0.22923411428928375,0.051366329193115234,-0.024617493152618408,0.1468491554260254,0.39386950293563094,-0.7839635831028424,-0.00426122454896231,0.47984339939479453
1728066647697027800,2.91202783203125,-0.8697349429130554,-0.9164808392524719,-0.18042808771133423,0.7498683929443359,0.6209841966629028,0.2282019555568695,0.07355684041976929,-0.030057013034820557,0.04288557171821594,0.3909529317825894,-0.7835989842320648,-0.00857943935747304,0.4827575710072016
1728066647707058000,2.922057861328125,-0.9507283568382263,-0.9746173620223999,-0.15309900045394897,0.7509941458702087,0.6201772093772888,0.2266891598701477,0.07301098108291626,-0.01667684316635132,0.013713032007217407,0.38773605095717933,-0.7830500230235495,-0.013313263860226809,0.4861236021396179
1728066647717089000,2.932089111328125,-1.045714259147644,-0.9728163480758667,-0.08159339427947998,0.7524575591087341,0.6188134551048279,0.2255602329969406,0.05030721426010132,-0.002526223659515381,0.019709467887878418,0.3840417809864172,-0.7825936425145937,-0.018091584217627944,0.4896240918840429
1728066647727118800,2.942118896484375,-1.0697541236877441,-0.9606550335884094,-0.006090379320085049,0.7544090747833252,0.6166900396347046,0.22485601902008057,0.01705998182296753,0.00591433048248291,0.03930404782295227,0.37984151168029023,-0.7822474275717309,-0.022737075334200347,0.4932467828914228
1728066647737150000,2.95214990234375,-0.963087260723114,-0.9813564419746399,0.0026391963474452496,0.7565947771072388,0.6143320202827454,0.22396479547023773,-0.009860336780548096,0.0009480714797973633,0.03856264054775238,0.3756613254864874,-0.7818235350525067,-0.02709904329326933,0.4968863562280327
1728066647747181000,2.96218115234375,-0.7847089767456055,-1.0622594356536865,-0.034384336322546005,0.7587886452674866,0.6125284433364868,0.22146883606910706,-0.0378262996673584,0.006398499011993408,0.03577898442745209,0.3721431841209639,-0.7808683179766706,-0.0312903267376341,0.500774321239524
1728066647757211000,2.9722109375,-0.5042056441307068,-1.0198737382888794,-0.01828925497829914,0.7608895897865295,0.6113038063049316,0.2176099270582199,-0.04067504405975342,0.04984414577484131,-0.02156512439250946,0.36946844710058147,-0.7794743871143899,-0.03499486162137787,0.5046661067683413
1728066647767242000,2.982241943359375,-0.1534867137670517,-1.0089843273162842,0.023881101980805397,0.7630971670150757,0.6105945110321045,0.2117951661348343,-0.043507933616638184,0.07331979274749756,-0.055499523878097534,0.3680197403308666,-0.7774812162996524,-0.03769008597837515,0.5085901521467684
1728066647777272000,2.99227197265625,-0.0564563050866127,-1.0033732652664185,0.08837460726499557,0.7655044198036194,0.6100150346755981,0.2046559453010559,-0.05018794536590576,0.051651716232299805,-0.07874050736427307,0.3673763945749329,-0.7750909034809108,-0.039522915821965945,0.5125489255988203
1728066647787303000,3.002302978515625,-0.1663481891155243,-1.0186326503753662,0.15254667401313782,0.768307089805603,0.6088252663612366,0.1975751370191574,-0.05549287796020508,0.027985036373138428,-0.04057753086090088,0.36640361793782095,-0.7727161420184181,-0.04119867825582682,0.5166824588196096
1728066647797333000,3.0123330078125,-0.11951076984405518,-0.8966025114059448,0.14965128898620605,0.7711373567581177,0.6073347330093384,0.19102777540683746,-0.06239724159240723,-0.001209855079650879,-0.04280400276184082,0.3652040406825236,-0.7705088121024717,-0.042779137411464885,0.5206842509697336
1728066647807364000,3.022364013671875,-0.06275960803031921,-0.7126542925834656,0.12146785110235214,0.7734695672988892,0.6061409711837769,0.18530482053756714,-0.10441762208938599,-0.02957230806350708,-0.11879181861877441,0.36436015233154134,-0.7685837644664667,-0.0439477572889074,0.5240126402738112
1728066647817395000,3.03239501953125,-0.16969184577465057,-0.6036543250083923,0.06832446157932281,0.7752470374107361,0.6051985025405884,0.1809048056602478,-0.15215450525283813,-0.009144425392150879,-0.07116365432739258,0.3635610818985269,-0.7670884287699685,-0.04503047873480471,0.5266600707085121
1728066647827425000,3.042425048828125,-0.2917570471763611,-0.6621668934822083,0.023508526384830475,0.7766187191009521,0.6044309735298157,0.17755699157714844,-0.16023993492126465,0.0395662784576416,0.050287142395973206,0.36238950467384917,-0.7659019008539699,-0.04661302085226958,0.5290513592608865
1728066647837456000,3.052455810546875,-0.2921103835105896,-0.861952543258667,0.008280305191874504,0.7780455350875854,0.6037915945053101,0.17343716323375702,-0.12472546100616455,0.052671968936920166,0.09418663382530212,0.3610155014162965,-0.7644231993385276,-0.04874171982515159,0.5319295594055539
1728066647847486000,3.06248583984375,-0.05608293041586876,-0.8641648292541504,0.004463461693376303,0.7795978784561157,0.6034143567085266,0.1676848977804184,-0.06742459535598755,0.037363290786743164,-0.02496945858001709,0.3600210082518609,-0.7624010832264573,-0.050862948997164786,0.5352965679297131
1728066647857517000,3.07251708984375,0.34702983498573303,-0.6831142902374268,0.05426457151770592,0.7810162901878357,0.6034575700759888,0.16078704595565796,-0.06650835275650024,0.041653573513031006,-0.16020727157592773,0.36032582148929987,-0.760076418910216,-0.051743247181076334,0.5383045085555306
1728066647867547000,3.082546875,0.7055206298828125,-0.5937907695770264,0.08146689832210541,0.7824402451515198,0.6037259101867676,0.15265120565891266,-0.11778271198272705,0.0769382119178772,-0.13696525990962982,0.3619632889555921,-0.7574323376193486,-0.05120404151960775,0.5409778542182904
1728066647877577700,3.09257763671875,1.069435477256775,-0.5165666937828064,0.08245999366044998,0.7837548851966858,0.6044127345085144,0.14287544786930084,-0.12756603956222534,0.0994904637336731,-0.0959547758102417,0.3649871907810813,-0.7543137475051972,-0.04948224003867263,0.5434579854445496
1728066647887609000,3.102609130859375,1.2087260484695435,-0.4092370271682739,0.06491401791572571,0.7848401069641113,0.6054392457008362,0.13217182457447052,-0.13342714309692383,0.10658174753189087,-0.03805564343929291,0.3690403561556662,-0.7509226820995873,-0.046915242391055996,0.5456402921043246
1728066647897639000,3.112638916015625,1.2653253078460693,-0.3171067535877228,0.0987715870141983,0.7857611775398254,0.6064018607139587,0.12188497930765152,-0.12601709365844727,0.11956554651260376,0.059389352798461914,0.3733799101761924,-0.7476727993317496,-0.04390756127959434,0.5473982732566731
1728066647907669800,3.122669677734375,1.3878365755081177,-0.34640100598335266,0.19868327677249908,0.7870198488235474,0.6068140268325806,0.11124924570322037,-0.07904267311096191,0.08985650539398193,0.08938848972320557,0.3778576986175821,-0.7443089463471222,-0.040358606096688544,0.5491801891148541
1728066647917699800,3.132699951171875,1.393195390701294,-0.4022717773914337,0.289755642414093,0.788938045501709,0.606343686580658,0.09961863607168198,0.01089698076248169,-0.018315792083740234,-0.006540067493915558,0.38241412567652483,-0.7406075089852501,-0.03619166566704983,0.5513166078285348
1728066647927730700,3.142730712890625,0.8121923804283142,-0.3628324866294861,0.24037879705429077,0.790963351726532,0.605253279209137,0.08969420194625854,0.09940201044082642,-0.13805967569351196,-0.11033941060304642,0.38576674228272306,-0.737408067467246,-0.032809186301824,0.5534769348089332
1728066647937760800,3.1527607421875,0.17039340734481812,-0.2800629138946533,0.20538778603076935,0.7925485372543335,0.6039589047431946,0.08426450192928314,0.13037925958633423,-0.1529548168182373,0.00298512727022171,0.3868534235553337,-0.7356290327530997,-0.031339719697164384,0.5551686202241554
1728066647947792000,3.1627919921875,-0.08818886429071426,-0.35993456840515137,0.15704475343227386,0.7939584255218506,0.6024852395057678,0.08149547874927521,0.15361237525939941,-0.13034772872924805,0.06327987462282181,0.38637486307898106,-0.73469293769811,-0.031209430023882663,0.5567465455347665
1728066647957822700,3.17282275390625,-0.27894166111946106,-0.3369450867176056,0.055346615612506866,0.7948646545410156,0.6015108227729797,0.07984264194965363,0.15255343914031982,-0.07769185304641724,0.05080306529998779,0.38536270274352386,-0.7340962556846528,-0.032000142859361196,0.5581883844279234
1728066647967852800,3.182852783203125,-0.45681044459342957,-0.33946818113327026,-0.011280081234872341,0.7952532768249512,0.6010605692863464,0.07936085015535355,0.1026957631111145,0.05886673927307129,0.09877025336027145,0.3838928698057407,-0.7338598066959839,-0.03361856238218968,0.5594155007930792
1728066647977884000,3.1928837890625,-0.3800122141838074,-0.31298649311065674,0.0034437370486557484,0.7954339385032654,0.6008138656616211,0.07941734045743942,0.05969887971878052,0.15020841360092163,0.055485598742961884,0.3821587604233682,-0.7337831094146382,-0.0356513494437323,0.5605763354556687
1728066647987913700,3.202913818359375,-0.059866949915885925,-0.21362555027008057,0.013998378068208694,0.7957583665847778,0.6005023717880249,0.07851983606815338,0.04120135307312012,0.08406800031661987,-0.16398441791534424,0.3813415724007119,-0.733429479168635,-0.03662127246897542,0.561532355239651
1728066647997944800,3.21294482421875,-0.24749597907066345,-0.11474423110485077,-0.11921586841344833,0.7955997586250305,0.6007745265960693,0.07804412394762039,0.02362924814224243,-0.029882192611694336,-0.25579380989074707,0.38093328016509803,-0.733222661459879,-0.03750455790462906,0.5620210972558005
1728066648007975000,3.222974853515625,-0.5097134709358215,-0.11601909250020981,-0.31978440284729004,0.7944123148918152,0.6021589636802673,0.07945911586284637,-0.016534507274627686,-0.04509103298187256,-0.09949397295713425,0.38013311901012276,-0.7335985084960408,-0.039532089176706,0.5619335359571718
1728066648018005800,3.233005859375,-0.7599763870239258,-0.0619099922478199,-0.43173888325691223,0.7921627759933472,0.6046935319900513,0.08260425180196762,-0.03316032886505127,-0.050372302532196045,-0.025231249630451202,0.37882229949336493,-0.7344779453828952,-0.04294502806464077,0.5614190460760154
1728066648028036900,3.243036865234375,-0.8602457642555237,0.02846943400800228,-0.4131060838699341,0.7895799279212952,0.6073904037475586,0.08740831166505814,-0.03210324048995972,-0.04542452096939087,-0.028234846889972687,0.37700916185255057,-0.7358725298179352,-0.0468591043576896,0.5604996114504867
1728066648038067000,3.25306689453125,-0.8760659694671631,0.1263597160577774,-0.36207619309425354,0.7871243357658386,0.6096802949905396,0.09340778738260269,-0.015792667865753174,-0.02165234088897705,-0.04738736152648926,0.3748882130548734,-0.7376605969824098,-0.050603741298855996,0.5592448825227749
1728066648048097800,3.263097900390625,-0.7717350125312805,0.06956701725721359,-0.32369017601013184,0.7849095463752747,0.6115894913673401,0.09937205910682678,-0.023923516273498535,0.029096484184265137,-0.01496054232120514,0.3728020466041525,-0.7394390118840077,-0.05399980526908937,0.5579716765029255
1728066648058128000,3.2731279296875,-0.416730672121048,0.029039829969406128,-0.28300800919532776,0.7829926609992981,0.6133679747581482,0.10345173627138138,-0.025210678577423096,0.06477844715118408,-0.05825529992580414,0.3713843695961417,-0.7406088752354182,-0.05678345168471835,0.5570886737569978
1728066648068159000,3.283158935546875,-0.09368976205587387,-0.04362079128623009,-0.21667984127998352,0.7814125418663025,0.6151190996170044,0.10498984903097153,-0.02927631139755249,0.04126828908920288,-0.17710290849208832,0.37132355126026473,-0.7410154156927812,-0.05823297121573222,0.5564385697159
1728066648078188800,3.293188720703125,-0.06687858700752258,-0.01304653100669384,-0.22474761307239532,0.78017657995224,0.6167073845863342,0.10486201196908951,-0.05028790235519409,-0.006828963756561279,-0.13689032196998596,0.37163192641462783,-0.7408833665973834,-0.059353546659172834,0.5562899354068981
1728066648088220000,3.303219970703125,-0.15452294051647186,0.07564765214920044,-0.21259987354278564,0.7787336111068726,0.6183530688285828,0.10589303076267242,-0.03807210922241211,-0.03908360004425049,-0.24070453643798828,0.37188490743828545,-0.7411476454053983,-0.06038777110135486,0.5556572962744365
1728066648098250800,3.313250732421875,-0.31955045461654663,0.054549556225538254,-0.14028865098953247,0.7775421738624573,0.6195032000541687,0.1079069972038269,-0.04351818561553955,-0.08980953693389893,-0.17954705655574799,0.37153253654033025,-0.7417287833666824,-0.06157847984906302,0.5549865566760409
1728066648108280800,3.32328076171875,-0.3806111514568329,0.026213523000478745,-0.08805955201387405,0.776814877986908,0.6199723482131958,0.11042197048664093,0.000284731388092041,-0.13529211282730103,-0.14780603349208832,0.37050399168203085,-0.7424620877199984,-0.06293674800340408,0.554541107015204
1728066648118312000,3.33331201171875,-0.2754686772823334,0.061509568244218826,-0.06340932846069336,0.7763053774833679,0.6201943159103394,0.1127338632941246,0.006455123424530029,-0.15602189302444458,-0.15425312519073486,0.369504029420346,-0.7431437461118274,-0.06406483259319963,0.5541658671005179
1728066648128342000,3.343342041015625,-0.29798623919487,0.14943116903305054,-0.000649541150778532,0.7759776711463928,0.6201265454292297,0.11533346027135849,-0.03511768579483032,-0.11129164695739746,-0.12384794652462006,0.3685941587679686,-0.7439586086580631,-0.06474810566793594,0.5535988083449106
1728066648138372900,3.353372802734375,-0.4231889247894287,0.208393394947052,0.01656060479581356,0.7758415937423706,0.6196149587631226,0.11894110590219498,-0.062325477600097656,-0.008439362049102783,-0.06638991832733154,0.3672904110220675,-0.7451165169937218,-0.06535999143778198,0.5528355594308458
1728066648148404000,3.363404052734375,-0.44850093126296997,0.2331879436969757,-0.0393439419567585,0.7755289077758789,0.6191156506538391,0.12349311262369156,-0.09732168912887573,0.06855219602584839,-0.007663726806640625,0.3656892561220216,-0.7465658031675158,-0.0662273195182021,0.5518375971400115
1728066648158433800,3.373433837890625,-0.2203984409570694,0.23236119747161865,-0.13279931247234344,0.7747183442115784,0.6193329095840454,0.1274276077747345,-0.11277705430984497,0.06954026222229004,-0.029603630304336548,0.36471398029058594,-0.7478078796811145,-0.06706101970084286,0.5506992918841962
1728066648168465000,3.38346484375,-0.08773785829544067,0.2434585988521576,-0.20429426431655884,0.7733246684074402,0.6205157041549683,0.13011129200458527,-0.09653645753860474,0.016950666904449463,-0.12336696684360504,0.3647634947981363,-0.7486503048625508,-0.06766362289006059,0.549446833817546
1728066648178495000,3.393494873046875,-0.17149147391319275,0.296284943819046,-0.18237139284610748,0.7717309594154358,0.6218944191932678,0.13296005129814148,-0.05063128471374512,0.0031971335411071777,-0.16108202934265137,0.36492760213548125,-0.7495455743829285,-0.06827484219682456,0.5480398673259415
1728066648188525800,3.40352587890625,-0.11558347940444946,0.34182316064834595,-0.11607706546783447,0.7703569531440735,0.6228400468826294,0.13645608723163605,-0.0012683868408203125,0.023384928703308105,-0.14233076572418213,0.3648499520618123,-0.7506731443480555,-0.06868680462698208,0.5464946611714446
1728066648198556000,3.413555908203125,0.09020364284515381,0.35545915365219116,-0.060511812567710876,0.76932692527771,0.6234943866729736,0.1392502635717392,0.02388584613800049,-0.000020205974578857422,-0.15894949436187744,0.3651582653755167,-0.7516283942312162,-0.06840969578449964,0.5450084702350053
1728066648208586800,3.423586669921875,0.20606020092964172,0.36243557929992676,-0.021797437220811844,0.7685805559158325,0.6240190863609314,0.14100979268550873,0.02951490879058838,-0.05027341842651367,-0.17645598948001862,0.36599005844527605,-0.7522989190378162,-0.0674628296435403,0.5436416353197828
1728066648218617600,3.43361767578125,0.18561379611492157,0.4146275818347931,0.008877651765942574,0.7679902911186218,0.6243533492088318,0.14273567497730255,0.023193001747131348,-0.06815534830093384,-0.12700392305850983,0.3668924950594889,-0.7529815259896383,-0.06623184463850716,0.5422378984525511
1728066648228647700,3.443647705078125,0.11251480877399445,0.46655043959617615,0.028876660391688347,0.7674727439880371,0.6244174242019653,0.14521820843219757,0.01463162899017334,-0.05067169666290283,-0.07777440547943115,0.36753783053167577,-0.7539167901916611,-0.06495056293494689,0.5406540499853506
1728066648238678800,3.4536787109375,0.1308283656835556,0.5066011548042297,0.0264169629663229,0.7669312953948975,0.6243698000907898,0.1482505351305008,0.026723802089691162,-0.02656102180480957,-0.07134629786014557,0.36805057938438407,-0.7550334404225456,-0.06363778981286494,0.5389000877241121
1728066648248708600,3.46370849609375,0.24281668663024902,0.5424174666404724,0.000036755576729774475,0.7662254571914673,0.624545156955719,0.15113471448421478,0.047449350357055664,-0.028643667697906494,-0.10104024410247803,0.3688894062134256,-0.7561152515627262,-0.06210539515777998,0.5369852690273137
1728066648258739700,3.47373974609375,0.2299489676952362,0.5412981510162354,-0.018963834270834923,0.7653288841247559,0.625002920627594,0.1537620574235916,0.06770926713943481,-0.03090202808380127,-0.07148672640323639,0.3700207741207673,-0.7571154333751045,-0.060475190929931415,0.5349798567075345
1728066648268769800,3.483769775390625,0.18966412544250488,0.41832032799720764,-0.019684750586748123,0.7644617557525635,0.6254541277885437,0.1562211513519287,0.08940458297729492,-0.012630701065063477,0.031110867857933044,0.37099327459833137,-0.7580367619644528,-0.05908333051799366,0.5331540991979621
1728066648278800600,3.493800537109375,0.16791309416294098,0.3427414000034332,-0.022240053862333298,0.7637404799461365,0.6259114742279053,0.15790867805480957,0.1172255277633667,-0.009517431259155273,0.08983288705348969,0.3718426784932156,-0.7586759852119422,-0.05800940083607573,0.5317693354117932
1728066648288831700,3.503831787109375,0.11862249672412872,0.3162935674190521,0.019887691363692284,0.7632040977478027,0.6261439919471741,0.1595708280801773,0.13398194313049316,-0.026458382606506348,0.04637692868709564,0.37249081941618417,-0.7593000404293497,-0.05699876348466111,0.5305327902609975
1728066648298861800,3.51386181640625,-0.04797593504190445,0.31800928711891174,0.02257641963660717,0.762851893901825,0.6260326504707336,0.16167870163917542,0.128673255443573,-0.06814080476760864,0.05897855758666992,0.3726833954715483,-0.7600525450354182,-0.05620926400942437,0.529403125571034
1728066648308892700,3.523892578125,-0.24827679991722107,0.2827322483062744,-0.013331780210137367,0.762389600276947,0.6257346868515015,0.16497857868671417,0.11006194353103638,-0.11177295446395874,0.06596313416957855,0.37218550846112974,-0.7611528217093434,-0.05599706152630144,0.5281936733736318
1728066648318922800,3.5339228515625,-0.34098729491233826,0.29631611704826355,-0.05270102620124817,0.7617279887199402,0.6254644393920898,0.16901089251041412,0.08075547218322754,-0.14716237783432007,0.07845605909824371,0.37117185078735865,-0.7624447602665282,-0.05642191202761008,0.5269971730118435
1728066648328953900,3.543953857421875,-0.3748709559440613,0.39629411697387695,-0.07150134444236755,0.7607041001319885,0.6253811717033386,0.17386043071746826,0.045158207416534424,-0.14488190412521362,0.03349113464355469,0.37010295995824105,-0.7639925621603394,-0.05697002287967199,0.5254459955029822
1728066648338983700,3.553983642578125,-0.4550341069698334,0.49396398663520813,-0.044059332460165024,0.7595462799072266,0.6250771880149841,0.17991076409816742,0.010534167289733887,-0.10559165477752686,0.026449084281921387,0.3687666141430191,-0.7659321098096284,-0.05747506399125781,0.5235033653621673
1728066648349014800,3.564014892578125,-0.2811509966850281,0.5465518236160278,-0.025876333937048912,0.7583903670310974,0.624610960483551,0.1862926185131073,0.0027178525924682617,-0.0470505952835083,0.06822393834590912,0.36752516723136935,-0.76800041055062,-0.057634012886528904,0.5213241192919716
1728066648359045600,3.574045654296875,-0.09900176525115967,0.5534151792526245,0.00009987223893404007,0.7572434544563293,0.6243886351585388,0.1916264444589615,-0.007640421390533447,-0.009123802185058594,0.05376526713371277,0.36703665620542736,-0.7697718151980042,-0.0571364568605927,0.5191056502916933
1728066648369075700,3.58407568359375,0.03414137288928032,0.5895561575889587,0.02890009619295597,0.7562563419342041,0.6241692900657654,0.19618487358093262,-0.014450550079345703,0.036459922790527344,0.08541592955589294,0.3669906848521024,-0.77132476107625,-0.05612977498230972,0.516938270607469
1728066648379106800,3.59410693359375,0.2842409610748291,0.6533716917037964,-0.024153001606464386,0.7550815939903259,0.6244068741798401,0.19991984963417053,-0.025421559810638428,0.07786369323730469,0.12432935833930969,0.36773000189617183,-0.7726466389670139,-0.05456276774651941,0.5146015668877121
1728066648389137000,3.604136962890625,0.5107601284980774,0.7216213345527649,-0.1230367049574852,0.7532254457473755,0.6257864236831665,0.20259039103984833,-0.040472209453582764,0.06732887029647827,0.09838917851448059,0.3696882251947559,-0.773651822727293,-0.052517180691741334,0.5118939714064079
1728066648399167700,3.614167724609375,0.4859433174133301,0.6471374034881592,-0.17210251092910767,0.7508612275123596,0.6279811263084412,0.20456501841545105,-0.04109877347946167,0.05275923013687134,0.10553920269012451,0.3722562818799799,-0.7744239752155375,-0.050497672253424275,0.5090605408610542
1728066648409197800,3.62419775390625,0.4069496989250183,0.5899401307106018,-0.1546817123889923,0.7485504150390625,0.6301360130310059,0.206399604678154,-0.01376354694366455,0.030127108097076416,0.13594654202461243,0.3745350588094693,-0.7751194794943085,-0.04888349438616162,0.5064816637039603
1728066648419228700,3.634228759765625,0.41379067301750183,0.6353005766868591,-0.1258055865764618,0.7464041709899902,0.6320390105247498,0.2083440124988556,0.01771003007888794,-0.04637622833251953,0.06350646913051605,0.37664574800277917,-0.7758490652736898,-0.04722538671218205,0.5039502406183656
1728066648429259800,3.644259765625,0.20654509961605072,0.7144443988800049,-0.09858276695013046,0.7442756295204163,0.6335613131523132,0.21131333708763123,0.005831003189086914,-0.1292736530303955,0.029821127653121948,0.37835655989198275,-0.7769047842586748,-0.0455590197291274,0.5011880133302723
1728066648439289900,3.654289794921875,-0.08211392909288406,0.7851158380508423,-0.10097081959247589,0.7420503497123718,0.6344003081321716,0.21655814349651337,-0.020996391773223877,-0.14419645071029663,0.09739136695861816,0.3789882956568516,-0.7786596644281071,-0.04436441165297726,0.498085085164372
1728066648449320700,3.66432080078125,-0.27204790711402893,0.8023251891136169,-0.1446964591741562,0.7395039200782776,0.634916365146637,0.2236405313014984,-0.03903406858444214,-0.12446403503417969,0.14653754234313965,0.37876890451418416,-0.7809636826172431,-0.043772075885730406,0.4946855601030926
1728066648459350500,3.6743505859375,-0.4260869026184082,0.7553445100784302,-0.1928970068693161,0.7366429567337036,0.6353538036346436,0.23169441521167755,-0.04578620195388794,-0.09549784660339355,0.13904830813407898,0.37796298663753003,-0.7835344211936509,-0.0438294486668423,0.49121948816401617
1728066648469382000,3.6843818359375,-0.39705124497413635,0.7207191586494446,-0.22780385613441467,0.7335436344146729,0.6359051465988159,0.23987112939357758,-0.031227529048919678,-0.05115783214569092,0.11488032341003418,0.37696056223397506,-0.786111568778402,-0.04431895190071189,0.4878166630225316
1728066648479411700,3.69441162109375,-0.20711985230445862,0.7376663088798523,-0.22324691712856293,0.7303060293197632,0.6368516683578491,0.24712879955768585,-0.012364983558654785,0.001057267189025879,0.03587588667869568,0.37648047527181366,-0.7884002244492575,-0.04460367315025837,0.4844562646439373
1728066648489442600,3.704442626953125,-0.046076368540525436,0.7696878910064697,-0.14819452166557312,0.7272070050239563,0.6379204392433167,0.2534315586090088,0.00004208087921142578,0.042713165283203125,-0.04847559332847595,0.37662078070023985,-0.7904179761431701,-0.0442177121706852,0.48108319485014944
1728066648499474000,3.714473876953125,0.02902570553123951,0.8005775809288025,-0.07801863551139832,0.7244915962219238,0.63870769739151,0.2591603696346283,0.009318649768829346,0.048258185386657715,-0.06413796544075012,0.3770419803069254,-0.792285188383606,-0.04317829070694349,0.477764627658665
1728066648509503500,3.72450341796875,0.07810164242982864,0.8335325717926025,-0.07706815004348755,0.7218848466873169,0.6393479108810425,0.2647947072982788,0.005821883678436279,0.0078078508377075195,-0.06459954380989075,0.3775795203041344,-0.7941353091346123,-0.04179080414333486,0.47437982725216277
1728066648519534600,3.73453466796875,0.056768450886011124,0.8500664830207825,-0.11830320209264755,0.7189885377883911,0.6402754187583923,0.27037522196769714,-0.009989023208618164,-0.04750192165374756,-0.060566872358322144,0.3783038402037412,-0.7959619728197523,-0.040399868724504885,0.47084875978782975
1728066648529564700,3.744564697265625,0.0036999087315052748,0.8559691309928894,-0.14622564613819122,0.7158098220825195,0.6412816047668457,0.27635860443115234,-0.019078373908996582,-0.0727543830871582,-0.0631018877029419,0.37887117373267754,-0.7978960994703629,-0.039257110953339135,0.4672015503717809
1728066648539595500,3.754595458984375,0.03930910304188728,0.8935595154762268,-0.14565733075141907,0.712412416934967,0.6423900127410889,0.28249460458755493,0.00014227628707885742,-0.06309014558792114,-0.0946284830570221,0.37945792517356414,-0.7998700989996337,-0.03814618913687585,0.46342662062124057
1728066648549626600,3.764626708984375,0.11201605945825577,0.9082779884338379,-0.11070094257593155,0.7089845538139343,0.6435289978981018,0.2884635031223297,0.018890082836151123,-0.03249078989028931,-0.14239120483398438,0.3802171504844356,-0.8017968806217717,-0.03679009394065644,0.45956839998784743
1728066648559656700,3.77465673828125,0.2469622939825058,0.9005918502807617,-0.06174378842115402,0.7057729959487915,0.644660234451294,0.2937638461589813,0.037970662117004395,0.005181014537811279,-0.1454026997089386,0.38128869963531525,-0.8035276280243708,-0.03500385707742273,0.4557815652456724
1728066648569687600,3.7846875,0.40254896879196167,0.8737069964408875,-0.006722347345203161,0.7029015421867371,0.6458832621574402,0.29793304204940796,0.05622309446334839,0.020086586475372314,-0.16249608993530273,0.38284031384387895,-0.8049207046635984,-0.032698354064773,0.4521799568390852
1728066648579717600,3.794717529296875,0.493081659078598,0.8718134164810181,0.055340759456157684,0.7004534602165222,0.6470749974250793,0.30109575390815735,0.06163132190704346,0.02109217643737793,-0.1358431577682495,0.38475342526704637,-0.8060108310908265,-0.029906891537808337,0.44879484955904864
1728066648589748700,3.804748779296875,0.5483236312866211,0.9115993976593018,0.10934273898601532,0.69828861951828,0.6480866074562073,0.3039352297782898,0.05503767728805542,0.010238587856292725,-0.07220005989074707,0.3868147364360285,-0.8070043472231222,-0.026675740377109583,0.4454286867806382
1728066648599778600,3.814778564453125,0.46490147709846497,0.9148396253585815,0.14477983117103577,0.696306586265564,0.6487802267074585,0.3069874942302704,0.04260021448135376,-0.004370987415313721,0.020557552576065063,0.3887471695625194,-0.8080562529772264,-0.023212807772497256,0.44202021697923305
1728066648609809700,3.8248095703125,0.2661103308200836,0.8679514527320862,0.1663985699415207,0.69455486536026,0.6488296985626221,0.3108266592025757,0.041254281997680664,-0.011241257190704346,0.12714621424674988,0.3899911443592382,-0.8093284198671811,-0.02002079646827545,0.43874074286992487
1728066648619840500,3.834840576171875,0.10563619434833527,0.7767999768257141,0.1497546136379242,0.6930078268051147,0.648285448551178,0.3153820037841797,0.05967754125595093,-0.019089341163635254,0.15771660208702087,0.39045706535701535,-0.8107957917434739,-0.01735466886504282,0.43572026635276967
1728066648629870600,3.84487060546875,-0.0024106476921588182,0.6581937074661255,0.1056838184595108,0.6915585994720459,0.6475508809089661,0.3200385570526123,0.07720965147018433,-0.02541947364807129,0.13413920998573303,0.3904330488710958,-0.8122710918096869,-0.015327950661496304,0.4330621002313224
1728066648639901700,3.854901611328125,-0.036287255585193634,0.5794504880905151,0.0870283767580986,0.690180778503418,0.646821916103363,0.32445618510246277,0.08296668529510498,-0.006425797939300537,0.12496080994606018,0.3901738042514258,-0.8136570009833506,-0.013797938722626172,0.43073924009391634
1728066648649931800,3.864931884765625,-0.02844318188726902,0.5505706667900085,0.12049605697393417,0.6889984607696533,0.6460071802139282,0.32856619358062744,0.07581770420074463,0.03525197505950928,0.126725435256958,0.38985992119590424,-0.8149421846023746,-0.012342246419356426,0.4286328251939449
1728066648659962600,3.874962646484375,-0.02638595551252365,0.5334798693656921,0.16151753067970276,0.6881313323974609,0.6449168920516968,0.332501620054245,0.05341517925262451,0.0803181529045105,0.13962042331695557,0.38945625624072183,-0.8161708273062507,-0.010770108775345602,0.4267000721973186
1728066648669992700,3.88499267578125,0.07304848730564117,0.5352564454078674,0.1727914959192276,0.6874357461929321,0.6438108086585999,0.3360653221607208,0.019137799739837646,0.0990024209022522,0.14274021983146667,0.38920083542747874,-0.8172832404016638,-0.008987113867165114,0.42484129323818765
1728066648680023600,3.8950234375,0.13452404737472534,0.541241466999054,0.14767707884311676,0.6866657733917236,0.6430638432502747,0.3390559256076813,-0.026646971702575684,0.09294384717941284,0.11992835998535156,0.38932639036892813,-0.8182165782755554,-0.007042292807149772,0.4229621569218061
1728066648690054700,3.9050546875,0.1434994339942932,0.5595054030418396,0.11669892072677612,0.6856434345245361,0.6426234841346741,0.3419478237628937,-0.07246899604797363,0.08496153354644775,0.11261150240898132,0.389635911863737,-0.8191139692383886,-0.005120463981547591,0.42096320642661644
1728066648700084700,3.915084716796875,0.1211409792304039,0.544000506401062,0.08010522276163101,0.6843622922897339,0.6424136757850647,0.34489551186561584,-0.09755510091781616,0.06937837600708008,0.09951665997505188,0.38999825005850025,-0.8200223149760762,-0.0033412895859275165,0.41887181191848355
1728066648710115600,3.925115478515625,0.053485505282878876,0.48714038729667664,0.02745533175766468,0.6829050183296204,0.6423500776290894,0.3478894829750061,-0.11048686504364014,0.03652876615524292,0.08927467465400696,0.39025211036346263,-0.8209391195162462,-0.0019235521451370708,0.416843544287729
1728066648720145700,3.935145751953125,-0.00850802194327116,0.4012931287288666,-0.022282931953668594,0.6813604831695557,0.6424173712730408,0.35078179836273193,-0.11210095882415771,-0.0015328526496887207,0.0832848846912384,0.39034464332717445,-0.8218210867239523,-0.0010004834015863032,0.41501828003501273
1728066648730176800,3.9451767578125,-0.08631706982851028,0.27286750078201294,-0.04735073447227478,0.6799287796020508,0.6425021290779114,0.35339486598968506,-0.10781574249267578,-0.03652983903884888,0.06489422917366028,0.39023108344624396,-0.8226160072446362,-0.0005821282063297968,0.4135484101778212
1728066648740206600,3.95520654296875,-0.13673469424247742,0.14867909252643585,-0.0496293343603611,0.6788653135299683,0.6424399018287659,0.35554614663124084,-0.10016041994094849,-0.05720418691635132,0.048338741064071655,0.38986067147424924,-0.823269504170911,-0.0006290761294107536,0.4125962520080667
1728066648750237700,3.96523779296875,-0.1435883343219757,0.08703996241092682,-0.027218567207455635,0.678207278251648,0.6421919465065002,0.35724514722824097,-0.09973156452178955,-0.06386858224868774,0.00376245379447937,0.3893488182978663,-0.8237850632910253,-0.0008645087827751184,0.41204952871392575
1728066648760268800,3.975268798828125,-0.13161389529705048,0.08831604570150375,-0.026687799021601677,0.6777326464653015,0.6418598294258118,0.3587398827075958,-0.10783225297927856,-0.05961489677429199,-0.04483616352081299,0.3888190772498623,-0.8242382836860694,-0.0010939988489516589,0.41164272065399554
1728066648770298600,3.985298583984375,-0.08124607801437378,0.09460989385843277,-0.056100018322467804,0.6771463751792908,0.6417199969291687,0.36009472608566284,-0.12148243188858032,-0.043529629707336426,-0.06907916069030762,0.38843671362538734,-0.8246488162725008,-0.0013038296305003952,0.4111806474613161
1728066648780329700,3.995329833984375,0.005048466846346855,0.08258827030658722,-0.1014520525932312,0.676331639289856,0.6421114802360535,0.36092671751976013,-0.12193417549133301,-0.026800811290740967,-0.06670689582824707,0.38844627629591233,-0.8249006214334406,-0.0015247893597184407,0.4106653822288982
1728066648790359800,4.00535986328125,0.050410088151693344,0.03242071345448494,-0.11516706645488739,0.6753963232040405,0.6429616212844849,0.36116495728492737,-0.1024898886680603,-0.016603529453277588,-0.052632302045822144,0.38878999426904454,-0.8249722562778622,-0.0018036805273526212,0.41019489704299755
1728066648800390700,4.015390625,0.10669433325529099,-0.03924202173948288,-0.07841357588768005,0.6747564077377319,0.6439170241355896,0.3606586158275604,-0.06339782476425171,-0.021282076835632324,-0.035539716482162476,0.3893108173894361,-0.8248181803429172,-0.002067949589793342,0.4100094804445764
1728066648810420700,4.025420654296875,0.1380237489938736,-0.12178803235292435,-0.03668690472841263,0.6746704578399658,0.6447584629058838,0.35931381583213806,-0.01683354377746582,-0.03695493936538696,-0.03384390473365784,0.38995000228659965,-0.8244101426380502,-0.0021951061298884538,0.41022204630162135
1728066648820451800,4.035451904296875,0.05746094137430191,-0.2144625186920166,-0.01616618223488331,0.6751137375831604,0.64527428150177,0.357550710439682,0.007167637348175049,-0.040202200412750244,0.0026023685932159424,0.39041058539044954,-0.8238747288586014,-0.0024040322094096185,0.4108578914910556
1728066648830482700,4.045482666015625,-0.03678406774997711,-0.35000649094581604,-0.06770287454128265,0.6758648157119751,0.6455682516098022,0.35559576749801636,0.007301628589630127,-0.02398616075515747,0.0835978090763092,0.39052956925074017,-0.8232790493912797,-0.003081381463343033,0.4119329518691583
1728066648840512800,4.0555126953125,-0.15827473998069763,-0.4770655930042267,-0.14510737359523773,0.6766566634178162,0.6459477543830872,0.35339364409446716,-0.007131636142730713,-0.009671449661254883,0.12080362439155579,0.39034318874287277,-0.8226033257093514,-0.004538128737495151,0.41344322049451976
1728066648850543600,4.065543701171875,-0.21953970193862915,-0.5080237984657288,-0.20606979727745056,0.6772654056549072,0.6464599370956421,0.3512841463088989,-0.018589496612548828,-0.00789499282836914,0.08604782819747925,0.38988997209967036,-0.8219475972248125,-0.006650338283437936,0.4151427635066727
1728066648860573700,4.07557373046875,-0.20996902883052826,-0.4562159776687622,-0.24073776602745056,0.6775185465812683,0.647219717502594,0.34939199686050415,-0.022382676601409912,-0.017977893352508545,0.0076330602169036865,0.3894445472577587,-0.8213497793227132,-0.00897455643680195,0.41669746850544537
1728066648870604800,4.085604736328125,-0.19134794175624847,-0.39441677927970886,-0.268008828163147,0.6773511171340942,0.6482234001159668,0.3478521704673767,-0.027281224727630615,-0.0289151668548584,-0.024335592985153198,0.38910592633562335,-0.8208525531891897,-0.011277121851487265,0.417935652671695
1728066648880635600,4.0956357421875,-0.14671768248081207,-0.3711089491844177,-0.30280327796936035,0.6768091917037964,0.6495791673660278,0.34637588262557983,-0.019964218139648438,-0.022290289402008057,-0.0031905174255371094,0.38898839264922264,-0.8203684466584018,-0.013548333452444864,0.41892729722128064
1728066648890665700,4.105665771484375,-0.0702601969242096,-0.3737236559391022,-0.3300892412662506,0.6760133504867554,0.6513546109199524,0.3445912301540375,0.009823381900787354,-0.006533384323120117,0.008268147706985474,0.3891679937449804,-0.8197836177227437,-0.01582508411253539,0.4198245440629047
1728066648900696800,4.11569677734375,0.03030475601553917,-0.41604873538017273,-0.32702553272247314,0.675192654132843,0.6535245180130005,0.3420827388763428,0.04903525114059448,0.005350053310394287,0.025470882654190063,0.3897433620012863,-0.818973428902776,-0.01799689451699793,0.4207834728667149
1728066648910727000,4.125726806640625,0.13060340285301208,-0.4734763503074646,-0.2958953082561493,0.6746654510498047,0.6559092402458191,0.33854028582572937,0.09001344442367554,0.004613220691680908,0.03269064426422119,0.3906947456221534,-0.8178455912913433,-0.019968167562008754,0.422004075542495
1728066648920757800,4.1357578125,0.117892324924469,-0.5666096210479736,-0.25029852986335754,0.6746083498001099,0.6582138538360596,0.3341527581214905,0.11587315797805786,-0.004923999309539795,0.04194572567939758,0.3917759510004318,-0.8164561666767843,-0.021810842137875677,0.42359791644981676
1728066648930787800,4.145787841796875,0.022002283483743668,-0.6603321433067322,-0.209006205201149,0.6751442551612854,0.659983217716217,0.3295486867427826,0.11530673503875732,-0.019434452056884766,0.07943251729011536,0.39246171577845923,-0.8149889182973566,-0.023820162643562258,0.42567525907106657
1728066648940818700,4.155818603515625,0.029867662116885185,-0.6734460592269897,-0.1816672533750534,0.6760546565055847,0.6613774299621582,0.3248539865016937,0.09980887174606323,-0.05607646703720093,0.06297865509986877,0.3928878477724607,-0.8134843796436256,-0.02588726315359215,0.42803296585064055
1728066648950849800,4.165849853515625,-0.00727251498028636,-0.6388648748397827,-0.1627713292837143,0.6770583987236023,0.6625944972038269,0.320250540971756,0.07133936882019043,-0.10432112216949463,0.006134897470474243,0.39324346407002775,-0.8120038153022091,-0.02784008891916596,0.43038853823838885
1728066648960879900,4.1758798828125,-0.09677064418792725,-0.5543946623802185,-0.14891010522842407,0.6779552698135376,0.6634663343429565,0.31652575731277466,0.0375901460647583,-0.12144368886947632,0.03779849410057068,0.3932801028324378,-0.8107884785340487,-0.029747512566786052,0.43251324111889244
1728066648970910700,4.18591064453125,-0.23170262575149536,-0.5210945010185242,-0.15264412760734558,0.6786343455314636,0.663978636264801,0.3139866888523102,0.019317805767059326,-0.11876678466796875,0.07943060994148254,0.3928686196075766,-0.8099289087093621,-0.03175694228955934,0.43435106511935456
1728066648980940500,4.1959404296875,-0.29855161905288696,-0.5036042332649231,-0.1582527458667755,0.6792158484458923,0.6641567945480347,0.3123477101325989,0.018354713916778564,-0.11857891082763672,0.09126242995262146,0.39199109791580755,-0.8093316644765235,-0.034001729886322066,0.4360836430258806
