time,seconds_elapsed,rotationRateX,rotationRateY,rotationRateZ,gravityX,gravityY,gravityZ,accelerationX,accelerationY,accelerationZ,quaternionW,quaternionX,quaternionY,quaternionZ
1728403802801769000,0.06476904296875,-0.0215783528983593,-0.15095046162605286,0.06789567321538925,0.44457387924194336,0.3060101568698883,-0.8418502807617188,-0.02556750178337097,-0.006861567497253418,0.03633880615234375,0.9596484900729246,-0.1594386706645445,0.23163370276167133,1.3232755674868056e-17
1728403802811800000,0.074800048828125,-0.05281376838684082,-0.09845555573701859,0.003982205409556627,0.443635493516922,0.3062156140804291,-0.8422704935073853,-0.03694295883178711,-0.0037863850593566895,0.009262681007385254,0.9597578722681279,-0.1595992793031821,0.23106889628215524,0.0002979901872900268
1728403802821831000,0.084830810546875,0.012477818876504898,-0.1030849814414978,0.02871338278055191,0.4428377151489258,0.3063907325267792,-0.8426265716552734,-0.0671662986278534,-0.012216508388519287,0.0021266937255859375,0.9598505646641171,-0.15971338715911443,0.2306043310581428,0.000458026384466266
1728403802831862000,0.094862060546875,0.044110581278800964,-0.08489852398633957,0.022419534623622894,0.4421178102493286,0.30597737431526184,-0.8431546092033386,-0.07311448454856873,-0.021614551544189453,-0.009140253067016602,0.9599879666405037,-0.15951807616337088,0.23016663426708356,0.0006375536560374221
1728403802841892000,0.10489208984375,0.04427829384803772,-0.06722158193588257,-0.015386432409286499,0.44150686264038086,0.3055816888809204,-0.8436180949211121,-0.02378225326538086,0.0061248838901519775,-0.036035776138305664,0.9601087058887762,-0.159295970057972,0.22981674041475728,0.0006552875349829415
1728403802851923000,0.1149228515625,-0.010562052950263023,-0.04453437402844429,-0.03398381918668747,0.44089290499687195,0.3055407702922821,-0.8439539670944214,-0.0013634860515594482,0.026154786348342896,-0.009332716464996338,0.9601962447198489,-0.1592353876061859,0.229493143340194,0.0005526468619934599
1728403802861954000,0.1249541015625,-0.06782633811235428,-0.012068737298250198,-0.04113733768463135,0.44059252738952637,0.30607137084007263,-0.8439185619354248,-0.002604246139526367,0.009312570095062256,0.01655656099319458,0.9601870069638048,-0.15948695722476108,0.22935698953917688,0.00044308222116315205
1728403802871985000,0.13498486328125,-0.09244567155838013,-0.06918075680732727,-0.037142060697078705,0.44025367498397827,0.3071124851703644,-0.8437171578407288,-0.029181867837905884,-0.002348661422729492,0.03422313928604126,0.9601345884100463,-0.1600170987256955,0.22920723956153338,0.0003564906806347602
1728403802882016000,0.14501611328125,-0.09550417214632034,-0.0932026356458664,0.008469631895422935,0.43940645456314087,0.30808576941490173,-0.8438040018081665,-0.03262236714363098,0.0002791285514831543,0.041802048683166504,0.9601572589914942,-0.16053878051890033,0.22874725604281185,0.00043535747389254964
1728403802892046000,0.155046142578125,-0.0756353959441185,-0.061473194509744644,0.06163511425256729,0.43846628069877625,0.30870112776756287,-0.8440681099891663,0.009287655353546143,0.01869148015975952,0.033231377601623535,0.9602258459193842,-0.16091699539709559,0.22819216220767063,0.0007278596547942413
1728403802902077000,0.165076904296875,-0.0804215669631958,0.008402075618505478,0.06282980740070343,0.43741360306739807,0.308961421251297,-0.8445188999176025,0.02219638228416443,0.02560281753540039,0.012319862842559814,0.9603427815964559,-0.1611180179856614,0.2275555563430311,0.0010890612778516266
1728403802912108000,0.17510791015625,-0.0850839614868164,0.09801051765680313,0.02780790999531746,0.43669629096984863,0.30912643671035767,-0.8448296785354614,0.004587888717651367,0.009553402662277222,-0.00038510560989379883,0.9604234289019427,-0.16123851012434667,0.2271283734496154,0.0012945580706089567
1728403802922139000,0.185138916015625,-0.012296304106712341,0.10473276674747467,0.019611498340964317,0.43692758679389954,0.309362530708313,-0.8446236252784729,-0.03028082847595215,-0.006856977939605713,-0.006023287773132324,0.9603697344881824,-0.16137634726308478,0.2272572390225978,0.0013187672924512633
1728403802932169000,0.1951689453125,0.020780421793460846,0.0835217535495758,0.021691692993044853,0.43764328956604004,0.30971384048461914,-0.8441242575645447,-0.05249616503715515,-0.004370182752609253,-0.016364634037017822,0.9602398692732567,-0.1615711468762708,0.22766783553548386,0.0012743946133503086
1728403802942197800,0.20519775390625,0.01757810451090336,0.061375491321086884,-0.000809886958450079,0.438504695892334,0.30988645553588867,-0.8436136841773987,-0.0320410430431366,0.012424975633621216,-0.030669093132019043,0.9601070595973438,-0.16166640770440938,0.22816030933944648,0.001200154255732559
1728403802952228900,0.215228759765625,-0.056324880570173264,0.07963146269321442,0.021874917671084404,0.43865957856178284,0.3103170096874237,-0.8433748483657837,-0.01621997356414795,0.01731973886489868,-0.010110199451446533,0.9600449100224046,-0.16188790390344204,0.22826492729700482,0.001144083334625046
1728403802962259700,0.225259765625,-0.14065814018249512,0.08603598922491074,0.031280405819416046,0.4390689432621002,0.3115730881690979,-0.8426984548568726,-0.011227726936340332,-0.0073128342628479,0.001023709774017334,0.9598686426999429,-0.16258759206902978,0.22850830139943798,0.0012086569985899096
1728403802972290800,0.235290771484375,-0.2425704002380371,-0.018374837934970856,0.01921442151069641,0.4401066303253174,0.31387490034103394,-0.8413017988204956,-0.009198427200317383,-0.022645622491836548,0.01844114065170288,0.9595043813640751,-0.16391228524401102,0.22908922251289954,0.0014715183796013272
1728403802982321000,0.24532080078125,-0.3609250485897064,-0.11347796767950058,0.019071143120527267,0.44018352031707764,0.3169868588447571,-0.8400939702987671,0.01683250069618225,-0.030060559511184692,0.03378903865814209,0.9591888943818967,-0.16569974831055628,0.22912140736595663,0.0019375406544271992
1728403802992351700,0.255351806640625,-0.4635672867298126,-0.11892067641019821,-0.012231118977069855,0.43916988372802734,0.32042521238327026,-0.83931964635849,0.059502631425857544,-0.02641880512237549,0.058252811431884766,0.9589856110504267,-0.16767103011669326,0.22853138028333392,0.002544527615555741
1728403803002382800,0.2653828125,-0.503622829914093,-0.08872543275356293,-0.045809321105480194,0.4374801814556122,0.3242463171482086,-0.8387343883514404,0.04431608319282532,-0.03210151195526123,0.0677536129951477,0.9588315415873945,-0.1698036258919373,0.22759509658328056,0.0030313483302238445
1728403803012413700,0.27541357421875,-0.46791329979896545,-0.03181074932217598,-0.061273764818906784,0.43569907546043396,0.3282352089881897,-0.8381097912788391,-0.014831125736236572,-0.05585053563117981,0.05556279420852661,0.9586676881812363,-0.17198487326980563,0.22664139358001512,0.0033477154240567023
1728403803022444800,0.28544482421875,-0.36328354477882385,0.06324966251850128,-0.04979367554187775,0.43500226736068726,0.33174461126327515,-0.8370893001556396,-0.046818673610687256,-0.05278339982032776,0.03800177574157715,0.9584009154826275,-0.17390006249007375,0.22630535733401774,0.0035070614789328002
1728403803032475000,0.295474853515625,-0.24307139217853546,0.1350594013929367,-0.019143886864185333,0.43546193838119507,0.3343118131160736,-0.8358280658721924,-0.05614367127418518,-0.03432399034500122,-0.002367734909057617,0.9580716980285631,-0.17531442517405,0.22660721104301598,0.003565093503568025
1728403803042505700,0.305505615234375,-0.1626782864332199,0.10638850927352905,0.0517561174929142,0.43645912408828735,0.3354364335536957,-0.8348567485809326,-0.053219377994537354,-0.02327209711074829,-0.019330203533172607,0.9578173218825581,-0.17600454798471213,0.22714315780888972,0.003794883346777429
1728403803052536800,0.315536865234375,-0.1423272043466568,0.11199632287025452,0.09470199048519135,0.4376634657382965,0.3357544243335724,-0.8340981006622314,-0.03469407558441162,-0.0129241943359375,-0.004753768444061279,0.9576170703999881,-0.17633426524767878,0.22772168772970205,0.004318835189016071
1728403803062567700,0.325567626953125,-0.14745134115219116,0.13820144534111023,0.1231517344713211,0.43966951966285706,0.3358043134212494,-0.8330222964286804,-0.020876765251159668,-0.001560509204864502,0.017150163650512695,0.957332762690905,-0.17658311342795932,0.22870778752219076,0.005013545808988321
1728403803072597800,0.33559765625,-0.1757362186908722,0.10465414822101593,0.1410393863916397,0.44231730699539185,0.3360533118247986,-0.831518828868866,-0.03264930844306946,-0.004235655069351196,0.018728971481323242,0.9569350645209446,-0.1770032070811277,0.23002272121779346,0.005886025434795714
1728403803082628600,0.345628662109375,-0.2604680061340332,0.06791706383228302,0.13905826210975647,0.44353997707366943,0.33723029494285583,-0.8303902745246887,-0.019299834966659546,-0.012599527835845947,0.004599928855895996,0.956634502102139,-0.1778850104721841,0.23056839623595587,0.006747633917373041
1728403803092659700,0.35565966796875,-0.3744736909866333,0.03761695325374603,0.08801079541444778,0.44435015320777893,0.33934056758880615,-0.8290964365005493,0.006531804800033569,-0.007171958684921265,-0.0009511113166809082,0.9562897256171827,-0.1792666586161257,0.23090094386119678,0.007624856385913119
1728403803102690800,0.36569091796875,-0.49161601066589355,0.06813465058803558,0.04897630959749222,0.4449878931045532,0.34266266226768494,-0.8273863196372986,-0.005900949239730835,-0.02283841371536255,-0.0010895729064941406,0.955836201635925,-0.18127808640227708,0.23118194194390557,0.008395234851624698
1728403803112721700,0.3757216796875,-0.544933021068573,0.13228459656238556,0.02227865345776081,0.44595420360565186,0.3468449115753174,-0.8251202702522278,-0.04505997896194458,-0.062222689390182495,0.01648080348968506,0.9552370479798734,-0.18375097736425872,0.2316795940950446,0.009078403792632691
1728403803122751700,0.385751708984375,-0.520639955997467,0.20294545590877533,0.007295975927263498,0.44736185669898987,0.3512302339076996,-0.8224990367889404,-0.05922403931617737,-0.06657752394676208,-0.004328906536102295,0.9545454924153661,-0.18631864429107367,0.232456100702291,0.009612594969367505
1728403803132782600,0.395782470703125,-0.4895728528499603,0.25169649720191956,-0.009599650278687477,0.44928833842277527,0.35542356967926025,-0.8196426630020142,-0.05523011088371277,-0.04068046808242798,-0.03057706356048584,0.9537934589549452,-0.18876313337558884,0.23355330049437042,0.00997315775586997
1728403803142813700,0.405813720703125,-0.4313226044178009,0.21983356773853302,0.004167294595390558,0.4512273967266083,0.3592645823955536,-0.8168982863426208,-0.048242777585983276,-0.009700924158096313,-0.055080413818359375,0.9530707308615918,-0.19100601225973896,0.23466475987436672,0.010269780864878281
1728403803152844500,0.415844482421875,-0.40273886919021606,0.19366268813610077,0.015679607167840004,0.452963262796402,0.36255672574043274,-0.8144795298576355,-0.03421628475189209,0.0068433284759521484,-0.05588173866271973,0.9524324321394187,-0.1929550065221616,0.235645046111784,0.010601704078246137
1728403803162874600,0.42587451171875,-0.43493205308914185,0.16900667548179626,0.07460710406303406,0.4545813500881195,0.36580154299736023,-0.8121238350868225,-0.015341788530349731,-0.001009613275527954,-0.02450031042098999,0.9518076952381294,-0.19493000653114576,0.2365172047899372,0.01114131296002201
1728403803172905700,0.43590576171875,-0.4661712050437927,0.19226272404193878,0.09769857674837112,0.45636576414108276,0.36907628178596497,-0.8096376061439514,-0.03249180316925049,-0.023739337921142578,0.013632357120513916,0.9511447274567424,-0.19699819207224606,0.2374298158998455,0.011943085112109541
1728403803182936600,0.4459365234375,-0.4230755865573883,0.2153220772743225,0.06128038465976715,0.4583180248737335,0.3723955750465393,-0.8070106506347656,-0.05437207221984863,-0.04730701446533203,0.029666900634765625,0.9504447169194085,-0.19908230597213578,0.2384552592536661,0.012660421675707858
1728403803192968000,0.455968017578125,-0.3770796060562134,0.19780300557613373,-0.02942315675318241,0.4601023495197296,0.37562140822410583,-0.8044963479042053,-0.05904030799865723,-0.05500370264053345,0.012794137001037598,0.9497777993739509,-0.20103321696897383,0.23945241491847696,0.013055519904321893
1728403803202998800,0.465998779296875,-0.2622837722301483,0.26718270778656006,-0.0025220331735908985,0.4616539180278778,0.3783576190471649,-0.8023223876953125,-0.04772868752479553,-0.00888127088546753,-0.040054261684417725,0.9492060464084814,-0.2025970053062994,0.24040226347052102,0.013009422371966211
1728403803213028600,0.476028564453125,-0.2880384027957916,0.32622605562210083,0.11397741734981537,0.4644570052623749,0.3801920711994171,-0.7998335957527161,-0.03988116979598999,0.05930685997009277,-0.10080116987228394,0.9485455046296426,-0.20381488879706733,0.24195598864011575,0.013356409069494823
1728403803223060000,0.48606005859375,-0.39936307072639465,0.2590506374835968,0.11150386929512024,0.46716418862342834,0.3823859691619873,-0.7972068190574646,-0.0036632120609283447,0.028334885835647583,-0.0877724289894104,0.947843783500294,-0.2053064279487062,0.2434047518351806,0.013990861775080498
1728403803233090800,0.4960908203125,-0.533424973487854,0.39816856384277344,0.14265087246894836,0.47020259499549866,0.3855392038822174,-0.7938948273658752,0.019070476293563843,-0.10016933083534241,-0.02814185619354248,0.9469566639711714,-0.20740874554874186,0.2450187744320251,0.014845772796489768
1728403803243122000,0.506121826171875,-0.6215303540229797,0.5597235560417175,0.16100138425827026,0.474661648273468,0.38941681385040283,-0.7893357276916504,-0.05661657452583313,-0.18786343932151794,-0.010774075984954834,0.9457372031745485,-0.21001001796082527,0.24744276344135785,0.015784956450567603
1728403803253152000,0.516152099609375,-0.6877596974372864,0.5849285125732422,0.15104542672634125,0.47979626059532166,0.39387020468711853,-0.784003734588623,-0.08837780356407166,-0.13592034578323364,0.03191328048706055,0.9443105131205479,-0.21298167927123418,0.25027371022325823,0.016724623983654104
1728403803263182800,0.526182861328125,-0.7401579022407532,0.6499150395393372,0.12124012410640717,0.48520132899284363,0.39878714084625244,-0.7781699299812317,-0.07136768102645874,-0.016218721866607666,0.13041913509368896,0.9427486980673876,-0.21623159594186395,0.25329610625862203,0.01760189800470247
1728403803273214000,0.5362138671875,-0.7540385723114014,0.6632835865020752,0.15059694647789001,0.49086982011795044,0.40399158000946045,-0.7719051837921143,-0.050089120864868164,0.029770076274871826,0.12609225511550903,0.9410692390523003,-0.21968045698388788,0.25649150239627455,0.018475222746073917
1728403803283244800,0.546244873046875,-0.7885321378707886,0.7022084593772888,0.16700628399848938,0.49677619338035583,0.4091174006462097,-0.7653995156288147,-0.024089395999908447,0.019212067127227783,0.08375895023345947,0.9393190160195111,-0.22316184638697575,0.25980578652987035,0.019481732479385585
1728403803293276000,0.55627587890625,-0.7859906554222107,0.6264873147010803,0.08861026912927628,0.5025370717048645,0.41439369320869446,-0.7587715983390808,-0.025455772876739502,-0.01021885871887207,0.07273650169372559,0.9375352302901571,-0.22670747692580182,0.26309299309367234,0.02033275910453226
1728403803303306000,0.566305908203125,-0.7961944937705994,0.28339850902557373,0.013699812814593315,0.5062296390533447,0.42013436555862427,-0.7531391978263855,-0.010639429092407227,0.015519380569458008,0.08680319786071777,0.9360143571969093,-0.2304167387712531,0.2652140922462643,0.021138374863141685
1728403803313336800,0.5763369140625,-0.8798909783363342,-0.03407374769449234,-0.05668167397379875,0.5068965554237366,0.42654934525489807,-0.7490738034248352,0.04876750707626343,0.052958130836486816,0.07167518138885498,0.9349082551785934,-0.2343708023505502,0.2655812819276259,0.02199146534839279
1728403803323368000,0.586367919921875,-0.9561018943786621,-0.09493326395750046,-0.08034466207027435,0.5060043931007385,0.4338565170764923,-0.745471715927124,0.060234010219573975,0.04293489456176758,0.04309439659118652,0.9339211318251637,-0.2387930393316059,0.2650321241393932,0.022961743851661866
1728403803333398800,0.596398681640625,-0.9338464140892029,-0.10522851347923279,-0.06369111686944962,0.5050019025802612,0.4412817060947418,-0.7417840361595154,0.05873405933380127,0.047533631324768066,0.0006037354469299316,0.9329071022176384,-0.24331272647551438,0.26439913763281525,0.02400659175784159
1728403803343430000,0.606429931640625,-0.9251132607460022,-0.13165414333343506,-0.03675936535000801,0.5038256049156189,0.44842976331710815,-0.7382888793945312,0.0704846978187561,0.03391584753990173,-0.0329817533493042,0.9319401533024368,-0.24770094686321742,0.2636281217407856,0.025139878002532458
1728403803353459700,0.616459716796875,-1.0269101858139038,-0.08401498943567276,-0.023351415991783142,0.5029046535491943,0.4557194709777832,-0.7344431281089783,0.056864023208618164,-0.016479909420013428,-0.03550004959106445,0.9308722175304373,-0.25224749911346467,0.26296316273753007,0.02643130182428118
1728403803363490800,0.62649072265625,-1.2019380331039429,-0.005639706738293171,-0.014991220086812973,0.5024843811988831,0.4639892280101776,-0.7295364737510681,0.007769525051116943,-0.05078116059303284,-0.004045009613037109,0.9295119948043555,-0.25745546264154,0.2625803668415414,0.027851783603416242
1728403803373522000,0.63652197265625,-1.342832326889038,0.025403430685400963,0.08124636858701706,0.5027167201042175,0.47320839762687683,-0.7234291434288025,-0.032440781593322754,-0.05169957876205444,0.049799442291259766,0.9278127954354886,-0.26339620687153165,0.2625030809808044,0.029630777284786504
1728403803383552800,0.646552734375,-1.3935085535049438,0.09338876605033875,0.29671236872673035,0.5038822293281555,0.48215359449386597,-0.7166802883148193,-0.023398220539093018,-0.05376306176185608,0.06656432151794434,0.9259064559955463,-0.2695078882886875,0.26272677579412235,0.0322094886397991
1728403803393582800,0.656582763671875,-1.522779107093811,0.2688133120536804,0.6922168135643005,0.5087518095970154,0.4898371696472168,-0.7079768180847168,-0.004631936550140381,-0.0738215446472168,0.03388935327529907,0.9234064236447781,-0.275603885275425,0.26467735715296375,0.03617918659982647
1728403803403613700,0.66661376953125,-1.5152589082717896,0.14454616606235504,0.6651076674461365,0.5134210586547852,0.4971247613430023,-0.6994753479957581,0.015219688415527344,-0.08564096689224243,0.05236542224884033,0.9208939273725728,-0.2818036330723521,0.26617482892340694,0.041134117923817076
1728403803413644800,0.676644775390625,-1.3448984622955322,0.04556206986308098,0.6061466336250305,0.5172260403633118,0.5038904547691345,-0.6917886734008789,-0.06349074840545654,-0.02893012762069702,0.06465250253677368,0.9185826722699953,-0.28760571114836947,0.2671865072442723,0.04582711035866187
1728403803423675600,0.686675537109375,-1.22672700881958,0.01911671832203865,0.6263850927352905,0.5206013917922974,0.5094587802886963,-0.685146689414978,-0.06663715839385986,0.059922993183135986,0.005901753902435303,0.9165385824379492,-0.2926313167564719,0.2679432083095646,0.05030362957826923
1728403803433706800,0.696706787109375,-1.3391427993774414,-0.06819528341293335,0.6003531813621521,0.5235906839370728,0.5148863792419434,-0.6787819266319275,-0.026489853858947754,0.029944002628326416,0.008997440338134766,0.9145375889296504,-0.29760804746229336,0.2683998552344071,0.05488287769093265
1728403803443736800,0.70673681640625,-1.6715501546859741,-0.03755822777748108,0.4852825403213501,0.5260673761367798,0.5221315622329712,-0.6712911128997803,-0.036916375160217285,-0.08373129367828369,0.03611356019973755,0.9121946946846534,-0.30372578646845405,0.2685238946743763,0.05955248924979947
1728403803453767700,0.716767578125,-2.0246763229370117,0.25013694167137146,-0.2317059487104416,0.5277815461158752,0.5332086086273193,-0.6611620187759399,-0.06962114572525024,-0.20030760765075684,0.07221865653991699,0.9091897616566206,-0.3118173760414262,0.26867995201153194,0.0628884457602083
1728403803463798800,0.726798828125,-2.2020037174224854,-0.36284589767456055,-0.36778733134269714,0.525124192237854,0.54923415184021,-0.6500664949417114,-0.11792808771133423,-0.32938551902770996,0.0383264422416687,0.9060628511390824,-0.3219246479909908,0.26707913766586844,0.06390194744744784
1728403803473829600,0.73682958984375,-2.196091651916504,-0.4793565273284912,0.286319375038147,0.5224994421005249,0.5638725161552429,-0.6395639777183533,0.029258370399475098,-0.2642814517021179,0.030112743377685547,0.9029081912713219,-0.33199455368018527,0.2645706315569129,0.06737081670336022
1728403803483860700,0.74686083984375,-2.006718397140503,-0.7775810360908508,0.3863844573497772,0.5205390453338623,0.575279176235199,-0.6309460401535034,0.2880393862724304,0.051887571811676025,0.02372264862060547,0.9000920532559104,-0.3407384136260143,0.26158040338911476,0.07285086928548021
1728403803493890800,0.756890869140625,-2.03646183013916,-0.8896409869194031,0.39322930574417114,0.5174136161804199,0.5859783887863159,-0.623628556728363,0.14985328912734985,0.08064758777618408,0.0012073516845703125,0.8975651248381865,-0.34901219748738094,0.2576357987165728,0.0786846382681467
1728403803503921700,0.766921630859375,-2.0971319675445557,-0.7701970338821411,0.5072594881057739,0.5148496627807617,0.5964272022247314,-0.6157957315444946,0.007473945617675781,-0.004401504993438721,0.05009150505065918,0.8948214777904573,-0.35732188103868123,0.25381725687854406,0.08480781789343181
1728403803513952800,0.776952880859375,-2.472043752670288,-0.5244229435920715,0.670299768447876,0.514383852481842,0.6073340773582458,-0.6054374575614929,-0.04575592279434204,-0.09164804220199585,0.04362422227859497,0.8912626065132131,-0.3664751519260537,0.2509526437102615,0.09148566299509178
1728403803523983600,0.786983642578125,-2.804823875427246,-0.36379924416542053,0.7915830612182617,0.5163155198097229,0.6193991303443909,-0.5914077162742615,-0.07497024536132812,-0.08647066354751587,0.11315155029296875,0.8865237644279664,-0.3771324074519039,0.24913305616767645,0.09889201258824272
1728403803534013700,0.797013671875,-3.0845375061035156,-0.3356246054172516,0.8141400218009949,0.519379198551178,0.6324218511581421,-0.5747067928314209,-0.0590825080871582,-0.10097348690032959,0.13728314638137817,0.8808787579860502,-0.3889970276853244,0.24764473455558214,0.1067992862803559
1728403803544044800,0.807044921875,-3.145280361175537,-0.42742130160331726,0.8130718469619751,0.5224511623382568,0.64600670337677,-0.5565251111984253,-0.015737295150756836,-0.11370384693145752,0.08397573232650757,0.8746634324118558,-0.40161487022003695,0.2458514901438682,0.11500637913303495
1728403803554075600,0.81707568359375,-2.8607256412506104,-0.564817488193512,0.865009069442749,0.525168240070343,0.6581946611404419,-0.5394238829612732,0.04873013496398926,-0.046149373054504395,-0.02092456817626953,0.8686120891405691,-0.4134768840670061,0.24356707042202355,0.12338976783283753
1728403803564106800,0.827106689453125,-2.31125545501709,-0.6520915627479553,0.8233996033668518,0.5276356935501099,0.667569100856781,-0.5253114700317383,0.09895122051239014,0.0797606110572815,-0.16762059926986694,0.86333892451668,-0.42335044572146696,0.2410781586636844,0.13153567348293857
1728403803574137600,0.8371376953125,-1.9535306692123413,-0.7556245923042297,0.6580902934074402,0.5289403200149536,0.6747099161148071,-0.5147705674171448,0.09500688314437866,0.21055930852890015,-0.22891223430633545,0.8591349737848689,-0.43115244083598275,0.23816443687521263,0.1388250579025207
1728403803584167700,0.847167724609375,-1.92911696434021,-0.7799695134162903,0.5414278507232666,0.5290194749832153,0.6813462972640991,-0.5058712363243103,0.04295629262924194,0.34557026624679565,-0.13751554489135742,0.855466493457336,-0.43810958897722746,0.23478579981666647,0.1453023534267756
1728403803594198800,0.85719873046875,-2.461671829223633,-0.761393666267395,0.6026453971862793,0.5289772152900696,0.6892809271812439,-0.4950506389141083,0.0033257007598876953,0.2988172769546509,0.032099008560180664,0.8511362056722848,-0.44617658398439286,0.23108685598661982,0.15196273125092008
1728403803604229600,0.867229736328125,-3.2232666015625,-0.6862388849258423,0.7035834193229675,0.5300196409225464,0.6995717287063599,-0.4792478382587433,-0.010824143886566162,-0.07504481077194214,0.20613083243370056,0.8450668599651165,-0.4568530377586448,0.22729140121076624,0.15964303147088
1728403803614260700,0.8772607421875,-4.242537498474121,-0.5521225929260254,0.8379822969436646,0.5324973464012146,0.7130740284919739,-0.45603957772254944,-0.0195121169090271,-0.4560854434967041,0.16531389951705933,0.8364290419885849,-0.4712672462509147,0.22335485157506155,0.16854171190179879
1728403803624290800,0.887290771484375,-4.419495105743408,-0.4344610869884491,1.008905291557312,0.5370391607284546,0.7275876998901367,-0.42685484886169434,-0.02188718318939209,-0.4675626754760742,0.192067950963974,0.8255778729248339,-0.4881514136772945,0.21972887732441143,0.17846161432161184
1728403803634321700,0.89732177734375,-3.58638596534729,-0.317715048789978,1.1778473854064941,0.5434876084327698,0.7384498119354248,-0.3991403877735138,0.029128968715667725,-0.3395393490791321,-0.014250606298446655,0.8149290046892059,-0.5032580822713679,0.21716608320464725,0.18831065949613726
1728403803644352800,0.907352783203125,-2.4644367694854736,-0.3089469075202942,1.3132885694503784,0.5516844391822815,0.7433516383171082,-0.3782496750354767,0.09298419952392578,-0.03317701816558838,-0.3855595588684082,0.806302161830959,-0.5139252949164407,0.21623124200571914,0.19748883620069868
1728403803654383900,0.9173837890625,-1.4253548383712769,-0.6182515025138855,1.1736713647842407,0.5594306588172913,0.7434660792350769,-0.36646372079849243,0.14088678359985352,0.3560822606086731,-0.3572911024093628,0.8005442717098598,-0.5198220913661976,0.21576174988450736,0.20581750548893157
1728403803664415000,0.9274150390625,-1.179050087928772,-0.9050045013427734,0.9557312726974487,0.5644881725311279,0.7420738935470581,-0.3614963889122009,0.11825114488601685,0.38825148344039917,-0.20954850316047668,0.7969919409516802,-0.522884396260162,0.21411146054308441,0.21342952743701693
1728403803674444800,0.93744482421875,-1.5187280178070068,-0.9752877354621887,0.9080236554145813,0.5678909420967102,0.7416059374809265,-0.35710009932518005,0.09098351001739502,0.12335377931594849,-0.0655224621295929,0.7935357211202803,-0.5261275129355318,0.21128130587518562,0.22102287892862146
1728403803684476000,0.947475830078125,-2.1746597290039062,-0.8329185843467712,0.9834776520729065,0.5716622471809387,0.7427178025245667,-0.34867265820503235,0.08245158195495605,-0.17257308959960938,0.057275593280792236,0.7885703393135245,-0.5313824472251565,0.20807779542962093,0.22911395544513966
1728403803694507000,0.957507080078125,-2.8829965591430664,-0.612808108329773,1.0755186080932617,0.5768934488296509,0.7454800605773926,-0.3338465392589569,0.032237470149993896,-0.2785153388977051,0.0726313591003418,0.7812825387895973,-0.5394787607840232,0.20503510578430034,0.23774127910880843
1728403803704537900,0.967537841796875,-3.3235578536987305,-0.49714046716690063,1.1199984550476074,0.5833876132965088,0.749190628528595,-0.31364351511001587,-0.02992081642150879,-0.23016297817230225,0.09850993752479553,0.7719846126393017,-0.5498341773138736,0.2021401012742962,0.24670120382522348
1728403803714569000,0.97756884765625,-3.581221103668213,-0.47455713152885437,1.0959746837615967,0.5903050303459167,0.7531419396400452,-0.29037413001060486,-0.03467148542404175,-0.17840439081192017,0.02354380488395691,0.761412093705195,-0.5614319054390394,0.19901543819137846,0.25580973725708034
1728403803724598800,0.987598876953125,-3.6098554134368896,-0.5341958403587341,1.0707515478134155,0.5971341133117676,0.7567567229270935,-0.2659887671470642,-0.0015835762023925781,-0.13042932748794556,-0.029528111219406128,0.7502113151931378,-0.5733971248622818,0.1955028237158162,0.26490999551671246
1728403803734630000,0.9976298828125,-3.478379487991333,-0.7044293284416199,1.0383737087249756,0.6035864949226379,0.759449303150177,-0.24273459613323212,0.042135000228881836,-0.075489342212677,-0.042467355728149414,0.7390834124306624,-0.5847836392543158,0.1914701018837251,0.2740857418581727
1728403803744660700,1.00766064453125,-3.2775301933288574,-0.841890275478363,1.013242244720459,0.6095737218856812,0.7611134052276611,-0.2216443568468094,0.08271753787994385,-0.010091066360473633,-0.06779955327510834,0.7283701821107333,-0.5951877487588033,0.18689400212240226,0.28337080876342546
1728403803754691800,1.01769189453125,-3.0061779022216797,-0.8801397085189819,1.0347390174865723,0.6155524849891663,0.7615147829055786,-0.20295393466949463,0.09622418880462646,0.04262334108352661,-0.0813477486371994,0.7182390585689922,-0.6043913323119458,0.18230236542717326,0.29259117727741807
1728403803764722000,1.027721923828125,-2.7393088340759277,-0.9474404454231262,1.0235627889633179,0.6216721534729004,0.7607201933860779,-0.18662387132644653,0.08938741683959961,0.08109188079833984,-0.08658467233181,0.7087346950967539,-0.612402126537444,0.17790923662481958,0.3016737250359738
1728403803774752800,1.037752685546875,-2.5245301723480225,-0.9857816696166992,0.9428822994232178,0.6274296045303345,0.7592758536338806,-0.1727210134267807,0.06170320510864258,0.11197066307067871,-0.049691036343574524,0.6999860440142165,-0.6193023009428028,0.17350547911612418,0.3104515877922123
1728403803784784000,1.047783935546875,-2.465590715408325,-0.9239948391914368,0.9105227589607239,0.6328667402267456,0.7575831413269043,-0.159835547208786,0.020270466804504395,0.1164555549621582,-0.055740535259246826,0.691569072887908,-0.6256882045200246,0.16910498487551284,0.31882589363303077
1728403803794814700,1.057814697265625,-2.4251134395599365,-0.8455018997192383,0.9339460730552673,0.6384781002998352,0.7554931640625,-0.1468871533870697,-0.008808910846710205,0.07940679788589478,-0.02695620059967041,0.6830977678805948,-0.6319301478196756,0.16498699995860874,0.32683485895206144
1728403803804845800,1.067845703125,-2.468219518661499,-0.770693838596344,0.9224532246589661,0.6443713903427124,0.7529443502426147,-0.13364192843437195,-0.022774100303649902,-0.004043102264404297,-0.00577758252620697,0.6744443916809745,-0.6381334006744521,0.16113595732297464,0.33458280326498774
1728403803814876000,1.0778759765625,-2.4473321437835693,-0.5908241868019104,0.8694791793823242,0.6502487063407898,0.7502807378768921,-0.11939607560634613,-0.043971240520477295,-0.02022397518157959,0.0602530837059021,0.6655070436797376,-0.6445839153693808,0.15752313050033326,0.34175784686738986
1728403803824906800,1.08790673828125,-2.221698045730591,-0.6322801113128662,0.8857502937316895,0.6561205983161926,0.747218132019043,-0.10569340735673904,-0.07701897621154785,0.03467279672622681,0.11660347878932953,0.6568715923755086,-0.6506356211291322,0.1543586290330257,0.3483770251469219
1728403803834937900,1.097937744140625,-2.0242886543273926,-0.7822253704071045,0.8840424418449402,0.6620864868164062,0.7434355020523071,-0.09458048641681671,-0.06418603658676147,0.06349515914916992,0.1289585679769516,0.6488989583035757,-0.6556276948084285,0.15120213062415777,0.3552753342380222
1728403803844968700,1.10796875,-1.8023288249969482,-0.7694014310836792,0.7874056696891785,0.6676221489906311,0.7395680546760559,-0.0855560228228569,-0.04178285598754883,0.06099957227706909,0.09474188089370728,0.6416618947076344,-0.6597868179571426,0.1479977799196406,0.3620056124575843
1728403803854998800,1.117998779296875,-1.7569591999053955,-0.6727113723754883,0.7123209834098816,0.67250657081604,0.736029863357544,-0.07742900401353836,-0.07221049070358276,0.04276353120803833,0.05963730812072754,0.6350144497261782,-0.6635379394471547,0.14492377052967798,0.36806424826393125
1728403803865030000,1.12802978515625,-1.9055284261703491,-0.5816609263420105,0.6448719501495361,0.6770411729812622,0.7327762842178345,-0.0682235062122345,-0.06882578134536743,0.0501522421836853,0.04467927664518356,0.6281140559581235,-0.667665914760668,0.14181139651118424,0.37361028383132877
1728403803875060700,1.138060791015625,-2.1966135501861572,-0.5836721658706665,0.6193189024925232,0.6813123226165771,0.7297623157501221,-0.05710120499134064,-0.05580878257751465,0.01140284538269043,0.05096722021698952,0.6204397766481714,-0.6725549357005458,0.13827239854882348,0.37895261387975543
1728403803885091800,1.148091796875,-2.4904730319976807,-0.5982470512390137,0.5752824544906616,0.6853731274604797,0.7268563508987427,-0.04408629611134529,-0.04108595848083496,-0.04968661069869995,0.08681094646453857,0.6117633442232752,-0.6782429067333121,0.13395301847591928,0.384433069571979
1728403803895122700,1.158122802734375,-2.5371735095977783,-0.5580349564552307,0.5691359043121338,0.6892728805541992,0.7238988876342773,-0.029551366344094276,-0.03917217254638672,-0.07404237985610962,0.10610473155975342,0.6023636287223548,-0.6844921511239138,0.12920840637109615,0.3897867861939599
1728403803905152800,1.16815283203125,-2.282294273376465,-0.5021064281463623,0.5873298048973083,0.6933345198631287,0.7204451560974121,-0.015687840059399605,-0.04753673076629639,-0.03354024887084961,0.07422059774398804,0.5932079153596145,-0.6903435467657801,0.1248273495017443,0.3949029259152338
1728403803915183900,1.178183837890625,-1.7552570104599,-0.40325117111206055,0.5647576451301575,0.6974669694900513,0.7166046500205994,-0.004210851155221462,-0.046496450901031494,0.09696346521377563,0.013793408870697021,0.5852729901844823,-0.6950861617297874,0.12144876330790154,0.39945093338084703
1728403803925214700,1.188214599609375,-1.168846607208252,-0.3357592523097992,0.5238357782363892,0.7013630270957947,0.7127947211265564,0.003696997882798314,-0.05091136693954468,0.2242169976234436,-0.03339052200317383,0.5793067027291666,-0.698284833267172,0.11935992031079533,0.4031814962748539
1728403803935245800,1.198245849609375,-0.7721786499023438,-0.3342590928077698,0.5203726291656494,0.7050988674163818,0.7090632915496826,0.008076747879385948,-0.039785027503967285,0.25071460008621216,-0.02663135528564453,0.5751229270238207,-0.7000343770175815,0.11828036670980971,0.40644243170532224
1728403803945277000,1.20827685546875,-0.8206578493118286,-0.30242449045181274,0.48784077167510986,0.7087211012840271,0.7053989768028259,0.011268427595496178,0.0017282366752624512,0.18966639041900635,0.004051447845995426,0.5715608289702746,-0.7012967427315763,0.11754612933694639,0.40949254723868994
1728403803955307000,1.21830712890625,-1.111836552619934,-0.23688997328281403,0.4405757784843445,0.7120116949081421,0.7019822001457214,0.016133276745676994,0.03212893009185791,0.08891129493713379,0.06824791431427002,0.5673931734886726,-0.7032135784459689,0.11643582550720519,0.4123085302788398
1728403803965338000,1.228338134765625,-1.4862878322601318,-0.19604134559631348,0.4260096251964569,0.7151065468788147,0.698614776134491,0.023666882887482643,0.0567592978477478,-0.020773589611053467,0.0693202018737793,0.5620401198195766,-0.7061769219362947,0.11466296976439866,0.41506323041754056
1728403803975369000,1.238368896484375,-1.741068720817566,-0.1283280849456787,0.35413065552711487,0.7179329991340637,0.6952791810035706,0.034043971449136734,0.08561009168624878,-0.09068024158477783,0.004713412374258041,0.5554174904373388,-0.7102442510252709,0.1121387035917309,0.4177192610500151
1728403803985400000,1.248400146484375,-1.8338922262191772,-0.0463264174759388,0.29527556896209717,0.720191240310669,0.6922531127929688,0.045939866453409195,0.0737847089767456,-0.10417938232421875,-0.017238017171621323,0.5483641411384887,-0.7148651061284952,0.10926030462715292,0.41991303206358527
1728403803995430000,1.258429931640625,-1.6179234981536865,-0.06346731632947922,0.3470311760902405,0.7224157452583313,0.6890461444854736,0.05771591141819954,0.06391549110412598,-0.007802188396453857,0.002205371856689453,0.5414199436325547,-0.7193757820025797,0.10656660111868065,0.4219082665542964
1728403804005461000,1.2684609375,-1.1079946756362915,-0.238655224442482,0.4068436622619629,0.7251238226890564,0.6854264140129089,0.06622985005378723,0.09482258558273315,0.10322415828704834,0.014428146183490753,0.5357067885077774,-0.7226069951549476,0.10466161621409553,0.42415029468997145
1728403804015491800,1.278491943359375,-0.6361803412437439,-0.505305290222168,0.3405727446079254,0.7280898690223694,0.6819703578948975,0.06929510086774826,0.12269449234008789,0.11723929643630981,-0.04439270496368408,0.5319555626772825,-0.7238729124300725,0.10322575064276128,0.42705481327253
1728403804025523200,1.288523193359375,-0.2797963619232178,-0.5530387163162231,0.1501268893480301,0.7300939559936523,0.6799092292785645,0.0684562623500824,0.11153501272201538,0.10715436935424805,-0.09680701047182083,0.5300753819084275,-0.7238004826588871,0.1016906788491114,0.4298743575294276
1728403804035554000,1.298553955078125,-0.03698240593075752,-0.38801276683807373,0.16776475310325623,0.7313981056213379,0.6787583827972412,0.06590735167264938,0.04025411605834961,0.09721201658248901,-0.14247596263885498,0.5294898307691428,-0.7230683870724907,0.10062694511722257,0.4320726859750595
1728403804045584000,1.308583984375,-0.04889126494526863,-0.2074432373046875,0.26256024837493896,0.7330771088600159,0.6771354675292969,0.06391966342926025,0.0028696656227111816,0.0426827073097229,-0.18922483921051025,0.5290786651953148,-0.722385131221814,0.1005959843858168,0.4337234366866963
1728403804055615200,1.318615234375,-0.2742133140563965,-0.06074007973074913,0.2803901135921478,0.7350290417671204,0.6750078201293945,0.06400927901268005,-0.03773277997970581,-0.05678260326385498,-0.1278824806213379,0.5279806063091534,-0.7223728911259553,0.10090612582653369,0.43500807883031656
1728403804065646000,1.32864599609375,-0.45241156220436096,-0.021192140877246857,0.2793799638748169,0.7369076013565063,0.6727324724197388,0.06631935387849808,-0.07406580448150635,-0.15518486499786377,-0.05585182458162308,0.5260251068650726,-0.7231608423154078,0.10098551426161069,0.43604804602282177
1728403804075677200,1.33867724609375,-0.5167738199234009,-0.03390633687376976,0.28449323773384094,0.738841712474823,0.6702980995178223,0.06937934458255768,-0.06559336185455322,-0.16022729873657227,-0.039227962493896484,0.5236693049375494,-0.724229384204852,0.10090326934266707,0.4371279402994132
1728403804085708000,1.3487080078125,-0.46270039677619934,-0.01074349507689476,0.2860517203807831,0.7407264113426208,0.6678703427314758,0.07262025028467178,-0.021671175956726074,-0.11615830659866333,-0.07277274131774902,0.5212174086025415,-0.7253711409134959,0.10073148602181105,0.43820353254523003
1728403804095738000,1.358738037109375,-0.04389118030667305,0.0031329053454101086,0.35351625084877014,0.742841899394989,0.6653150320053101,0.07444455474615097,0.006425738334655762,-0.02472054958343506,-0.10755610466003418,0.5195281386380647,-0.7259229888069463,0.101282246160565,0.43916777670918156
1728403804105769200,1.368769287109375,0.49257972836494446,0.06861284375190735,0.4022001624107361,0.7453902363777161,0.6626030206680298,0.07315052300691605,0.028367817401885986,0.07975238561630249,-0.2091367244720459,0.5194936153999925,-0.7251967538222844,0.10327113884249609,0.43994464096636293
1728403804115800000,1.378800048828125,1.055567741394043,0.07150520384311676,0.34804078936576843,0.7478973269462585,0.6602779626846313,0.06843005120754242,0.004589855670928955,0.15573155879974365,-0.28359413146972656,0.5214339983486158,-0.7230953305491026,0.10652778246107163,0.4403312458703777
1728403804125831200,1.3888310546875,1.4140493869781494,0.09683042019605637,0.3061436712741852,0.7500023245811462,0.6586312055587769,0.06084037944674492,-0.048769354820251465,0.13543617725372314,-0.2615697383880615,0.525151164487147,-0.7198446122288602,0.11065226650432922,0.4402227618683735
1728403804135861200,1.398861328125,1.3362783193588257,0.2824956178665161,0.28587809205055237,0.7518351078033447,0.6572235226631165,0.052928514778614044,-0.08003634214401245,0.11401671171188354,-0.21065855026245117,0.5294672831971181,-0.7163598046568496,0.11529478592860783,0.4395455212667267
1728403804145892000,1.40889208984375,0.9176896214485168,0.3747660219669342,0.38857197761535645,0.7538402080535889,0.6552963256835938,0.048078473657369614,-0.10782897472381592,0.061973512172698975,-0.10018718987703323,0.5326062368525386,-0.7139051800902215,0.11991092967090862,0.4385103444177573
1728403804155923200,1.418923095703125,0.5960103869438171,0.42477673292160034,0.3725157678127289,0.7562428712844849,0.6526596546173096,0.04617706686258316,-0.09526258707046509,-0.10915684700012207,0.058467745780944824,0.534146111063804,-0.7125417956898205,0.12398678324340062,0.43772080188653806
1728403804165954000,1.4289541015625,0.6348563432693481,0.48241567611694336,0.33684274554252625,0.7582637071609497,0.6503382921218872,0.045785240828990936,-0.04355728626251221,-0.20180624723434448,0.059393640607595444,0.5352263540135339,-0.7117412230049975,0.12773821299724064,0.4366235640872694
1728403804175985200,1.438985107421875,0.9503524899482727,0.26167210936546326,0.37264227867126465,0.7604445219039917,0.6479429602622986,0.04352131858468056,-0.00023633241653442383,0.035437166690826416,0.06538069248199463,0.5370327289910689,-0.7102017726441795,0.13181085483077495,0.4357008678928797
1728403804186015200,1.44901513671875,1.141704797744751,0.16493192315101624,0.27972644567489624,0.7625269889831543,0.6458299160003662,0.03816249594092369,0.05065971612930298,0.11424082517623901,0.0317533016204834,0.5399108764117532,-0.7075585084232165,0.1358020773147634,0.4352183920924825
1728403804196046000,1.459046142578125,1.3722751140594482,0.2855859100818634,0.22420644760131836,0.7640540599822998,0.6443710327148438,0.03173748776316643,-0.01207047700881958,0.016044557094573975,-0.000517968088388443,0.5436525526108918,-0.7044624089774132,0.14000520553164741,0.4342500447348773
1728403804206077200,1.4690771484375,1.453325867652893,0.4605807363986969,0.25103089213371277,0.7654433250427246,0.643001914024353,0.0253999512642622,-0.06591933965682983,0.025714516639709473,-0.01670241355895996,0.5479073479675706,-0.701206858403616,0.1449445312290032,0.4325478046799155
1728403804216108000,1.47910791015625,1.2070937156677246,0.6331508755683899,0.3473457098007202,0.767237663269043,0.6410140991210938,0.021150365471839905,-0.08249950408935547,0.10871118307113647,0.01998734287917614,0.5514961717998959,-0.6985393485148488,0.15039269013968018,0.4304379487170088
1728403804226139100,1.48913916015625,1.083682894706726,0.7269504070281982,0.3382249176502228,0.769432783126831,0.6384466290473938,0.018949702382087708,-0.09099650382995605,0.10033810138702393,0.10878169536590576,0.5542648011482539,-0.6965025796669183,0.15607372581425424,0.4281537688142065
1728403804236169200,1.499169189453125,0.666245698928833,0.851898729801178,0.1307729035615921,0.770768404006958,0.6368175148963928,0.019481223076581955,-0.06904721260070801,-0.0818401575088501,0.02029847726225853,0.5561851086924475,-0.6955808913205379,0.16095911161402102,0.42534395650678497
1728403804246200000,1.509199951171875,0.4428039491176605,0.7695580720901489,0.11778546869754791,0.7713137269020081,0.6360597014427185,0.02242998592555523,-0.05538666248321533,-0.07330036163330078,0.1273045539855957,0.5571383295988387,-0.6957453219933942,0.16478300798121348,0.42235270619150966
1728403804256231200,1.519231201171875,0.20069333910942078,0.6549990177154541,0.06119170039892197,0.7718204259872437,0.6353191137313843,0.0257440023124218,0.05441248416900635,-0.027332782745361328,0.055219173431396484,0.5575062313646366,-0.6962037471529903,0.16784618932796078,0.4198985227355412
1728403804266262000,1.529261962890625,-0.32832232117652893,0.669500470161438,-0.19786329567432404,0.7711855173110962,0.6358484029769897,0.031136784702539444,0.10566073656082153,-0.1277155876159668,-0.029137855395674706,0.5569158115011882,-0.6977831691720132,0.16931344014869443,0.4174640999808118
1728403804276292000,1.5392919921875,-0.746545135974884,0.706926167011261,-0.2917490303516388,0.7692874073982239,0.6376484036445618,0.04001957178115845,0.032226383686065674,-0.163344144821167,0.08855104446411133,0.5549348237930293,-0.7009869624051109,0.16919534348862095,0.41477422146723075
1728403804286323000,1.549322998046875,-0.9242383241653442,0.72088223695755,-0.24104832112789154,0.7672666907310486,0.6393025517463684,0.05093389376997948,0.02117025852203369,-0.05577594041824341,0.1376190185546875,0.5518928811358011,-0.7050400403306059,0.16847993695960664,0.4122467653181902
1728403804296354000,1.55935400390625,-1.1374822854995728,0.7881762981414795,-0.2785365581512451,0.7652021646499634,0.6406712532043457,0.06329470127820969,0.03507572412490845,0.010695993900299072,0.05096317082643509,0.5481397280443178,-0.7096354699777362,0.1675256711017446,0.40975067093822193
1728403804306385200,1.56938525390625,-1.2274476289749146,0.8948469161987305,-0.36141225695610046,0.7625570893287659,0.6422683596611023,0.07744871824979782,-0.009230613708496094,0.045018017292022705,0.021992921829223633,0.5438155015171647,-0.7149026525752818,0.16624848322466523,0.40686662661229056
1728403804316416000,1.579416015625,-1.3051791191101074,0.9664207696914673,-0.45994868874549866,0.7591162323951721,0.6443213224411011,0.0926961824297905,-0.028159260749816895,0.02860647439956665,-0.01217544823884964,0.5393524400719055,-0.7205545792758699,0.16477010693266475,0.4034239268083848
1728403804326446000,1.589446044921875,-1.3769704103469849,0.9204070568084717,-0.49860021471977234,0.7549931406974792,0.6466559767723083,0.1087273433804512,-0.012057840824127197,0.004879117012023926,0.02881540358066559,0.5346422550100239,-0.7265255115338113,0.162862987767316,0.399742532044574
1728403804336477000,1.599476806640625,-1.2926435470581055,0.7943342924118042,-0.41451144218444824,0.7510486245155334,0.6485093832015991,0.12394190579652786,0.03844118118286133,0.0070996880531311035,0.044896721839904785,0.5299082661390239,-0.732205483562603,0.1607671687783668,0.39651773754809366
1728403804346508000,1.609508056640625,-1.3543996810913086,0.7922677993774414,-0.5287091135978699,0.7470182776451111,0.6502646803855896,0.13827501237392426,0.11810940504074097,-0.09666043519973755,-0.1063229888677597,0.5254249613846232,-0.7375535557708577,0.15859463500251467,0.39343522977493417
1728403804356539100,1.6195390625,-1.7407071590423584,0.8100529313087463,-0.5367955565452576,0.742222785949707,0.652114987373352,0.15443986654281616,0.06760698556900024,-0.16763311624526978,-0.017385363578796387,0.5201110732761142,-0.7436438174275184,0.15560785653789588,0.3902110292015796
1728403804366569000,1.62956884765625,-1.7969802618026733,0.7820761799812317,-0.3500954210758209,0.7380309104919434,0.6524533629417419,0.17208972573280334,0.04077768325805664,-0.15439128875732422,0.07304273545742035,0.5136353885076512,-0.7501885225052933,0.15251899522474505,0.38747101576711585
1728403804376600000,1.63960009765625,-1.7218670845031738,0.8429845571517944,-0.24203182756900787,0.734677255153656,0.6514203548431396,0.18947450816631317,0.09956645965576172,-0.16846448183059692,-0.06987610459327698,0.5069604877419773,-0.7564508275862769,0.15006465378303063,0.385037298911948
1728403804386631000,1.649630859375,-1.6715872287750244,0.8651140928268433,-0.2669390141963959,0.7313967347145081,0.6497625708580017,0.2070445418357849,0.08153051137924194,-0.15070867538452148,-0.09124554693698883,0.5002609911934043,-0.7626209639040816,0.14809301124269988,0.38238290695755445
1728403804396662000,1.659662109375,-1.615259051322937,0.7646793127059937,-0.27310237288475037,0.7278085350990295,0.648285984992981,0.22365210950374603,0.037343502044677734,-0.07676804065704346,0.07476413249969482,0.49392271575428415,-0.7684602137801209,0.14592791360966548,0.3797557042402844
1728403804406692900,1.66969287109375,-1.5010216236114502,0.7136202454566956,-0.14711996912956238,0.7246978878974915,0.6462178826332092,0.2391979992389679,0.04892277717590332,0.014701366424560547,0.07415652275085449,0.4877184222391157,-0.7738810048417848,0.14389992222155773,0.37753387956822215
1728403804416723000,1.679722900390625,-1.3181746006011963,0.7674599885940552,-0.0411360040307045,0.7223066091537476,0.6434014439582825,0.25358980894088745,0.10546743869781494,0.08142155408859253,0.0052908360958099365,0.4819074380641134,-0.778737052975233,0.14270078289993582,0.3754601678573758
1728403804426754000,1.689754150390625,-1.2594908475875854,0.7867053747177124,-0.010043598711490631,0.7201082706451416,0.6402019262313843,0.26755496859550476,0.0965726375579834,0.03852427005767822,-0.008399605751037598,0.47634976127693346,-0.7833193371975562,0.14208553976210245,0.3732471827335449
1728403804436785000,1.699784912109375,-1.249437689781189,0.6902837753295898,-0.06656359881162643,0.7178410291671753,0.6370051503181458,0.2809426486492157,0.06882584095001221,-0.027492821216583252,0.036486029624938965,0.4709614554915572,-0.7877037110807324,0.14140080800665922,0.3711118639741684
1728403804446816000,1.70981591796875,-1.3024075031280518,0.5485281348228455,-0.1317407339811325,0.7154332399368286,0.6340816020965576,0.29342103004455566,0.04938304424285889,-0.05452233552932739,0.0303095281124115,0.4656800676461348,-0.7918947309718347,0.1400473002215876,0.36936648842344516
1728403804456846000,1.71984619140625,-1.2677291631698608,0.5911824107170105,-0.1069997102022171,0.7129258513450623,0.6310997009277344,0.3056958317756653,0.044764578342437744,-0.04929739236831665,-0.0018322467803955078,0.46037700581416324,-0.7960320538211643,0.13849508605574493,0.36770250444999714
1728403804466877000,1.729876953125,-1.1575102806091309,0.5315504670143127,0.012963715940713882,0.7108489274978638,0.6276364922523499,0.31743741035461426,0.041439950466156006,-0.039227068424224854,0.015387415885925293,0.4551880754560078,-0.7999099981795293,0.13734152948028308,0.36617648799932345
1728403804476908000,1.739907958984375,-0.9326324462890625,0.44044584035873413,0.10502200573682785,0.7096931338310242,0.6237756609916687,0.327474981546402,0.02600938081741333,-0.018245816230773926,0.06008303165435791,0.4505167720425037,-0.8031365934515793,0.13678122943076032,0.36509896887306514
1728403804486939100,1.749939208984375,-0.7032492756843567,0.5167559385299683,0.11557025462388992,0.7088640928268433,0.6202464699745178,0.335866779088974,0.0069869160652160645,0.010094225406646729,-0.04701772332191467,0.44669281605397104,-0.8057438312602047,0.13678550789726818,0.36404989504135177
1728403804496970200,1.75997021484375,-0.5657076835632324,0.6697204113006592,0.06668100506067276,0.7074164748191833,0.6174644827842712,0.3439474105834961,-0.030612826347351074,0.02267235517501831,-0.1083974540233612,0.4436009437820713,-0.8081491647340051,0.13736314420472803,0.36227694910336894
1728403804507000000,1.77,-0.5805126428604126,0.6859891414642334,0.025689363479614258,0.7052956223487854,0.6151670217514038,0.3523178994655609,-0.050128936767578125,0.01950705051422119,-0.02193450927734375,0.4407441187637719,-0.8106192258966947,0.13804135538238818,0.35998021722391277
1728403804517031200,1.78003125,-0.6107310056686401,0.6076943278312683,0.04370378330349922,0.70316082239151,0.6128020882606506,0.3606088161468506,-0.01035076379776001,0.010824620723724365,0.06805646419525146,0.437800446008076,-0.8130880568430883,0.1385359709857308,0.35780786667567044
1728403804527062300,1.790062255859375,-0.6271685361862183,0.47559764981269836,0.09652198851108551,0.7016238570213318,0.6100504994392395,0.36818790435791016,0.05408293008804321,0.0023914575576782227,0.12796685099601746,0.4347736605646469,-0.8153560124621295,0.13888313103133895,0.3561992552247265
1728403804537093000,1.800093017578125,-0.5851995348930359,0.42337706685066223,0.15808282792568207,0.7007690072059631,0.6068322658538818,0.37507036328315735,0.09905099868774414,0.02550727128982544,0.14795523881912231,0.4317132836302529,-0.8173929618977562,0.1392980055065329,0.3550895655043613
1728403804547123200,1.810123291015625,-0.43848857283592224,0.34712234139442444,0.14376993477344513,0.7002320289611816,0.6038079857826233,0.38090869784355164,0.10173952579498291,0.07821416854858398,0.1078762412071228,0.42905788129098904,-0.8190844193319687,0.1398394236425672,0.3541964785517954
1728403804557154300,1.820154296875,-0.24253636598587036,0.32312434911727905,0.11546718329191208,0.6997376084327698,0.6015709042549133,0.38533079624176025,0.042510986328125,0.12628859281539917,0.09129273891448975,0.42717904979689536,-0.8203228996581422,0.14048394976153514,0.3533450154773532
1728403804567185200,1.83018505859375,0.029354935511946678,0.3063802421092987,0.07723351567983627,0.6991069316864014,0.6004498600959778,0.38821297883987427,-0.020029842853546143,0.17510855197906494,0.029847323894500732,0.4263159753689491,-0.8210527579082396,0.14134659575884673,0.35234659654488937
1728403804577216300,1.84021630859375,0.31555020809173584,0.34350019693374634,0.023706907406449318,0.6981781721115112,0.6007744669914246,0.3893808424472809,-0.06525880098342896,0.20839911699295044,-0.0691598653793335,0.4267366314641976,-0.8211949564522768,0.14258071690104668,0.3510063794545109
1728403804587247000,1.8502470703125,0.4990510046482086,0.3598453402519226,-0.08833121508359909,0.6966080069541931,0.6025918126106262,0.38938456773757935,-0.08685153722763062,0.22473961114883423,-0.17017677426338196,0.42823120258212893,-0.8209574692039935,0.143948323048925,0.3491786840547353
1728403804597277200,1.860277099609375,0.5129374861717224,0.32982537150382996,-0.1797761768102646,0.6944419145584106,0.6055708527565002,0.3886314630508423,-0.10546791553497314,0.21596235036849976,-0.17029333114624023,0.4303597155735289,-0.8205369136777191,0.1450341754616089,0.34709480241107543
1728403804607308000,1.87030810546875,0.2970581352710724,0.3154546916484833,-0.21939921379089355,0.6919592618942261,0.6085938215255737,0.3883378207683563,-0.10971426963806152,0.17811888456344604,-0.07910305261611938,0.43218931892470264,-0.8203419631167821,0.14562958142545065,0.34502693224690517
1728403804617339100,1.880339111328125,0.046459220349788666,0.2542392611503601,-0.2197989523410797,0.6894818544387817,0.6107380390167236,0.3893761932849884,-0.09091007709503174,0.11918139457702637,0.046658992767333984,0.4330158255332935,-0.8206566235416546,0.14563931366291136,0.34323345169904934
1728403804627370200,1.890370361328125,0.05763457715511322,0.16111811995506287,-0.23666130006313324,0.687279999256134,0.6124173998832703,0.3906289339065552,-0.05758035182952881,0.041269004344940186,0.1086844801902771,0.43338517380380387,-0.8211100947594681,0.14523316861554844,0.34185197142011026
1728403804637400000,1.900400146484375,0.12292862683534622,0.02194957621395588,-0.25325384736061096,0.685407817363739,0.6145142912864685,0.39062556624412537,-0.025541484355926514,-0.01756000518798828,0.06083628535270691,0.43415381400540143,-0.8212258466055945,0.14457139239227806,0.3408778193972595
1728403804647431200,1.91043115234375,0.14817185699939728,0.0242910273373127,-0.2349424958229065,0.6838333010673523,0.6167082190513611,0.3899270296096802,-0.002070605754852295,0.0018525123596191406,0.0003471076488494873,0.43509382819517256,-0.8211473182463745,0.14380750470814743,0.3401909429508285
1728403804657462000,1.9204619140625,0.2413947433233261,-0.026950852945446968,-0.20884005725383759,0.6824105381965637,0.6189994812011719,0.3887878656387329,0.00504380464553833,0.0497170090675354,-0.022958219051361084,0.43627367195595546,-0.8208976298918119,0.14325156257802124,0.33951660549445073
1728403804667493000,1.9304931640625,0.2976730763912201,-0.1500488817691803,-0.19445525109767914,0.6815071105957031,0.6214539408683777,0.38644957542419434,-0.02200692892074585,0.02786850929260254,0.04111704230308533,0.4378150219495269,-0.8202842894970689,0.14268313467719354,0.3392539953453626
1728403804677524000,1.94052392578125,0.21195337176322937,-0.181827574968338,-0.16220757365226746,0.6810458302497864,0.6237101554870605,0.3836175799369812,-0.0532991886138916,-0.03778785467147827,0.042117953300476074,0.4393381738627193,-0.8195355965861932,0.14202182283791454,0.33937182904736607
1728403804687554000,1.950553955078125,0.12757490575313568,-0.1685553789138794,-0.13983941078186035,0.6807794570922852,0.6253536343574524,0.3814084529876709,-0.08211606740951538,-0.10106164216995239,0.023941397666931152,0.4403870143651385,-0.8189850396166655,0.1413072122820203,0.33963974133239017
1728403804697585200,1.960585205078125,0.0341954305768013,-0.20495015382766724,-0.1393006592988968,0.6806107759475708,0.626630961894989,0.3796086013317108,-0.1056290864944458,-0.1431562304496765,0.04817163944244385,0.44111134343358105,-0.8185770609672698,0.14048451318634225,0.34002429212714935
1728403804707616000,1.970615966796875,-0.04238429665565491,-0.24261662364006042,-0.1523006111383438,0.6805634498596191,0.6275618672370911,0.3781528174877167,-0.10217905044555664,-0.12747037410736084,0.0105343759059906,0.4414582658251302,-0.8183233518845181,0.13936750956711266,0.34064381116382597
1728403804717647000,1.980647216796875,0.0065773855894804,-0.3245064318180084,-0.18078525364398956,0.6805787086486816,0.6286174654960632,0.3763677477836609,-0.06439828872680664,-0.08075070381164551,-0.0177251398563385,0.44185262930615876,-0.8180048126381112,0.13802897502141023,0.34144162080860685
1728403804727677200,1.99067724609375,0.03214526176452637,-0.40267226099967957,-0.15884612500667572,0.680850625038147,0.6299037337303162,0.37371623516082764,-0.022723793983459473,-0.05957597494125366,-0.0026529133319854736,0.44249915128988926,-0.8174459475618169,0.1365292559734789,0.34254404953765244
1728403804737708000,2.0007080078125,0.06635330617427826,-0.4297883212566376,-0.07235144823789597,0.6816670298576355,0.630890965461731,0.37054941058158875,0.025699913501739502,-0.04589951038360596,0.011988520622253418,0.4431880642861064,-0.8166973473991922,0.13520408968075356,0.34396179401382765
1728403804747739100,2.0107392578125,0.06947299838066101,-0.4019460380077362,0.025245681405067444,0.683078944683075,0.6312974691390991,0.3672422170639038,0.046459078788757324,-0.05437791347503662,0.04923117160797119,0.44378731533902915,-0.8158355465100955,0.13428878044975448,0.3455890224042481
1728403804757770000,2.02077001953125,0.15469840168952942,-0.375287801027298,0.08743289113044739,0.6848909854888916,0.6312699913978577,0.3638991713523865,0.0378262996673584,-0.09521347284317017,0.07427224516868591,0.44438337303401027,-0.814879704429465,0.13386806694870776,0.3472374335141165
1728403804767801000,2.030801025390625,0.15205036103725433,-0.3625240623950958,0.08089962601661682,0.686795175075531,0.6312644481658936,0.36030226945877075,0.027346670627593994,-0.14284580945968628,0.05908560752868652,0.44515862664674233,-0.8138028341431098,0.13370144009569032,0.34883048685143253
1728403804777831200,2.0408310546875,0.04167724773287773,-0.3683971166610718,0.05792613327503204,0.6885398626327515,0.6311150789260864,0.357220858335495,0.02857750654220581,-0.14466488361358643,0.03340423107147217,0.4456573782915438,-0.8129143132613907,0.13334449161973042,0.35039852526634513
1728403804787862000,2.050862060546875,0.054586656391620636,-0.4227774143218994,0.06636063009500504,0.6903166174888611,0.630845308303833,0.35425564646720886,0.051855623722076416,-0.11370980739593506,0.03650674223899841,0.4459794989404955,-0.8120932588685104,0.13278692649723792,0.3521000231192889
1728403804797893000,2.06089306640625,0.06984417140483856,-0.534582257270813,0.08487652242183685,0.6924845576286316,0.6305533647537231,0.35052505135536194,0.06987518072128296,-0.10589516162872314,0.05589282512664795,0.44643211466202404,-0.8110488948242094,0.13214467302221028,0.35416932601690915
1728403804807924000,2.070924072265625,0.0017187809571623802,-0.6090729832649231,0.11678624898195267,0.6951248049736023,0.6299770474433899,0.3463093936443329,0.06898951530456543,-0.10657018423080444,0.0723002552986145,0.4467771810855566,-0.8098800739928246,0.13133531924602626,0.3567006822091578
1728403804817955000,2.080955078125,-0.019117791205644608,-0.6287135481834412,0.14915591478347778,0.6981256604194641,0.6289983987808228,0.34202587604522705,0.05047053098678589,-0.10301268100738525,0.07279965281486511,0.4468957856534921,-0.808698891403221,0.13045703117889887,0.3595431304773803
1728403804827985200,2.090985107421875,-0.00006660213693976402,-0.5558957457542419,0.16275453567504883,0.7011516690254211,0.6278486847877502,0.3379242718219757,0.01645416021347046,-0.1207227110862732,0.04667362570762634,0.4469497904156465,-0.8075451395663785,0.12974196142477748,0.36231743951860296
1728403804838016000,2.10101611328125,-0.06794019788503647,-0.5039201378822327,0.14234167337417603,0.7039042711257935,0.6266875267028809,0.33433783054351807,-0.010911047458648682,-0.13721615076065063,0.010251522064208984,0.4469207591397111,-0.8065311483049611,0.12913722378513467,0.36481917154017085
1728403804848047000,2.111047119140625,-0.1895526498556137,-0.47135239839553833,0.10837306082248688,0.7062956094741821,0.6253559589385986,0.3317781686782837,-0.012142658233642578,-0.12411993741989136,0.0015958845615386963,0.44646007582237457,-0.8058679883400136,0.12831942082962003,0.3671299735354902
1728403804858078000,2.121077880859375,-0.23126307129859924,-0.5304942727088928,0.08899323642253876,0.7085493803024292,0.6239532828330994,0.3296060860157013,0.023979365825653076,-0.08621835708618164,-0.0015573501586914062,0.44573044078957913,-0.8053703737238438,0.12720694291710644,0.36948798496763496
1728403804868108000,2.13110791015625,-0.16441267728805542,-0.5917137265205383,0.11212199181318283,0.7110244035720825,0.6225776076316833,0.32686612010002136,0.06338965892791748,-0.0611153244972229,0.009834378957748413,0.4450784261918968,-0.8047153264406847,0.12596153655137224,0.37211847569273143
1728403804878139100,2.14113916015625,-0.07980377227067947,-0.61229407787323,0.15759333968162537,0.7138171195983887,0.6212387084960938,0.32330697774887085,0.08536189794540405,-0.0492478609085083,-0.009601503610610962,0.4447312009192877,-0.8037684050466753,0.1249393304145573,0.37491415053814725
1728403804888170000,2.151169921875,-0.1053687259554863,-0.5753846168518066,0.20244576036930084,0.716903805732727,0.6196265816688538,0.31954991817474365,0.07225030660629272,-0.035474300384521484,0.0039517879486083984,0.44438808619105247,-0.802721178009438,0.12415178304066075,0.3778152982739229
1728403804898201000,2.161201171875,-0.04116523638367653,-0.4689764082431793,0.2176358997821808,0.7198700308799744,0.6178354620933533,0.3163334131240845,0.037942588329315186,-0.022879958152770996,0.015820056200027466,0.44398163237931104,-0.8017870387341797,0.1237103608130107,0.38041257993188266
1728403804908232000,2.17123193359375,-0.05351385101675987,-0.38242533802986145,0.18950892984867096,0.7224979400634766,0.6162511110305786,0.31341925263404846,0.00006681680679321289,-0.028314709663391113,0.011425167322158813,0.44372303458625917,-0.8009093660921849,0.12350635559567373,0.38262301197649384
1728403804918262000,2.181261962890625,-0.14349381625652313,-0.268105149269104,0.15802396833896637,0.7245741486549377,0.6146684885025024,0.3117294907569885,0.0021715164184570312,0.000749051570892334,-0.028373688459396362,0.4431779089951719,-0.8004134183630589,0.12330085835648891,0.38435494403015635
1728403804928292900,2.19129296875,-0.13992716372013092,-0.2693783640861511,0.13718420267105103,0.7263229489326477,0.6131278276443481,0.3106917142868042,0.04116368293762207,0.051972270011901855,-0.0451430082321167,0.4424622473956568,-0.800133448762154,0.1230135193449223,0.3858514223190289
1728403804938324000,2.201323974609375,-0.09013430774211884,-0.30852097272872925,0.15202759206295013,0.728075385093689,0.6117367148399353,0.3093292713165283,0.08366173505783081,0.07121622562408447,-0.01800847053527832,0.44190477407659345,-0.7997499906233116,0.12273788771748603,0.38737011711831404
1728403804948355600,2.21135546875,-0.08334863930940628,-0.407379686832428,0.19486667215824127,0.7302586436271667,0.6101951003074646,0.3072206377983093,0.10706746578216553,0.0688667893409729,0.007247805595397949,0.4414442379516186,-0.7991306964945122,0.12247629991873969,0.38925155213685975
1728403804958385400,2.221385498046875,-0.08678651601076126,-0.40667393803596497,0.21780847012996674,0.7328044176101685,0.6084058284759521,0.3046971559524536,0.09599202871322632,0.06227898597717285,0.05423545837402344,0.4409512610089709,-0.7983788492899366,0.12222842920449159,0.39142498334884457
1728403804968416800,2.231416748046875,-0.07022058963775635,-0.31058987975120544,0.19659213721752167,0.7352011799812317,0.6066065430641174,0.3025025725364685,0.046888113021850586,0.05661672353744507,0.02992546558380127,0.4404390271899365,-0.7977090720049066,0.12211273387519252,0.39339826475505846
1728403804978447600,2.241447509765625,-0.12227313220500946,-0.2191331833600998,0.1258135735988617,0.7369962334632874,0.6051329374313354,0.3010828197002411,-0.015118122100830078,0.06030285358428955,-0.016216397285461426,0.4399287525058473,-0.7972791151707134,0.12201403101786254,0.39486878895474226
1728403804988478700,2.251478759765625,-0.17175507545471191,-0.0838422104716301,0.055231012403964996,0.7379783987998962,0.6040223836898804,0.3009073734283447,-0.057161569595336914,0.08178400993347168,-0.08856600522994995,0.4392293979800064,-0.7972686516459647,0.12172259880820827,0.3957575255458323
1728403804998509600,2.261509521484375,-0.03025519661605358,-0.04407322406768799,0.03111875057220459,0.738372802734375,0.6034101247787476,0.30116769671440125,-0.061218202114105225,0.09577810764312744,-0.15442383289337158,0.4387464229492911,-0.7973793466946094,0.12153197056087776,0.3961284862676791
1728403805008539600,2.27153955078125,0.15184757113456726,-0.052583299577236176,0.07009518146514893,0.7388034462928772,0.6032460331916809,0.3004395067691803,-0.04825162887573242,0.07931011915206909,-0.1583648920059204,0.4389365121504127,-0.7971170476756202,0.12175453442860118,0.39637742562814227
1728403805018570800,2.28157080078125,0.22168123722076416,-0.09575367718935013,0.11000876873731613,0.7396116852760315,0.6031303405761719,0.2986783981323242,-0.03857707977294922,0.0738869309425354,-0.15002712607383728,0.43957660011913363,-0.7964732818061091,0.1223499367147483,0.39677876182572247
1728403805028601600,2.2916015625,0.20647192001342773,-0.004952345043420792,0.10628487169742584,0.7404709458351135,0.602933943271637,0.29694023728370667,-0.057502806186676025,0.08325380086898804,-0.10921132564544678,0.44024236086358864,-0.7958132675696071,0.12309085083717722,0.3971354660473585
1728403805038632700,2.3016328125,0.2260429561138153,0.08571390807628632,0.06384207308292389,0.7408666014671326,0.6029277443885803,0.29596391320228577,-0.09749507904052734,0.0857928991317749,-0.08420246839523315,0.4409004668299619,-0.7953711229138914,0.1239626545323179,0.39701982394906365
1728403805048662800,2.311662841796875,0.28652381896972656,0.19296792149543762,0.023992132395505905,0.7407182455062866,0.6033565998077393,0.29546108841896057,-0.12494981288909912,0.07485073804855347,-0.06937161087989807,0.4417347012709125,-0.7950600770084983,0.1249400563882124,0.3964087421491533
1728403805058693600,2.321693603515625,0.3734470009803772,0.26419734954833984,0.01505056768655777,0.7401386499404907,0.6042112708091736,0.2951669692993164,-0.11469614505767822,0.07750564813613892,-0.1063089668750763,0.44287191377006035,-0.7947736042702006,0.1261681433523605,0.3953239137851416
1728403805068724700,2.331724853515625,0.42672985792160034,0.3107990026473999,0.039028070867061615,0.73942631483078,0.6052162051200867,0.29489365220069885,-0.08528196811676025,0.08101731538772583,-0.10302960872650146,0.44424560822994696,-0.7944388182351052,0.12772547638949985,0.39395314206634724
1728403805078755600,2.341755615234375,0.4616537392139435,0.36178335547447205,0.051002178341150284,0.7387304306030273,0.6061902046203613,0.2946374714374542,-0.04733932018280029,0.08298832178115845,-0.08775874972343445,0.4457120415333497,-0.7940677847817228,0.12951867092930625,0.39245664766304184
1728403805088786700,2.35178662109375,0.5108181834220886,0.4169212877750397,0.043664902448654175,0.7378608584403992,0.6072741150856018,0.29458343982696533,-0.01729506254196167,0.07877624034881592,-0.11033359169960022,0.44730344062016086,-0.7937161560023792,0.13155374861867283,0.3906761526609448
1728403805098816500,2.36181640625,0.5611157417297363,0.4650459289550781,0.018575528636574745,0.7367678880691528,0.6086045503616333,0.29457327723503113,0.0036495327949523926,0.06269055604934692,-0.09393540024757385,0.449072553893594,-0.7933509323241037,0.13371960865771643,0.38864786937455015
1728403805108847600,2.37184765625,0.5780662894248962,0.4632110297679901,-0.0019941949285566807,0.7354124188423157,0.6102660894393921,0.29452306032180786,0.028213679790496826,0.048623621463775635,-0.056394368410110474,0.4510357229007994,-0.7929606406905119,0.13592262145511128,0.3864003136146567
1728403805118878700,2.381878662109375,0.559561014175415,0.405656635761261,-0.008671805262565613,0.7341111898422241,0.6119661331176758,0.2942415773868561,0.05621778964996338,0.04278844594955444,0.013329833745956421,0.4529951074536858,-0.7925166642787163,0.13797873868466537,0.3842845433747438
1728403805128909600,2.39190966796875,0.5074255466461182,0.3157881200313568,-0.02453758753836155,0.7329362630844116,0.6136821508407593,0.2935962677001953,0.08514845371246338,0.022533059120178223,0.06297120451927185,0.4549282802269708,-0.7919946968131963,0.13979460694570794,0.38241620814100286
1728403805138939600,2.401939697265625,0.31638026237487793,0.20054063200950623,-0.01901126094162464,0.7320519089698792,0.6150621771812439,0.2929134666919708,0.07910531759262085,-0.016414225101470947,0.11899754405021667,0.45643958784661165,-0.7915494411548576,0.1410893723593845,0.38105916724328665
1728403805148970500,2.411970458984375,0.15827736258506775,0.04951079189777374,0.0057334997691214085,0.7316582798957825,0.615791380405426,0.2923651933670044,0.0625770092010498,-0.054893553256988525,0.14016056060791016,0.45726798000225016,-0.7912597267661594,0.1417414591134815,0.38042540016964804
1728403805159001600,2.422001708984375,0.1933293491601944,0.2128368616104126,-0.001360895112156868,0.7312777042388916,0.6162981390953064,0.2922498881816864,0.06253039836883545,-0.11822068691253662,-0.02424439787864685,0.45788384522156605,-0.7911021786675793,0.14241586997913624,0.37975996457939976
1728403805169032400,2.432032470703125,0.13786357641220093,0.17783750593662262,0.061942972242832184,0.7309089303016663,0.616515576839447,0.2927124798297882,0.06320422887802124,-0.1657862663269043,-0.1732514202594757,0.4583063621491447,-0.791088541558605,0.14330095648443036,0.3789445898049142
1728403805179063600,2.4420634765625,0.10012204945087433,0.1316412389278412,0.061669737100601196,0.7308109998703003,0.6164517402648926,0.2930917739868164,0.07697409391403198,-0.1694607138633728,-0.12062153220176697,0.458596368544249,-0.7910500016984126,0.14417274952636483,0.37834323100058287
1728403805189093600,2.45209375,-0.0028792330995202065,0.014087285846471786,0.08208579570055008,0.7310584187507629,0.6159940958023071,0.2934369742870331,0.12193846702575684,-0.14980751276016235,-0.19947323203086853,0.4585102372521245,-0.7910687626593061,0.14466753521998968,0.378219540449366
1728403805199124500,2.46212451171875,0.2604099214076996,0.27088844776153564,0.053412336856126785,0.7309948801994324,0.6158866286277771,0.29382023215293884,0.1516956090927124,-0.1303977370262146,-0.14121699333190918,0.4588027130240998,-0.7910195639523676,0.14559589848291368,0.3776109305049823
1728403805209155600,2.472155517578125,0.15631261467933655,0.02130141668021679,0.15192240476608276,0.7312313914299011,0.6157112717628479,0.29359906911849976,0.08091765642166138,-0.0943489670753479,0.07180321216583252,0.459274920527384,-0.7907531456530308,0.14665945464305258,0.37718306908879284
1728403805219186400,2.4821865234375,0.2132323533296585,0.10913673043251038,0.06444741040468216,0.7317207455635071,0.6155378818511963,0.2927423417568207,-0.004425764083862305,-0.02334427833557129,0.3657355308532715,0.45986941694099576,-0.7902990860575483,0.14764325918526336,0.37702658025212393
1728403805229216500,2.492216552734375,0.026819273829460144,0.09814213216304779,0.038974277675151825,0.7317944169044495,0.6154050230979919,0.29283732175827026,-0.08524894714355469,0.023465216159820557,0.2780550718307495,0.4600521446322387,-0.7902211812700053,0.14821992764469874,0.37674048902534063
1728403805239247600,2.50224755859375,0.23761965334415436,0.3736408054828644,-0.05867664888501167,0.7309879064559937,0.6159583926200867,0.29368722438812256,-0.16868621110916138,0.02802354097366333,0.431502103805542,0.46048860279349363,-0.790345672040192,0.14898768920146124,0.37564172357026016
1728403805249278500,2.512278564453125,0.11364598572254181,0.3551299273967743,0.010640373453497887,0.729690670967102,0.6166976690292358,0.2953566312789917,-0.19180309772491455,0.006333887577056885,0.23468801379203796,0.4609742180943725,-0.7906634250068337,0.15009882889927414,0.37393110033410465
1728403805259309600,2.5223095703125,0.08014874160289764,0.324288934469223,0.07868839800357819,0.7290078401565552,0.6166126728057861,0.2972143590450287,-0.13403719663619995,0.0004984736442565918,0.1717493236064911,0.46098563673770077,-0.7910392461555615,0.15120877411477104,0.3726728560741933
1728403805269340400,2.53234033203125,0.07014311105012894,0.35617583990097046,0.13090047240257263,0.7286067008972168,0.6160913705825806,0.29927173256874084,-0.03173786401748657,-0.05649060010910034,-0.11941638588905334,0.46084115017752203,-0.7914272281835402,0.15257395812150046,0.37146941109646364
1728403805279370500,2.54237060546875,0.07872940599918365,0.3138907253742218,0.1906311810016632,0.7286034226417542,0.6151005625724792,0.3013107180595398,0.029056429862976074,-0.1110876202583313,-0.2244827151298523,0.46054869475900584,-0.791769949086629,0.1541288493763324,0.37045844269127304
1728403805289401600,2.552401611328125,0.04874268174171448,0.13642193377017975,0.22406449913978577,0.7291537523269653,0.6137889623641968,0.30265092849731445,0.04303240776062012,-0.10960817337036133,-0.08817344903945923,0.46026334840812366,-0.7918913559444676,0.15567128740578637,0.3699081822455641
1728403805299432400,2.562432373046875,-0.04837428033351898,-0.047549497336149216,0.17384128272533417,0.7303531169891357,0.6122639775276184,0.3028486371040344,0.026376068592071533,-0.05386859178543091,0.007774621248245239,0.4598527962344498,-0.7917795316687435,0.15655507461702756,0.37028524006953306
1728403805309463600,2.572463623046875,-0.14854808151721954,0.0266144759953022,0.05803185701370239,0.7310941219329834,0.6111424565315247,0.303325891494751,-0.008651435375213623,0.019030332565307617,0.03200140595436096,0.45926795462289993,-0.7918857416213286,0.15677982574975363,0.37068872836676414
1728403805319493600,2.58249365234375,-0.1499084234237671,0.11248490959405899,-0.02755388431251049,0.7309631109237671,0.6105638146400452,0.3048032224178314,-0.07359915971755981,0.07351821660995483,0.03940463066101074,0.4585632750788367,-0.792367199773744,0.15670301118637645,0.37056470042797607
1728403805329524500,2.5925244140625,-0.15850038826465607,0.11032332479953766,-0.06265940517187119,0.7303057312965393,0.610469400882721,0.30656325817108154,-0.09947681427001953,0.09216731786727905,0.03590512275695801,0.4579661292525472,-0.7929657749962639,0.15648293447794992,0.3701155720919761
1728403805339555600,2.6025556640625,-0.037773702293634415,0.20748156309127808,-0.06508341431617737,0.7294451594352722,0.610611081123352,0.30832454562187195,-0.06460440158843994,0.08100879192352295,-0.07835924625396729,0.45754287238353963,-0.7935415074567067,0.15637822469108473,0.3694486476478545
1728403805349586400,2.61258642578125,0.15078821778297424,0.3223906457424164,-0.021568961441516876,0.7283362150192261,0.6111001372337341,0.30997270345687866,-0.014362215995788574,0.044234275817871094,-0.13025465607643127,0.45762998737295996,-0.7939514010910199,0.1569316022024102,0.36822341304283596
1728403805359617500,2.622617431640625,0.1253204047679901,0.22374768555164337,0.012907788157463074,0.7274130582809448,0.6116197109222412,0.31111401319503784,0.014072656631469727,0.011473000049591064,-0.04135379195213318,0.4580446281645478,-0.7941215318911082,0.15788604580710358,0.36693081803152516
1728403805369647600,2.632647705078125,-0.06472722440958023,0.05388157069683075,-0.012650568038225174,0.7270562648773193,0.6116369962692261,0.3119127154350281,0.04729682207107544,0.008815944194793701,0.04828634858131409,0.458014898884573,-0.7943020442061763,0.15824226163861602,0.3664233601985127
1728403805379678500,2.642678466796875,-0.040022142231464386,0.09927567839622498,-0.080437071621418,0.7265510559082031,0.6117755174636841,0.3128173351287842,0.08955013751983643,-0.012623846530914307,-0.010815352201461792,0.4577878047976428,-0.79461569030466,0.15809672242895553,0.36608990425993293
1728403805389709600,2.65270947265625,0.07774317264556885,0.09676240384578705,-0.05951527878642082,0.7257375121116638,0.6123924851417542,0.313497930765152,0.08587759733200073,-0.058498382568359375,-0.0408843457698822,0.4579187908178787,-0.7948327956642721,0.15808159993779783,0.36546079112132807
1728403805399740700,2.66274072265625,0.16264821588993073,-0.02002892643213272,0.0059920926578342915,0.7254674434661865,0.6129695177078247,0.31299492716789246,0.08004415035247803,-0.061470985412597656,0.042702823877334595,0.4584326804946246,-0.7946331853232804,0.15828949143614254,0.3651604943933786
1728403805409770500,2.6727705078125,0.18908780813217163,0.015251459553837776,0.008939413353800774,0.7253128886222839,0.6137089133262634,0.31190213561058044,0.09532016515731812,-0.03164708614349365,-0.0067567527294158936,0.4591870316052384,-0.7942441214470749,0.1585160583060175,0.3649607418957832
1728403805419801600,2.682801513671875,0.27103593945503235,0.09815087169408798,-0.020102357491850853,0.7249497771263123,0.6147923469543457,0.3106093406677246,0.07065874338150024,-0.02209526300430298,-0.041963011026382446,0.460241892808176,-0.7937586552393909,0.1589083769247196,0.3645171083858842
1728403805429832400,2.69283251953125,0.38217592239379883,0.18416611850261688,-0.04246252402663231,0.7242937684059143,0.6163171529769897,0.3091146647930145,0.03826427459716797,-0.051772475242614746,-0.021318554878234863,0.46173134691168755,-0.7931386028725154,0.15965116739851967,0.3636576676104692
1728403805439863800,2.70286376953125,0.29580748081207275,0.12503330409526825,-0.021138327196240425,0.7237138748168945,0.6176677346229553,0.3077739477157593,0.03971385955810547,-0.08089417219161987,-0.015583306550979614,0.46314440197773815,-0.792543460669553,0.1605049261709447,0.36278135476074
1728403805449894700,2.712894775390625,0.3005562126636505,0.21669866144657135,0.002396558877080679,0.7232314944267273,0.6183816194534302,0.3074740767478943,0.06850123405456543,-0.10095608234405518,0.0468350350856781,0.4639955425754674,-0.7922639038976068,0.16141542558044494,0.3618992570444149
1728403805459924500,2.722924560546875,0.5045194625854492,0.2955215871334076,-0.007766330149024725,0.7226652503013611,0.619369626045227,0.30681663751602173,0.08199179172515869,-0.13365191221237183,0.05858564376831055,0.4653440977967101,-0.7917490327387354,0.16291648420805216,0.360619820719639
1728403805469955600,2.73295556640625,0.6739202737808228,0.1331179141998291,0.013286756351590157,0.7220516204833984,0.62113356590271,0.3046882450580597,0.03400623798370361,-0.14496773481369019,0.23361137509346008,0.46750331386892774,-0.7907461660458981,0.16451330462097527,0.35930023721671983
1728403805479986700,2.742986572265625,0.43661078810691833,-0.09443455934524536,-0.019830450415611267,0.7219876050949097,0.6229116916656494,0.30118975043296814,-0.025179684162139893,-0.09675806760787964,0.3847386837005615,0.46979004329119517,-0.7894153928747735,0.16558447313069813,0.3587513816474971
1728403805490017500,2.753017578125,0.18726514279842377,-0.08688609302043915,-0.13336074352264404,0.7218582034111023,0.6243680715560913,0.29847192764282227,-0.08187401294708252,-0.011681914329528809,0.29683446884155273,0.4712244446397669,-0.7885559503071049,0.16557621605831638,0.35876407258539844
1728403805500047600,2.763047607421875,0.043135661631822586,0.11989797651767731,-0.19675356149673462,0.7207445502281189,0.6259246468544006,0.29790282249450684,-0.10648655891418457,0.01019906997680664,0.028940588235855103,0.4719398579229731,-0.7884714696306374,0.16511860853160465,0.35821994856135614
1728403805510078700,2.77307861328125,-0.03022870048880577,0.27730900049209595,-0.1913476139307022,0.7188971042633057,0.6273770332336426,0.29930785298347473,-0.08973139524459839,-0.028927326202392578,-0.20418453216552734,0.4721648946744643,-0.7889752005738039,0.16483951016729237,0.3569403804152409
1728403805520109600,2.783109619140625,-0.13844464719295502,0.19128571450710297,-0.11436361074447632,0.717156171798706,0.6282216906547546,0.30170294642448425,-0.03763645887374878,-0.04791468381881714,-0.2453063726425171,0.47186690059403796,-0.7897739820884628,0.1646466913689501,0.3556546126191139
1728403805530140700,2.793140625,-0.0703829750418663,-0.0022163204848766327,-0.07155542820692062,0.7163260579109192,0.6285175085067749,0.30305591225624084,0.00909203290939331,-0.005333304405212402,-0.13487350940704346,0.47150444381994433,-0.7902732186858322,0.1643052117012836,0.3551839868541379
1728403805540171500,2.803171630859375,0.08847325295209885,-0.11657192558050156,-0.06713271886110306,0.7161057591438293,0.628982663154602,0.3026110827922821,0.014393508434295654,0.07427960634231567,-0.06825128197669983,0.4716707448452764,-0.7902161979764979,0.16390210922685788,0.3552762397386389
1728403805550201600,2.81320166015625,0.29994329810142517,-0.1123538538813591,-0.11576683074235916,0.7159015536308289,0.6302492022514343,0.30045145750045776,-0.03845703601837158,0.15686017274856567,-0.03389561176300049,0.47274285160554663,-0.7895897261442973,0.1636270002670116,0.3553709836498732
1728403805560232700,2.823232666015625,0.35697221755981445,-0.053634077310562134,-0.1825897991657257,0.7152198553085327,0.6322765350341797,0.29780322313308716,-0.10793536901473999,0.21319758892059326,-0.03498584032058716,0.4743622270229276,-0.7887895011372544,0.16344030862854272,0.35507575222483595
1728403805570263600,2.833263671875,0.24352742731571198,0.05685919523239136,-0.22724036872386932,0.7139192223548889,0.6347051858901978,0.2957509160041809,-0.1450563669204712,0.20541316270828247,-0.05067947506904602,0.4759798753999589,-0.7881983854983257,0.1631525824942915,0.3543553028416467
1728403805580294700,2.843294677734375,0.13618312776088715,0.1314554065465927,-0.21326489746570587,0.7121998071670532,0.6368117928504944,0.2953682243824005,-0.14622074365615845,0.12936252355575562,-0.055957794189453125,0.47698822313808725,-0.788140616197368,0.1628449751044579,0.35326786658458137
1728403805590325500,2.853325439453125,0.06348900496959686,0.14699958264827728,-0.18397492170333862,0.7105162143707275,0.6385324001312256,0.29570838809013367,-0.10632908344268799,0.01913672685623169,-0.016991227865219116,0.47763465210032185,-0.7883023540764249,0.1625840915958686,0.3521520594840012
1728403805600355600,2.86335546875,-0.03202739730477333,0.2345091849565506,-0.15354563295841217,0.7088916301727295,0.6397444605827332,0.296985000371933,-0.040068209171295166,-0.053730547428131104,-0.036257922649383545,0.4778095735903871,-0.7887476910679605,0.16238710805197698,0.3510066871650642
1728403805610386700,2.87338671875,0.08135908097028732,0.16178327798843384,-0.1829325556755066,0.707197368144989,0.6409602165222168,0.29839929938316345,0.03058040142059326,-0.0530390739440918,-0.03440690040588379,0.47798685901066806,-0.7892191023935141,0.16227403154067233,0.349755645210663
1728403805620417500,2.88341748046875,0.34081247448921204,0.034055933356285095,-0.20592202246189117,0.7056271433830261,0.6429891586303711,0.2977510094642639,0.08374065160751343,-0.01626485586166382,-0.04817816615104675,0.4790787814163263,-0.789052158501798,0.16208698952149217,0.3487236304048321
1728403805630448600,2.89344873046875,0.563838005065918,-0.018816549330949783,-0.16453729569911957,0.7044180631637573,0.6456591486930847,0.2948211431503296,0.12350857257843018,0.05131649971008301,-0.11191394925117493,0.48119437946998117,-0.7881144651872384,0.16213006064782112,0.3479100583311556
1728403805640478700,2.903478759765625,0.6163656115531921,-0.011579941026866436,-0.15035010874271393,0.7034698724746704,0.6485337018966675,0.2907477617263794,0.12917178869247437,0.10160356760025024,-0.11864376068115234,0.4838862135617042,-0.7867338803449794,0.16255363614598842,0.3471027415306282
1728403805650509600,2.913509521484375,0.4159452021121979,-0.016537468880414963,-0.15943334996700287,0.7025238871574402,0.6511397957801819,0.2871885299682617,0.07828366756439209,0.08416599035263062,-0.05650603771209717,0.48623943086069765,-0.7855483316766537,0.1628130109165756,0.3463769357163037
1728403805660540700,2.923540771484375,0.3003229796886444,0.032741397619247437,-0.14315105974674225,0.701506495475769,0.6531955599784851,0.2849993407726288,0.027741670608520508,-0.008664250373840332,0.024738937616348267,0.4878543150036761,-0.7848451946193076,0.16284253790485217,0.345685757337858
1728403805670571500,2.933571533203125,0.20662805438041687,0.07676685601472855,-0.10751716047525406,0.7005170583724976,0.654843807220459,0.2836465835571289,0.005751192569732666,-0.12391430139541626,0.03831395506858826,0.4890671770614597,-0.7843970073699552,0.1629252128316546,0.3449492492265347
1728403805680602600,2.9436025390625,0.020423293113708496,0.11855211853981018,-0.062230903655290604,0.6996965408325195,0.6557425856590271,0.2835959792137146,0.007762014865875244,-0.15557467937469482,0.027897030115127563,0.4895848192269231,-0.7843517698638653,0.16306529675026524,0.34425113575530364
1728403805690632700,2.9536328125,-0.07939378172159195,0.1243668645620346,-0.07215117663145065,0.6989349126815796,0.6560375094413757,0.28478920459747314,0.02758181095123291,-0.10063290596008301,0.06158539652824402,0.48939287263776365,-0.7847390084388078,0.1630315513414809,0.3436569041366126
1728403805700663600,2.96366357421875,0.08104302734136581,0.07890138030052185,-0.08796130120754242,0.6981205940246582,0.6565690040588379,0.2855607867240906,0.04461628198623657,-0.06185770034790039,0.0410231351852417,0.4894084198535159,-0.7850025635232563,0.16294591961948687,0.34307302109196675
1728403805710694700,2.973694580078125,0.37158218026161194,-0.02219008095562458,-0.10503242909908295,0.6974040269851685,0.6578811407089233,0.28428879380226135,0.05444228649139404,-0.02166593074798584,-0.006319403648376465,0.4904379250618513,-0.7845777313304195,0.16304040743593176,0.34252924585051026
1728403805720725500,2.9837255859375,0.5854668021202087,0.026528988033533096,-0.12697340548038483,0.6966608762741089,0.6600891351699829,0.28097376227378845,0.05575007200241089,0.06560367345809937,-0.0437757670879364,0.49257975391360265,-0.7834445654275959,0.16340589914279124,0.34187487595129334
1728403805730755600,2.993755615234375,0.5646616816520691,0.09592291712760925,-0.1527821123600006,0.6955854892730713,0.6626600027084351,0.2775653600692749,0.03811812400817871,0.16479361057281494,-0.09372749924659729,0.4950377642365216,-0.7822268359720045,0.16402395550321353,0.34081505555224006
1728403805740786400,3.003786376953125,0.6234781742095947,0.1010870561003685,-0.13483692705631256,0.694330632686615,0.6652942299842834,0.2743881940841675,0.017278313636779785,0.18504762649536133,-0.04236304759979248,0.497500639932459,-0.7810638084399019,0.1647222711413296,0.33955725153805116
1728403805750817500,3.013817626953125,0.6609532833099365,0.00331570440903306,-0.12034320831298828,0.6933459043502808,0.6679496765136719,0.27039745450019836,0.049360454082489014,0.09596633911132812,-0.12228035926818848,0.5002385664886878,-0.7796185620513635,0.1655102079823985,0.3384710991866172
1728403805760848600,3.0238486328125,0.43769729137420654,-0.06788284331560135,-0.16843430697917938,0.692487359046936,0.6704621911048889,0.26634857058525085,0.09269934892654419,0.006615936756134033,-0.20984524488449097,0.5027003065984996,-0.77826239437125,0.16577675353689383,0.33781363872811604
1728403805770879500,3.03387939453125,0.3421340882778168,-0.19562694430351257,-0.12260662764310837,0.6918026804924011,0.6724856495857239,0.2630060911178589,0.07313573360443115,-0.04551726579666138,-0.13832640647888184,0.5044978658962274,-0.7772457177710572,0.16550568701967064,0.3376076215197066
1728403805780909600,3.04390966796875,0.3034902811050415,-0.31491604447364807,-0.0958397313952446,0.6917932629585266,0.6740348935127258,0.2590347230434418,0.07633411884307861,-0.09804612398147583,-0.1171737015247345,0.5061372329652184,-0.7760761901775391,0.16499427164207062,0.3380942486737782
1728403805790940400,3.0539404296875,0.19858457148075104,-0.29546985030174255,-0.14767177402973175,0.6917663216590881,0.6755456328392029,0.255141943693161,0.09139102697372437,-0.07537174224853516,-0.17634549736976624,0.5075959395766437,-0.7749992033449247,0.16415602524613615,0.3387851505686325
1728403805800971500,3.063971435546875,0.30705031752586365,-0.3447721600532532,-0.13868865370750427,0.6915720105171204,0.6771489977836609,0.2513907551765442,0.06404322385787964,-0.044824838638305664,-0.1544058620929718,0.5090015582101135,-0.7739948322582565,0.16317897408104212,0.3394436621969063
1728403805811002400,3.07400244140625,0.4044833481311798,-0.45587092638015747,-0.05984817445278168,0.6918604373931885,0.678790807723999,0.24611473083496094,0.0829504132270813,-0.10744071006774902,-0.1718653440475464,0.5109406815125185,-0.7724535138909662,0.16239745993343663,0.34041497482885624
1728403805821032400,3.084032470703125,0.30945563316345215,-0.3990976810455322,0.023669090121984482,0.6928485631942749,0.6797888875007629,0.24051645398139954,0.1059337854385376,-0.13640809059143066,-0.15485358238220215,0.5127291581630299,-0.7707695994530093,0.16177901751225054,0.3418342670230553
1728403805831063600,3.0940634765625,0.2924368381500244,-0.43893516063690186,0.10252688825130463,0.6942278742790222,0.6800293326377869,0.23581300675868988,0.11824160814285278,-0.15035104751586914,-0.10525871813297272,0.514052854973697,-0.7692980793915744,0.16151461525342564,0.34328292069237226
1728403805841094400,3.104094482421875,0.20854778587818146,-0.5331889390945435,0.14002633094787598,0.6961855292320251,0.679813027381897,0.2306077480316162,0.12713289260864258,-0.23950546979904175,-0.08209384977817535,0.5152533646678666,-0.7676794815840288,0.16115856763456712,0.34526816103650537
1728403805851125500,3.11412548828125,0.07293950021266937,-0.6545661687850952,0.18164114654064178,0.69868004322052,0.6789621114730835,0.22551453113555908,0.16411292552947998,-0.265616774559021,-0.14975453913211823,0.5159682882142669,-0.766158540879681,0.16049408906365448,0.3478785967454723
1728403805861156400,3.12415625,0.03273508697748184,-0.7183613777160645,0.17576967179775238,0.7014468312263489,0.6777849793434143,0.2204083353281021,0.17384308576583862,-0.2690783739089966,-0.1344403177499771,0.5163767077695021,-0.7646954326767702,0.15951509368221295,0.35092866685168445
1728403805871186400,3.1341865234375,-0.08213384449481964,-0.7480998039245605,0.18305662274360657,0.7042437791824341,0.6765604615211487,0.215189591050148,0.14837157726287842,-0.31321823596954346,-0.1428934633731842,0.5166351765616377,-0.763258925732011,0.1582106549781501,0.35425031459484474
1728403805881217500,3.144217529296875,-0.13364869356155396,-0.7614438533782959,0.28957855701446533,0.7074316143989563,0.6746132969856262,0.21080154180526733,0.1135980486869812,-0.2554696798324585,-0.055207639932632446,0.5163021619129541,-0.7620817177229336,0.15694657250180655,0.35781460061387604
1728403805891248400,3.154248291015625,0.014862479642033577,-0.7850373387336731,0.35121047496795654,0.7112189531326294,0.6721728444099426,0.20579390227794647,0.12545090913772583,-0.1634906530380249,0.015565365552902222,0.5160571195120722,-0.7606203997279278,0.15605625928743477,0.36164625425658564
1728403805901279700,3.16427978515625,0.14665326476097107,-0.8105035424232483,0.3177097737789154,0.7151705026626587,0.6698968410491943,0.19942288100719452,0.14682906866073608,-0.11903929710388184,-0.06641197204589844,0.5164085787611024,-0.7586468516792692,0.15545543391912495,0.3655280683863978
1728403805911309600,3.1743095703125,0.11177024990320206,-0.9500195384025574,0.2828410267829895,0.7188698053359985,0.6680602431297302,0.19215027987957,0.16102826595306396,-0.089813232421875,-0.14167417585849762,0.5171231845223137,-0.7564162341939967,0.15462736115089185,0.36947052600479313
1728403805921340400,3.18434033203125,-0.06672518700361252,-1.0771921873092651,0.3040909171104431,0.7227588295936584,0.6659836769104004,0.18462219834327698,0.16745418310165405,-0.09626632928848267,-0.12077941000461578,0.5174251244630831,-0.754239074204519,0.15308337200577596,0.3741124459686533
1728403805931371800,3.194371826171875,-0.12175408750772476,-1.1133323907852173,0.3329941928386688,0.7268580198287964,0.6634853482246399,0.1773824691772461,0.1663304567337036,-0.16076934337615967,-0.11949051916599274,0.5172711956137489,-0.7522028853188526,0.15126814105568429,0.37912955434333695
1728403805941402600,3.204402587890625,-0.09151336550712585,-1.2005060911178589,0.33242082595825195,0.7311021685600281,0.6608556509017944,0.16958637535572052,0.0958174467086792,-0.20782220363616943,-0.09291088581085205,0.5171063570428112,-0.7500004514701686,0.1493067642120612,0.3844579055690001
1728403805951434500,3.2144345703125,0.0411464124917984,-1.181404709815979,0.38444939255714417,0.7354539632797241,0.6581674218177795,0.16100719571113586,0.04306471347808838,-0.09490448236465454,-0.12919259071350098,0.5171736619748767,-0.7474983906279468,0.14747798890019947,0.38990754506265807
1728403805961464600,3.224464599609375,0.21179725229740143,-1.1465777158737183,0.3719993829727173,0.7398242354393005,0.6555145978927612,0.15152862668037415,0.02087223529815674,0.038043200969696045,-0.18596766889095306,0.5177533192786576,-0.7445843455723866,0.14614535021236272,0.39518006811417433
1728403805971495700,3.23449560546875,0.11671887338161469,-1.0301889181137085,0.35342782735824585,0.7437924742698669,0.6531199812889099,0.1421518474817276,0.013852238655090332,0.06344801187515259,-0.2362375259399414,0.5185336840252955,-0.7416525489784923,0.1450083411187413,0.40005867353444124
1728403805981526500,3.244526611328125,-0.07464123517274857,-1.0814553499221802,0.3519923985004425,0.7475836277008057,0.6504364013671875,0.13435596227645874,0.05837047100067139,0.0597381591796875,-0.16671979427337646,0.5185770675919014,-0.7392844267643776,0.1436541516504056,0.40484560447286383
1728403805991557600,3.2545576171875,-0.1596369594335556,-1.2407170534133911,0.2942183017730713,0.7511923313140869,0.6478713750839233,0.12638278305530548,0.1679207682609558,-0.01367044448852539,-0.0757235437631607,0.5183118345849912,-0.7369870662672362,0.14156786127227455,0.410074858497572
1728403806001587700,3.264587646484375,-0.052693724632263184,-1.391714334487915,0.293867826461792,0.7547129988670349,0.6455080509185791,0.11716492474079132,0.2357959747314453,-0.0694887638092041,-0.12384821474552155,0.5182059068370809,-0.7343468588899672,0.13898616484338672,0.4157885943253202
1728403806011618600,3.27461865234375,0.1269478052854538,-1.4836134910583496,0.28377392888069153,0.7581953406333923,0.643365204334259,0.10593010485172272,0.23799002170562744,-0.03580600023269653,-0.15541434288024902,0.5187571778902177,-0.7310017864897649,0.1363870992552562,0.42181275517984423
1728403806021649700,3.284649658203125,0.2115710824728012,-1.5293540954589844,0.30504193902015686,0.7615853548049927,0.6413065791130066,0.09334861487150192,0.19179916381835938,-0.02291351556777954,-0.20058727264404297,0.5197983646623942,-0.7271430633910188,0.13393010561634172,0.4279433467787305
1728403806031680500,3.294680419921875,0.11524234712123871,-1.6022202968597412,0.3117395043373108,0.7649261951446533,0.6391027569770813,0.08022545278072357,0.1295594573020935,-0.013110816478729248,-0.15751111507415771,0.5208004254327786,-0.7230962067109455,0.13131871152259125,0.43434364474912973
1728403806041711600,3.304711669921875,0.10726457834243774,-1.6119717359542847,0.33237501978874207,0.7681955695152283,0.6366791725158691,0.06719555705785751,0.07997941970825195,0.00939321517944336,-0.08665049821138382,0.5214851242143408,-0.719090408230491,0.12847864857676375,0.4409710940159852
1728403806051741700,3.31474169921875,0.2446199655532837,-1.5915801525115967,0.30845317244529724,0.771233320236206,0.6342822313308716,0.05371683090925217,0.07756751775741577,0.029810845851898193,-0.182104229927063,0.5224315023560842,-0.7148529690517759,0.12587155431617922,0.44744502405858005
1728403806061772500,3.3247724609375,0.32165777683258057,-1.5769492387771606,0.27237558364868164,0.773829460144043,0.6321620941162109,0.039487045258283615,0.05565363168716431,0.12560462951660156,-0.19637787342071533,0.5238294611397526,-0.7102920494678491,0.12340472786877024,0.4537171554911633
1728403806071803600,3.3348037109375,0.4459717869758606,-1.5830291509628296,0.2870030105113983,0.776098906993866,0.630112886428833,0.025068694725632668,0.08706045150756836,0.162092924118042,-0.21212613582611084,0.525424886138964,-0.7055973078888933,0.12110650999924116,0.45977651116441776
1728403806081834500,3.34483447265625,0.47872865200042725,-1.7970956563949585,0.2920374572277069,0.7782060503959656,0.6279485821723938,0.008724887855350971,0.16417694091796875,0.0664331316947937,-0.22712385654449463,0.5275236187148447,-0.7001779318774313,0.11879944316059561,0.46621507747495305
1728403806091864600,3.354864501953125,0.5722037553787231,-1.6341464519500732,0.3472013771533966,0.7802174687385559,0.6254579424858093,-0.007965873926877975,0.19312560558319092,0.07814019918441772,-0.21192848682403564,0.5294527118278319,-0.6946053805539176,0.11636334616010967,0.4729301783679746
1728403806101895700,3.364895751953125,0.8038114309310913,-1.6252988576889038,0.34109926223754883,0.7821363806724548,0.6226085424423218,-0.02492973953485489,0.17925888299942017,0.14496958255767822,-0.22745060920715332,0.5319728140471036,-0.6887082760655378,0.11496103975009501,0.47903018720451224
1728403806111926500,3.374926513671875,0.5591933131217957,-1.8375712633132935,0.22348952293395996,0.7833448648452759,0.6201027631759644,-0.04293608292937279,0.12081468105316162,0.20248329639434814,-0.29745692014694214,0.5346819723276105,-0.6824667282544592,0.11300939497421798,0.4853692430947694
1728403806121957600,3.38495751953125,0.5780391693115234,-1.822800636291504,0.17857584357261658,0.7836005091667175,0.618297278881073,-0.06065184623003006,0.11134272813796997,0.2811014652252197,-0.09671199321746826,0.5370397981199875,-0.6764353377392585,0.11004231341913806,0.4918476808479666
1728403806131988500,3.394988525390625,0.7752399444580078,-1.8422279357910156,0.20925572514533997,0.7835047841072083,0.6162962913513184,-0.07936707884073257,0.14046066999435425,0.16823434829711914,-0.09282827377319336,0.5398928843646769,-0.6699045338452747,0.10744475867471194,0.49819596858683796
1728403806142018600,3.4050185546875,1.0481511354446411,-1.78107488155365,0.2894541919231415,0.7834450602531433,0.6134967803955078,-0.09917455166578293,0.1410697102546692,0.2097300887107849,-0.2132490873336792,0.5432468181566875,-0.6627603468958063,0.10564773977329528,0.504450424205267
1728403806152049700,3.415049560546875,1.1003592014312744,-1.8521345853805542,0.25163915753364563,0.7831388711929321,0.6101067662239075,-0.12026255577802658,0.14853215217590332,0.24244749546051025,-0.19538067281246185,0.5471529919880156,-0.65495816513524,0.10439599210822986,0.5106415759513102
1728403806162080500,3.42508056640625,1.0075615644454956,-1.786849856376648,0.2648758590221405,0.7822989225387573,0.606766402721405,-0.14086511731147766,0.19591152667999268,0.08929377794265747,-0.20767609775066376,0.5508403389823641,-0.6472867624073675,0.10289454703909609,0.5167277087081769
1728403806172111600,3.435111572265625,0.7486708760261536,-2.0196731090545654,0.21610431373119354,0.7809568047523499,0.6033923029899597,-0.16132080554962158,0.24605131149291992,0.025513947010040283,-0.17118340730667114,0.5541072223509073,-0.6396651860244082,0.10083673477426669,0.5230924850845129
1728403806182141400,3.445141357421875,0.4914020597934723,-1.9661939144134521,0.17335738241672516,0.7786387801170349,0.6009299159049988,-0.18056848645210266,0.2386494278907776,0.02487879991531372,-0.02835482358932495,0.556463876487098,-0.6326422882505424,0.09736267417078913,0.5297473572664049
1728403806192172500,3.455172607421875,0.7535496354103088,-1.9421449899673462,0.18980772793293,0.7760581970214844,0.598315954208374,-0.1993790715932846,0.22943514585494995,0.006161093711853027,-0.05110916495323181,0.5588482859909013,-0.625652392174573,0.09417829128604932,0.5360767715063243
1728403806202203400,3.465203369140625,0.9333103895187378,-2.115203857421875,0.25997352600097656,0.7730791568756104,0.5948100686073303,-0.22034050524234772,0.19695276021957397,-0.003547191619873047,-0.05247136950492859,0.5618518328726635,-0.6176336259481897,0.09142456304583,0.542672066414986
1728403806212234500,3.475234375,1.085655689239502,-1.96987783908844,0.4149561822414398,0.770335853099823,0.5898140072822571,-0.2422856092453003,0.18173635005950928,0.06742781400680542,-0.05254465341567993,0.5649798047454441,-0.6089789143916979,0.08945323226816697,0.5494913870380909
1728403806222265600,3.485265625,0.8982899785041809,-1.934008002281189,0.47684910893440247,0.7680876851081848,0.5837215781211853,-0.2632690668106079,0.20267653465270996,-0.0375179648399353,-0.058355629444122314,0.5676561282739149,-0.6004998276239736,0.08812162670349162,0.5562383897482396
1728403806232295400,3.49529541015625,0.7540452480316162,-2.0195682048797607,0.44918179512023926,0.7654013633728027,0.5778804421424866,-0.28322234749794006,0.19796228408813477,-0.07923853397369385,0.08024999499320984,0.5696336514684961,-0.5924223996970588,0.08616570030047195,0.5631417680243369
1728403806242326500,3.505326416015625,0.7972614169120789,-1.983555555343628,0.3750748038291931,0.7618670463562012,0.5724602937698364,-0.30306392908096313,0.20259523391723633,-0.0218164324760437,0.0452820360660553,0.5715904462659532,-0.584331383231309,0.08381449195161025,0.5699265240169267
1728403806252357400,3.515357421875,0.9640153050422668,-2.0520272254943848,0.3248923420906067,0.7575556635856628,0.5670168399810791,-0.32342126965522766,0.21505481004714966,0.09654206037521362,-0.13888946175575256,0.5739596697309972,-0.5758776882304087,0.08157361665678453,0.5764381405029811
1728403806262388500,3.525388427734375,1.023480772972107,-2.1530799865722656,0.3321489095687866,0.7522958517074585,0.5611352920532227,-0.3452218472957611,0.2352529764175415,0.13297170400619507,-0.12935695052146912,0.5768051585878197,-0.5666468039665955,0.07937557560439189,0.5830151619112325
1728403806272418600,3.53541845703125,0.8767864108085632,-2.0472707748413086,0.4503394663333893,0.7469818592071533,0.5547764897346497,-0.3663893938064575,0.26755982637405396,-0.020337462425231934,-0.050938427448272705,0.5791342045707157,-0.5575411200351386,0.07715695802240904,0.5897442752502521
1728403806282449400,3.545449462890625,0.6321841478347778,-2.1118340492248535,0.4090295732021332,0.7416170835494995,0.5485394597053528,-0.38614583015441895,0.288854718208313,-0.13011300563812256,-0.008217543363571167,0.5807648178480842,-0.5489538884768187,0.0746774278195747,0.5964772828618867
1728403806292480500,3.55548046875,0.3611834645271301,-2.105410575866699,0.38528162240982056,0.7353278994560242,0.5437549352645874,-0.4045039713382721,0.23247605562210083,-0.1171344518661499,0.08953210711479187,0.5816568527012626,-0.5410276846814877,0.07097226339288838,0.6032638766604312
1728403806302511400,3.565511474609375,0.5822005271911621,-2.004601240158081,0.3585839867591858,0.7289118766784668,0.5390484929084778,-0.42203596234321594,0.22525078058242798,0.03811520338058472,-0.0008766055107116699,0.582427351681495,-0.5333277981895396,0.06740529006110733,0.6097511729625665
1728403806312542500,3.57554248046875,0.7979505658149719,-2.1930527687072754,0.3124212920665741,0.7216771841049194,0.53348308801651,-0.4411099851131439,0.21097058057785034,0.223871648311615,-0.1404329538345337,0.5839889901473923,-0.5246886333340611,0.06439598463943941,0.6160454566250864
1728403806322572500,3.585572509765625,0.9129136800765991,-2.312509298324585,0.3083362579345703,0.7130614519119263,0.5272971391677856,-0.4620620310306549,0.1885194182395935,0.34115684032440186,-0.1049545407295227,0.5859375744732223,-0.5149983325371893,0.061202196031647865,0.6226623041864779
1728403806332603400,3.595603271484375,1.0278042554855347,-2.2267372608184814,0.30687230825424194,0.7039177417755127,0.5202692151069641,-0.4835491478443146,0.20405656099319458,0.2627202868461609,-0.11898988485336304,0.5881747721758009,-0.5047870760464216,0.05844176481358995,0.6291462704965445
1728403806342634500,3.605634521484375,1.2145427465438843,-2.147775411605835,0.40519195795059204,0.6949150562286377,0.5118231177330017,-0.5051042437553406,0.10461503267288208,0.1961541771888733,-0.08145880699157715,0.5904997588684333,-0.49421887826646177,0.056529483541197266,0.6355015909708017
1728403806352665300,3.615665283203125,1.300870418548584,-1.880714774131775,0.44298675656318665,0.6867560744285583,0.5020387172698975,-0.5256645679473877,0.05770498514175415,0.25311869382858276,-0.17948979139328003,0.5928149881358682,-0.4837931577507619,0.055784374415719595,0.6414067924604341
1728403806362696700,3.62569677734375,0.8780326843261719,-1.9980860948562622,0.38693946599960327,0.6785500645637512,0.49319472908973694,-0.5443609356880188,0.08165812492370605,0.27098068594932556,-0.1477624773979187,0.5946584497522135,-0.474163463572375,0.0546676106059936,0.6469635530767213
1728403806372726500,3.6357265625,0.8030384182929993,-2.288362979888916,0.2845153510570526,0.6683272123336792,0.4862835705280304,-0.5629094243049622,0.20333117246627808,0.2543170154094696,0.061993956565856934,0.5960356962352771,-0.46461496587482226,0.051751545239534756,0.6528369971330582
1728403806382757400,3.64575732421875,0.6565496325492859,-2.3585755825042725,0.08492312580347061,0.655819833278656,0.4807964563369751,-0.5820096135139465,0.35698235034942627,0.1878894567489624,-0.09926474094390869,0.5977088606496872,-0.454672759712433,0.047622057087625284,0.6585962737106119
1728403806392788700,3.655788818359375,0.8001797199249268,-2.596203565597534,0.04406038299202919,0.6414398550987244,0.476187139749527,-0.6014987230300903,0.3149658441543579,0.27764278650283813,-0.03834801912307739,0.5997053329142273,-0.44432624985989494,0.04271776374149303,0.6641557879682549
1728403806402819600,3.665819580078125,0.7971575856208801,-2.568204402923584,0.17957933247089386,0.6258630156517029,0.4704381227493286,-0.6220800280570984,0.24330812692642212,0.22827711701393127,0.04448908567428589,0.6016794237854083,-0.4330477150110441,0.03781103959076033,0.6700910428895644
1728403806412849400,3.675849365234375,0.612673282623291,-2.220608949661255,0.2989289164543152,0.6118712425231934,0.46449095010757446,-0.6402044892311096,0.19855362176895142,0.06735411286354065,-0.0703819990158081,0.6028032739939709,-0.4228195074731309,0.03348755549728612,0.6758184316895872
1728403806422880800,3.685880859375,0.5990192294120789,-2.208481550216675,0.30738016963005066,0.5990249514579773,0.45865580439567566,-0.656356692314148,0.15688025951385498,0.02484944462776184,-0.03625500202178955,0.6033191188059032,-0.41346041266071554,0.029532282760347587,0.6813108723408946
1728403806432911600,3.69591162109375,0.6120719313621521,-2.189135789871216,0.21523772180080414,0.5856030583381653,0.45306509733200073,-0.6721615791320801,0.180769681930542,0.08495980501174927,-0.08562040328979492,0.6039633184381609,-0.4040653583671073,0.025502709443470644,0.686519663348061
1728403806442942700,3.705942626953125,0.839518666267395,-2.425652265548706,0.07648170739412308,0.5706212520599365,0.4473218321800232,-0.6886904835700989,0.22011977434158325,0.2892656624317169,-0.06767243146896362,0.6051294428739842,-0.39395535038786234,0.021306136808325393,0.6914937162809922
1728403806452973600,3.7159736328125,0.9137855172157288,-2.504392623901367,-0.016636786982417107,0.5533454418182373,0.4409286081790924,-0.7066758275032043,0.27143794298171997,0.3929947316646576,-0.04857313632965088,0.6070458687360843,-0.3825906198512091,0.016926266035722504,0.6962996146991498
1728403806463003600,3.726003662109375,1.106018304824829,-2.6456563472747803,-0.0445760115981102,0.5348314046859741,0.43385815620422363,-0.7250672578811646,0.2798200845718384,0.3912608325481415,-0.10748279094696045,0.6092281133464107,-0.37055095822404793,0.012583756121592047,0.7009814168690299
1728403806473034500,3.736034423828125,1.0259487628936768,-2.620994806289673,-0.03791304677724838,0.5150010585784912,0.426138699054718,-0.7437605857849121,0.28129416704177856,0.2418910562992096,-0.08909463882446289,0.6115266607583292,-0.3578449692140264,0.008166279249766166,0.7056313388453541
1728403806483065600,3.746065673828125,0.8796760439872742,-2.4229421615600586,0.07992091029882431,0.49608200788497925,0.41886505484580994,-0.7605621218681335,0.24992021918296814,0.09451693296432495,-0.04095149040222168,0.6132077141714809,-0.34598291652251656,0.0038400608842241632,0.7101109317289003
1728403806493096700,3.7560966796875,0.7292782068252563,-2.3266305923461914,0.16020216047763824,0.47828033566474915,0.41190922260284424,-0.7756150960922241,0.23100927472114563,0.06842219829559326,0.05082261562347412,0.6141810923921734,-0.334951271682178,-0.0003272980764433057,0.7145552238328872
1728403806503126500,3.76612646484375,0.6173670887947083,-2.2328836917877197,0.15154635906219482,0.46115994453430176,0.40599963068962097,-0.7889840602874756,0.2863529324531555,0.03945019841194153,0.016874074935913086,0.6146548143823468,-0.3247861035066179,-0.004686164210731696,0.7188125988295473
1728403806513157600,3.77615771484375,0.640110969543457,-2.440856456756592,0.03513426333665848,0.4429995119571686,0.4004809558391571,-0.8021013140678406,0.3385557234287262,0.1056988537311554,0.032386958599090576,0.6152366141620977,-0.3144216089291944,-0.009402573691676686,0.7228655725125486
1728403806523188500,3.7861884765625,0.6823668479919434,-2.4831807613372803,-0.08087968826293945,0.42272448539733887,0.39516565203666687,-0.8155661821365356,0.374287873506546,0.21112707257270813,-0.07060325145721436,0.6162314489641775,-0.303317242980784,-0.01468241532270317,0.7266649363610148
1728403806533219600,3.796219482421875,0.7220454812049866,-2.5540244579315186,-0.11107168346643448,0.40177565813064575,0.3899143934249878,-0.8285790085792542,0.395221471786499,0.1899806261062622,-0.16308969259262085,0.6173854947210856,-0.2920768004566127,-0.020041280681786292,0.7301539214415115
1728403806543250700,3.806250732421875,0.7965101003646851,-2.6978719234466553,-0.14321203529834747,0.3790770173072815,0.3839508891105652,-0.8419514894485474,0.3564424216747284,0.11601859331130981,0.008943676948547363,0.6186779865546987,-0.2799445701450061,-0.025598595727904398,0.7336302302376794
1728403806553280500,3.816280517578125,0.7754549384117126,-2.5525739192962646,-0.0651065856218338,0.35628318786621094,0.37763893604278564,-0.8546643257141113,0.28919410705566406,0.06326374411582947,0.0985913872718811,0.6197796197589773,-0.2677802079213869,-0.031009469584733124,0.7370247307066174
1728403806563311600,3.8263115234375,0.772294282913208,-2.4565207958221436,0.02401529997587204,0.3346408009529114,0.37093237042427063,-0.8662706017494202,0.2545011043548584,0.08782312273979187,0.10725265741348267,0.6204659543375508,-0.2560781027845289,-0.03589854859828442,0.7403765434007858
1728403806573342500,3.836342529296875,0.7409427762031555,-2.4984490871429443,0.1077437549829483,0.3133077323436737,0.36404770612716675,-0.8771017789840698,0.2526407837867737,0.16094619035720825,0.10180270671844482,0.6206792959051658,-0.24453112119715195,-0.0406648792583232,0.7438469084377388
1728403806583373600,3.84637353515625,0.5993039011955261,-2.6111178398132324,-0.008930930867791176,0.29091861844062805,0.3578442931175232,-0.8873071074485779,0.31014037132263184,0.16307547688484192,0.02727597951889038,0.6207059183804057,-0.23287360836568854,-0.04600370215561881,0.7472468757848091
1728403806593404400,3.856404296875,0.4145473539829254,-2.610198497772217,-0.21256154775619507,0.2670600712299347,0.35360389947891235,-0.8964614868164062,0.3427574932575226,0.12387412786483765,0.02205657958984375,0.6210622288833625,-0.22141618893187717,-0.05238437476593424,0.7500083239592182
1728403806603434500,3.8664345703125,0.6090515851974487,-2.6224727630615234,-0.3314943015575409,0.2425938844680786,0.3500062823295593,-0.904789388179779,0.30776017904281616,0.2541349232196808,-0.007625162601470947,0.6218883139794231,-0.21005940129021158,-0.05899461118801216,0.7520967747703017
1728403806613465600,3.876465576171875,0.808832049369812,-2.576127290725708,-0.2963046431541443,0.2175518274307251,0.3440748155117035,-0.9133913516998291,0.3038105070590973,0.248835951089859,-0.0623319149017334,0.6230656505682751,-0.197769685326764,-0.0647417129857541,0.753979316160068
1728403806623496400,3.886496337890625,1.0351165533065796,-2.4152605533599854,-0.10703912377357483,0.19403085112571716,0.33614394068717957,-0.9216068983078003,0.3560180068016052,0.13031721115112305,-0.1963282823562622,0.6238358428257773,-0.18546891843759683,-0.06926641717730536,0.7560636088003141
1728403806633527600,3.896527587890625,1.167847990989685,-2.45698881149292,-0.0879189595580101,0.17125746607780457,0.32586199045181274,-0.9297767877578735,0.4268565773963928,0.026005655527114868,-0.08645856380462646,0.6243213146609469,-0.1727233685157857,-0.0726515783473751,0.7583609693274779
1728403806643557600,3.9065576171875,1.0477064847946167,-2.5831263065338135,-0.12416324764490128,0.1472451388835907,0.31570351123809814,-0.9373633861541748,0.4333365559577942,-0.06878581643104553,0.17662125825881958,0.6247155558874928,-0.15960343410535222,-0.07645285800545862,0.760534146631871
1728403806653588500,3.91658837890625,0.7906834483146667,-2.523481845855713,-0.07467558979988098,0.1226896420121193,0.30708861351013184,-0.9437392950057983,0.4080721139907837,-0.030034750699996948,0.32647550106048584,0.6248239187759882,-0.14684679095812364,-0.08103319375975147,0.7625382832445055
1728403806663619600,3.92661962890625,0.7142637372016907,-2.5134615898132324,0.00813726894557476,0.09876955300569534,0.3001464307308197,-0.9487658739089966,0.35424864292144775,0.0425049364566803,0.30125921964645386,0.6244123695815029,-0.13491950493972604,-0.08610334502704463,0.7645208258013667
1728403806673650400,3.936650390625,0.5336694717407227,-2.396172523498535,0.0699942409992218,0.07527220249176025,0.29389822483062744,-0.9528682827949524,0.31565800309181213,0.03888070583343506,0.08877831697463989,0.623599627590401,-0.12339424181745014,-0.0913221120085849,0.7665231066062761
1728403806683681500,3.946681640625,0.44477084279060364,-2.160460948944092,0.1710239201784134,0.053894609212875366,0.2894839942455292,-0.9556643962860107,0.3215479254722595,-0.022943496704101562,0.0004031658172607422,0.6223331618857497,-0.11329727195595392,-0.09659991285553489,0.7684618702215422
1728403806693711600,3.956711669921875,0.9014731645584106,-2.079184055328369,0.21220144629478455,0.03418223559856415,0.2830916941165924,-0.9584835171699524,0.37798818945884705,0.03404697775840759,-0.009808719158172607,0.6208871881666849,-0.10319564442853128,-0.10054299930839117,0.770545874852723
1728403806703742500,3.966742431640625,1.270465612411499,-2.2593884468078613,0.21774429082870483,0.014121596701443195,0.2722632884979248,-0.9621191620826721,0.41176649928092957,-0.0018012821674346924,0.02760988473892212,0.6194833002732243,-0.09152167612607924,-0.10278228795402837,0.7728519883314565
1728403806713773600,3.976773681640625,1.3271905183792114,-2.45939040184021,0.20661121606826782,-0.008260859176516533,0.25963038206100464,-0.9656727313995361,0.4379025995731354,-0.04997462034225464,0.20940136909484863,0.6179737647442219,-0.07836547938707827,-0.10498802321654827,0.7752063145127505
1728403806723804400,3.986804443359375,1.314079761505127,-2.3380565643310547,0.24193963408470154,-0.03112771548330784,0.24676182866096497,-0.9685760736465454,0.4125517010688782,-0.12785011529922485,0.2849060893058777,0.6163251262265869,-0.06496330680242383,-0.10719942995051049,0.7774518742270534
1728403806733834500,3.99683447265625,1.3237148523330688,-2.156240701675415,0.3943246603012085,-0.0520595945417881,0.2341778725385666,-0.970798909664154,0.3127560317516327,-0.1342328041791916,0.33768123388290405,0.6142677777058625,-0.05239108620592549,-0.10888396944731821,0.779791365588829
1728403806743865600,4.006865478515625,1.3966131210327148,-2.1255204677581787,0.4081805646419525,-0.0720139592885971,0.22109583020210266,-0.9725896716117859,0.2470933198928833,0.05878084897994995,0.2478734850883484,0.6117931301401456,-0.04001232045826899,-0.11001904037888109,0.7823069030533673
1728403806753896400,4.016896484375,1.195035457611084,-2.070408582687378,0.39720380306243896,-0.09158357232809067,0.2086866796016693,-0.9736849069595337,0.22035250067710876,0.110603466629982,0.1763063669204712,0.6092763980373849,-0.028013476785003676,-0.11123301977179618,0.7846176373216275
1728403806763927600,4.026927490234375,1.0300019979476929,-2.133230686187744,0.3584817051887512,-0.11127885431051254,0.19826637208461761,-0.9738107919692993,0.2805293798446655,0.03330099582672119,0.09545385837554932,0.6067295019011141,-0.01659678535207103,-0.11322168019429438,0.7866287004597249
1728403806773958400,4.03695849609375,0.9746993780136108,-2.1972901821136475,0.37200045585632324,-0.13173885643482208,0.18903622031211853,-0.9730930924415588,0.3637945353984833,-0.07454954087734222,0.06217390298843384,0.6041111273278605,-0.005237534896397129,-0.11587069374013399,0.7884138137444389
1728403806783988500,4.046988525390625,1.175413966178894,-2.254967212677002,0.3377971947193146,-0.15270502865314484,0.17917396128177643,-0.9718939661979675,0.38520321249961853,-0.03966285288333893,0.10014408826828003,0.6013671501130203,0.006545697689097939,-0.11836457213642095,0.7901295370770379
1728403806794019600,4.05701953125,1.357652187347412,-2.347019910812378,0.3112074136734009,-0.1745874285697937,0.16722990572452545,-0.9703367352485657,0.3126184344291687,0.0019442737102508545,0.24444562196731567,0.5986658173521755,0.019338679766986645,-0.12023994057563189,0.7916866554950753
1728403806804050400,4.067050537109375,1.2045353651046753,-2.167555809020996,0.5064080357551575,-0.1960156410932541,0.15539033710956573,-0.9682105779647827,0.18557865917682648,-0.029856309294700623,0.3291419744491577,0.5955386769652711,0.03199472646929662,-0.12194691263559052,0.7933720194974653
1728403806814081500,4.07708154296875,1.1255788803100586,-1.8091390132904053,0.6908029317855835,-0.21436181664466858,0.14535462856292725,-0.9658783674240112,0.12122218310832977,-0.06552067399024963,0.365780770778656,0.5917091653767913,0.04299200693222076,-0.12333894164335531,0.795499597183058
1728403806824111400,4.087111328125,0.9629985094070435,-1.4669526815414429,0.8746590614318848,-0.2291356325149536,0.13695991039276123,-0.9637109637260437,0.06714834272861481,-0.06942452490329742,0.3917962908744812,0.587306014224331,0.052161718383028244,-0.12419205336107911,0.7980772063438507
1728403806834142500,4.097142578125,0.8898436427116394,-1.3724908828735352,0.8349899649620056,-0.24135367572307587,0.1301494836807251,-0.9616701602935791,0.09262627363204956,0.1323321908712387,0.3268587589263916,0.5826502663734617,0.059875213487564104,-0.12481935353269313,0.8008457607440851
1728403806844173300,4.10717333984375,0.836978554725647,-1.7061045169830322,0.49306321144104004,-0.2551382780075073,0.12345246225595474,-0.9589911103248596,0.1982382833957672,0.27506130933761597,0.20981508493423462,0.5787424559407902,0.06809022494639395,-0.12596890153784615,0.8028404959818499
1728403806854204700,4.11720458984375,0.7610511779785156,-2.2018375396728516,0.3450506031513214,-0.2734065055847168,0.11690987646579742,-0.9547675251960754,0.24809220433235168,0.17508229613304138,0.20403504371643066,0.5755735121108563,0.07800144343205269,-0.12857692174759225,0.803802891204585
1728403806864235500,4.127235595703125,0.8372636437416077,-2.3825137615203857,0.2621903419494629,-0.29518964886665344,0.11025652289390564,-0.9490556120872498,0.28316572308540344,0.11296427994966507,0.27602094411849976,0.5724972384678806,0.08941600927335261,-0.13220049163231595,0.8042230417436077
