time,seconds_elapsed,rotationRateX,rotationRateY,rotationRateZ,gravityX,gravityY,gravityZ,accelerationX,accelerationY,accelerationZ,quaternionW,quaternionX,quaternionY,quaternionZ
1728666806073387800,0.0993876953125,-0.11893828213214874,0.0986969843506813,0.44061312079429626,0.3736792504787445,0.1803487241268158,-0.9098561406135559,0.028130441904067993,-0.013966873288154602,0.014867126941680908,0.9772042871050886,-0.09227790237404516,0.1911981222037203,-2.99252240402412e-17
1728666806083417900,0.10941796875,-0.1053263321518898,0.06654650717973709,0.45573028922080994,0.375259667634964,0.179661363363266,-0.9093415141105652,0.03477451205253601,-0.02693614363670349,0.018747031688690186,0.9770699284701255,-0.09238213912096555,0.19181967565569824,0.0022579970836918897
1728666806093448000,0.119447998046875,-0.15522217750549316,0.06508640199899673,0.41350454092025757,0.376630574464798,0.1791675090789795,-0.9088720679283142,0.06611844897270203,-0.012022718787193298,0.02064269781112671,0.9769421435669463,-0.0925839694023913,0.19233349454236096,0.004499624836832232
1728666806103478800,0.129478759765625,-0.21663707494735718,0.0780583918094635,0.3523106873035431,0.3779790699481964,0.1793973594903946,-0.9082667231559753,0.06910344958305359,-0.006591573357582092,0.03911083936691284,0.9767758226018948,-0.09311918205489163,0.19286123945499126,0.006522221106615464
1728666806113508900,0.1395087890625,-0.2918568551540375,0.09019388258457184,0.32732757925987244,0.3793572783470154,0.18042293190956116,-0.9074886441230774,0.03545290231704712,-0.05324092507362366,0.03991967439651489,0.9765624409925534,-0.09403756810370661,0.19342339874950654,0.008386201241581976
1728666806123540000,0.1495400390625,-0.36521202325820923,0.08958987891674042,0.29740723967552185,0.3807552754878998,0.18227942287921906,-0.9065316915512085,0.027096927165985107,-0.08543188869953156,0.037299513816833496,0.9763002764850495,-0.09537641116668538,0.19400388268052782,0.010186938140507907
1728666806133570000,0.159570068359375,-0.3440359830856323,0.08882991969585419,0.31121012568473816,0.38214951753616333,0.18439216911792755,-0.9055171608924866,0.03522413969039917,-0.08090704679489136,0.04719501733779907,0.97602008207453,-0.09684973894641921,0.19458046517698394,0.011980662976407678
1728666806143601000,0.169600830078125,-0.2474343329668045,0.09963329881429672,0.35496506094932556,0.3836064338684082,0.18580202758312225,-0.9046124815940857,0.0459742546081543,-0.06496767699718475,0.03882879018783569,0.9757634908864269,-0.09797918930428043,0.1951764448816879,0.013851577815033876
1728666806153631000,0.179630859375,-0.220628559589386,0.14518730342388153,0.3740418255329132,0.3854111433029175,0.18646058440208435,-0.9037094116210938,0.05721583962440491,-0.03959473967552185,0.00463104248046875,0.9755021170672695,-0.0987493711758398,0.19594349839662817,0.01582052363816423
1728666806163662000,0.189662109375,-0.22593677043914795,0.16153991222381592,0.3696654438972473,0.38751575350761414,0.18704496324062347,-0.9026880860328674,0.05341750383377075,-0.01639065146446228,0.009087622165679932,0.9752068186049998,-0.09948795311375656,0.19687079611068065,0.017772316788552428
1728666806173692000,0.19969189453125,-0.2711809575557709,0.13099037110805511,0.34906402230262756,0.38953548669815063,0.18785597383975983,-0.9016497731208801,0.04323425889015198,-0.02368667721748352,0.028724968433380127,0.9749034184084449,-0.10034347323579353,0.1977531679188269,0.01970742420068293
1728666806183723000,0.209722900390625,-0.342642605304718,0.11589690297842026,0.32584846019744873,0.39128339290618896,0.18932005763053894,-0.9005860686302185,0.04211202263832092,-0.06003232300281525,0.033276498317718506,0.9745905156572532,-0.10152653766403445,0.19849266297920654,0.021596612806019055
1728666806193753000,0.219753173828125,-0.39402151107788086,0.11988493800163269,0.3173931837081909,0.3929663598537445,0.1913885772228241,-0.8994153141975403,0.026772409677505493,-0.0783209353685379,0.05177432298660278,0.9742466069677259,-0.10302443902429197,0.1991941721937388,0.02347921997822678
1728666806203784000,0.229783935546875,-0.3913160264492035,0.10764078795909882,0.31626906991004944,0.39461877942085266,0.1937090903520584,-0.8981941938400269,0.01889440417289734,-0.07173033058643341,0.056824564933776855,0.9738860476513559,-0.10465696004229201,0.19987450146781197,0.02536293894513014
1728666806213814000,0.23981396484375,-0.3416055738925934,0.07853637635707855,0.31992238759994507,0.3961024582386017,0.19575729966163635,-0.8970963954925537,0.030197620391845703,-0.061357900500297546,0.05349898338317871,0.9735532743424855,-0.10614759170346397,0.2004606977202593,0.027245669393135365
1728666806223845000,0.24984521484375,-0.27250799536705017,0.05271383374929428,0.3253629505634308,0.3973044157028198,0.19723016023635864,-0.8962419033050537,0.041339993476867676,-0.051295071840286255,0.03103804588317871,0.973280346102954,-0.10732798096934663,0.200897398608831,0.029095134874429177
1728666806233875000,0.259875,-0.24893522262573242,0.0532371960580349,0.30696797370910645,0.398391455411911,0.19826170802116394,-0.895531415939331,0.03562954068183899,-0.033695682883262634,0.01267319917678833,0.9730421740772206,-0.10826859762326055,0.2012764111254112,0.030898093946727816
1728666806243906000,0.269906005859375,-0.2534540891647339,0.07238079607486725,0.2260182648897171,0.3994884788990021,0.1994076818227768,-0.8947880268096924,0.017244309186935425,-0.0206967294216156,0.016797304153442383,0.972801401920423,-0.10921467441740677,0.20168826355756478,0.03242801861119835
1728666806253935900,0.279935791015625,-0.25014549493789673,0.08294183015823364,0.14360328018665314,0.4005536735057831,0.200949028134346,-0.8939666152000427,-0.011942833662033081,-0.0462096631526947,0.014404237270355225,0.9725525399195704,-0.11028109609628861,0.2021256596412089,0.03354172345294639
1728666806263967000,0.289967041015625,-0.24815425276756287,0.0970453992486,0.1090245395898819,0.40160876512527466,0.2026621252298355,-0.8931061029434204,-0.022214233875274658,-0.07692968845367432,0.00895082950592041,0.9723031443754631,-0.11137464801986208,0.2025898265431755,0.03434950782918274
1728666806273996800,0.299996826171875,-0.30840814113616943,0.12534163892269135,0.04922991991043091,0.40277010202407837,0.20477977395057678,-0.8920994997024536,0.0045938193798065186,-0.06729808449745178,0.004053235054016113,0.9720217941814578,-0.11264676584360425,0.20312792234891813,0.034979052001836285
1728666806284040000,0.3100400390625,-0.45596298575401306,0.1666182428598404,-0.0764065682888031,0.4040573537349701,0.20808741450309753,-0.8907510042190552,0.013240009546279907,-0.059344738721847534,0.008167386054992676,0.9716646939542946,-0.11447248811900593,0.20376593772028864,0.035261886314725925
1728666806294071000,0.320071044921875,-0.6688041090965271,0.19009827077388763,-0.21565155684947968,0.40535035729408264,0.213695228099823,-0.88883376121521,-0.05168214440345764,-0.1176411509513855,0.04493117332458496,0.9711807905552636,-0.11738655965106312,0.2044590697666367,0.03499944558501936
1728666806304100900,0.330100830078125,-0.8281739354133606,0.18677768111228943,-0.312258780002594,0.40647444128990173,0.2215266227722168,-0.8863997459411621,-0.09946757555007935,-0.1705927848815918,0.07734823226928711,0.970576752526638,-0.12138264903983342,0.20510089436486847,0.034362910323973817
1728666806314132000,0.340132080078125,-0.8618036508560181,0.1794341802597046,-0.3494109511375427,0.4073333740234375,0.23040485382080078,-0.8837381601333618,-0.0649566650390625,-0.1422090381383896,0.055872559547424316,0.9699209272772253,-0.1258786580224429,0.2056343342142374,0.0335056798079611
1728666806324162000,0.350162109375,-0.8743165135383606,0.20290115475654602,-0.36510467529296875,0.4081514775753021,0.23960478603839874,-0.8809097409248352,-0.046167224645614624,-0.10262662172317505,0.035893261432647705,0.9692248685998538,-0.1305258543262228,0.20617502905596513,0.03252823430321386
1728666806334193000,0.36019287109375,-0.8330060243606567,0.27171164751052856,-0.33160319924354553,0.4093707203865051,0.24854175746440887,-0.8778625130653381,-0.04370909929275513,-0.06720632314682007,0.02883303165435791,0.9684708674661857,-0.13505872254663626,0.2069489731010365,0.031551533598380116
1728666806344223000,0.370222900390625,-0.8233925104141235,0.3084203898906708,-0.32453036308288574,0.4111090898513794,0.2571660280227661,-0.8745598793029785,-0.027701467275619507,-0.06188404560089111,0.012682437896728516,0.9676479928101054,-0.13946415503277795,0.20801394955639033,0.030619068058645754
1728666806354251800,0.380251708984375,-0.803783118724823,0.3092536926269531,-0.32336097955703735,0.41298359632492065,0.26563286781311035,-0.8711393475532532,-0.025990188121795654,-0.07666802406311035,0.009429752826690674,0.9667930466931333,-0.14379980187874739,0.20916966874211387,0.0296802645314235
1728666806364283000,0.390282958984375,-0.8346126675605774,0.30036911368370056,-0.338965505361557,0.41474661231040955,0.2740771174430847,-0.8676790595054626,-0.024045288562774658,-0.09316888451576233,-0.016155719757080078,0.9659270954025893,-0.14812329457241505,0.21028539749358055,0.028712176646647627
1728666806374312700,0.400312744140625,-0.9637510180473328,0.3106190860271454,-0.3723580837249756,0.4164038598537445,0.28332775831222534,-0.8639057874679565,-0.012595266103744507,-0.08162185549736023,-0.01950174570083618,0.9649792746440641,-0.15287515661170528,0.2113676626614425,0.027712273099891
1728666806384343800,0.41034375,-1.123905062675476,0.30465441942214966,-0.42609748244285583,0.41795864701271057,0.29404088854789734,-0.8595641851425171,-0.012761503458023071,-0.08316439390182495,0.01006162166595459,0.9638834532004622,-0.15840529912651274,0.212428058701604,0.026662207166220368
1728666806394373600,0.42037353515625,-1.2192144393920898,0.2928178310394287,-0.4484888017177582,0.41920003294944763,0.3059661090373993,-0.8547842502593994,-0.03136739134788513,-0.11298820376396179,0.028200387954711914,0.9626731194958031,-0.16457719557084963,0.21335937808480934,0.025548396050512345
1728666806404404700,0.43040478515625,-1.2886489629745483,0.28018033504486084,-0.3601541519165039,0.4203270375728607,0.3185490667819977,-0.8496185541152954,-0.029076427221298218,-0.11731612682342529,0.03370058536529541,0.9613543441242602,-0.1711683927751357,0.21422441018808822,0.024642142668154225
1728666806414434600,0.4404345703125,-1.180705189704895,0.14174816012382507,-0.1925765872001648,0.4215129613876343,0.3300454616546631,-0.8446282148361206,0.020320534706115723,-0.10712981224060059,0.020012736320495605,0.9600574694950508,-0.17739053679348143,0.21498486841063574,0.024570946242026322
1728666806424465700,0.450465576171875,-1.156787633895874,0.17494313418865204,-0.23149709403514862,0.422104150056839,0.34079787135124207,-0.8400505185127258,0.0238645076751709,-0.08603712916374207,0.00444871187210083,0.9588607221787254,-0.18326383133092955,0.21538129414498677,0.02472613363754583
1728666806434495700,0.460495849609375,-1.047521948814392,0.28108519315719604,-0.27909576892852783,0.42304545640945435,0.3512027859687805,-0.8352779150009155,-0.061427414417266846,-0.00347021222114563,0.03365743160247803,0.9576226973423094,-0.1888892532796959,0.2160599113905407,0.02445270651695444
1728666806444526600,0.470526611328125,-0.9994146227836609,0.41340887546539307,-0.32531067728996277,0.424900621175766,0.36099663376808167,-0.8301451206207275,-0.0706220269203186,0.037242501974105835,0.02602219581604004,0.9562989916487017,-0.19414887287922417,0.21733302089968237,0.02377021905198117
1728666806454556700,0.480556640625,-1.0225169658660889,0.4861317276954651,-0.39517977833747864,0.42733433842658997,0.3708750307559967,-0.8245223760604858,-0.05311250686645508,0.059056639671325684,0.03710782527923584,0.9548544999807098,-0.19940692289292858,0.21903353842733178,0.022677260851764122
1728666806464587800,0.490587890625,-1.2219752073287964,0.5199363231658936,-0.383049339056015,0.42998892068862915,0.38172170519828796,-0.818167507648468,-0.02262502908706665,0.031913548707962036,0.04140365123748779,0.953216377195018,-0.20521162796652243,0.22091724066009075,0.021502320610322662
1728666806474617600,0.50061767578125,-1.6568269729614258,0.4990518093109131,-0.33337631821632385,0.4329574704170227,0.3948432505130768,-0.8103373646736145,0.016688555479049683,-0.05123057961463928,0.0607340931892395,0.9511736239710729,-0.21245766984299375,0.22291939257163476,0.02091563654865571
1728666806484648700,0.510648681640625,-2.2561187744140625,0.4448055922985077,-0.3855745494365692,0.4352587163448334,0.41221433877944946,-0.8003931641578674,0.006376415491104126,-0.15009886026382446,0.09545236825942993,0.9485582890339247,-0.2222149498419347,0.22455276907382202,0.02082653371661148
1728666806494678800,0.5206787109375,-2.8536369800567627,0.31527748703956604,-0.3353353440761566,0.43676063418388367,0.43420445919036865,-0.7878493666648865,-0.018913984298706055,-0.22146642208099365,0.13729095458984375,0.9452304941641889,-0.2348249864186067,0.2256823890767566,0.021541349035986004
1728666806504709600,0.530709716796875,-3.355272054672241,0.235480397939682,-0.219232439994812,0.4376464784145355,0.45975106954574585,-0.7727189064025879,-0.021966516971588135,-0.28714364767074585,0.1546006202697754,0.9411758325721469,-0.24986892565523797,0.22628755762024652,0.02339969807047397
1728666806514739700,0.54073974609375,-3.845661163330078,0.2777920067310333,-0.008007539436221123,0.43899857997894287,0.48784175515174866,-0.7545135021209717,-0.02562275528907776,-0.23097530007362366,0.13894349336624146,0.9362417807704931,-0.2669794696071358,0.2268594444861828,0.026608800498905533
1728666806524770800,0.550770751953125,-4.2440972328186035,0.3509455621242523,0.20027269423007965,0.4418241083621979,0.5176110863685608,-0.7327142953872681,0.010675281286239624,-0.11847168207168579,0.17007696628570557,0.9302577770432366,-0.28586782154401813,0.22786494069442217,0.03126943353778914
1728666806534800600,0.560800537109375,-4.5244340896606445,0.34826886653900146,0.21514484286308289,0.44554978609085083,0.5482323169708252,-0.707761824131012,0.03160789608955383,-0.09603804349899292,0.22317320108413696,0.9233205726129252,-0.3060302202729802,0.22905148401794856,0.0368817910799605
1728666806544831700,0.570831787109375,-4.763336658477783,0.28931739926338196,-0.008209672756493092,0.4484739899635315,0.5801277160644531,-0.6799434423446655,0.0008363425731658936,-0.10095590353012085,0.2573055028915405,0.9155261399376511,-0.32742956217251157,0.22982205072617964,0.042234729573397904
1728666806554861800,0.58086181640625,-4.578202724456787,0.1247265636920929,-0.34986236691474915,0.4488113224506378,0.6124155521392822,-0.6507809162139893,-0.03261256217956543,-0.12630099058151245,0.24340176582336426,0.90732622005121,-0.3492105488134419,0.2294810300863735,0.04636602298456144
1728666806564892700,0.590892578125,-4.519710540771484,-0.019658580422401428,-0.296754390001297,0.44671541452407837,0.6429284811019897,-0.622164249420166,-0.00791841745376587,-0.12080323696136475,0.15136957168579102,0.8992136097546527,-0.37015530301220934,0.22782215479109413,0.049970727818893244
1728666806574922800,0.6009228515625,-4.551557540893555,0.1317371129989624,-0.009815292432904243,0.44605472683906555,0.6712192296981812,-0.5920303463935852,0.01668328046798706,-0.04470860958099365,0.14218604564666748,0.890541368632943,-0.39068388008546967,0.22660745274882674,0.054325400105529296
1728666806584953900,0.610953857421875,-4.76698112487793,0.3100261688232422,0.14218541979789734,0.44787806272506714,0.6976763606071472,-0.5591539740562439,-0.013506025075912476,-0.07279831171035767,0.0852617621421814,0.8809276526550467,-0.4112896270269776,0.2264152281829642,0.05952883534716886
1728666806594984000,0.62098388671875,-5.0086283683776855,0.3081183135509491,0.14143919944763184,0.4506962299346924,0.7236048579216003,-0.5227512717247009,-0.06110882759094238,-0.11490118503570557,0.0864872932434082,0.8701401978047321,-0.432740384294163,0.226627719588792,0.06505108093800561
1728666806605014800,0.631014892578125,-5.116415023803711,0.15116067230701447,0.11181340366601944,0.45281219482421875,0.7486565113067627,-0.48422572016716003,-0.04770657420158386,-0.1096489429473877,0.11992216110229492,0.8585434243586132,-0.4546641987348991,0.2262025690510435,0.07082451801149588
1728666806615044900,0.641044921875,-5.111171245574951,0.015352507121860981,0.14014650881290436,0.45408961176872253,0.7719563245773315,-0.4448440372943878,-0.0000032782554626464844,-0.04293709993362427,0.1272018551826477,0.846463934727584,-0.4764350208692576,0.22491698260962512,0.07694792134678102
1728666806625075700,0.65107568359375,-5.088705062866211,-0.03052337095141411,0.26010724902153015,0.455547034740448,0.7928115725517273,-0.40487897396087646,0.03209340572357178,0.03082752227783203,0.10136640071868896,0.8339425707556778,-0.49770622246803364,0.22326896203413338,0.08354332246851864
1728666806635105800,0.661105712890625,-4.844500541687012,0.042749349027872086,0.3844880759716034,0.458209365606308,0.8105853199958801,-0.36468562483787537,0.03092634677886963,0.06571167707443237,0.05827394127845764,0.8210757996502779,-0.5180587402083966,0.22197371034720748,0.09042883244005305
1728666806645137000,0.671136962890625,-4.529865264892578,0.1821328103542328,0.4268791973590851,0.46193838119506836,0.824828028678894,-0.3259933888912201,-0.0035643577575683594,0.05449020862579346,-0.012156575918197632,0.8084433270632956,-0.5366931577657246,0.22127754776681313,0.097036515194475
1728666806655167000,0.6811669921875,-4.356328010559082,0.240796759724617,0.42930588126182556,0.4662333130836487,0.8365479111671448,-0.28777429461479187,-0.04832562804222107,0.08110034465789795,0.044686585664749146,0.7957770776363553,-0.5542633047021338,0.2211448427325961,0.103082161914741
1728666806665196500,0.691196533203125,-4.104794979095459,0.168473020195961,0.3841061592102051,0.4702114462852478,0.8460805416107178,-0.25109556317329407,-0.0611233115196228,0.0948527455329895,0.10603028535842896,0.7833959294335969,-0.5706819183509223,0.2208491937714126,0.10880556373790032
1728666806675227600,0.7012275390625,-3.809478759765625,0.0984668880701065,0.4249337613582611,0.4739142954349518,0.8534691333770752,-0.21678483486175537,-0.04355543851852417,0.1023871898651123,0.06320519745349884,0.7715650710796863,-0.5857296948598403,0.2202914132425213,0.1143667330656832
1728666806685257700,0.7112578125,-3.618959426879883,0.14399921894073486,0.4484332203865051,0.4779808819293976,0.8587986826896667,-0.18438825011253357,-0.01805049180984497,0.11260628700256348,0.04069627821445465,0.7601535437702189,-0.5995485478451669,0.21988045635977424,0.1198360464259411
1728666806695288600,0.72128857421875,-3.6163434982299805,0.2582867741584778,0.3964935839176178,0.4819105565547943,0.8628897070884705,-0.15226177871227264,-0.0392073392868042,0.14026886224746704,-0.004003390669822693,0.7487058681448014,-0.6128677552714624,0.21968665460636233,0.1247815592445664
1728666806705318700,0.731318603515625,-3.645294666290283,0.25015556812286377,0.5069021582603455,0.4861583411693573,0.8656488656997681,-0.11959147453308105,-0.05673021078109741,0.13296258449554443,0.02971726655960083,0.7368805765125982,-0.6260304537941509,0.2197501641766458,0.12962555184634125
1728666806715349800,0.741349853515625,-3.8706510066986084,0.2582358419895172,0.5185904502868652,0.4909869432449341,0.8669369220733643,-0.08574685454368591,-0.009572118520736694,0.04758340120315552,0.0591813325881958,0.7243393603008473,-0.6393803194057444,0.21981669527241438,0.13492999133675648
1728666806725379600,0.751379638671875,-3.8706958293914795,0.10514800995588303,0.40255308151245117,0.4951572120189667,0.8673090934753418,-0.050933774560689926,-0.042978256940841675,0.009994983673095703,0.142852783203125,0.7112015616696692,-0.6529985290614566,0.21937646490624882,0.14021121105516166
1728666806735410700,0.76141064453125,-3.7060048580169678,0.06293962895870209,0.2557937502861023,0.4980619549751282,0.8669657707214355,-0.017456796020269394,-0.037475407123565674,0.04694414138793945,0.04452592134475708,0.6982823806839834,-0.6661572775552633,0.21795890392574055,0.14536223739613102
1728666806745440800,0.771440673828125,-3.0859451293945312,0.27693819999694824,0.21143798530101776,0.49996674060821533,0.8659477829933167,0.012954461388289928,-0.02438083291053772,0.21657174825668335,-0.13383448123931885,0.686457179163459,-0.6778774140769627,0.21670127457934785,0.14932969707446578
1728666806755471600,0.7814716796875,-2.29433012008667,0.3205687701702118,0.37970849871635437,0.5023802518844604,0.8638194799423218,0.0378170944750309,-0.01887500286102295,0.343242347240448,-0.18997764587402344,0.6767063889233719,-0.6869861561351797,0.21669925750580477,0.15218407809914256
1728666806765501700,0.791501708984375,-1.6763744354248047,0.33357271552085876,0.5310636758804321,0.5062323808670044,0.8605429530143738,0.05652187392115593,0.049965739250183105,0.349814772605896,-0.23526322841644287,0.6691728667278679,-0.69338135330861,0.2179064861993618,0.15474757808665565
1728666806775532800,0.80153271484375,-1.2956186532974243,0.28035691380500793,0.5158039927482605,0.5106514692306519,0.85687255859375,0.07074407488107681,0.07679665088653564,0.27081310749053955,-0.19659852981567383,0.6632936933124388,-0.6979387122857026,0.21966700089326793,0.15706538039896964
1728666806785563000,0.81156298828125,-1.1740386486053467,0.2861170470714569,0.42323705554008484,0.5144534707069397,0.8535293340682983,0.08261828124523163,0.06290864944458008,0.1615312695503235,-0.10617779940366745,0.6583397266495994,-0.7016798336516673,0.22125675914480702,0.15899648742553743
1728666806795593700,0.82159375,-1.2053000926971436,0.26577427983283997,0.37397655844688416,0.5175600051879883,0.8504364490509033,0.0942847803235054,0.07118511199951172,0.07658076286315918,-0.06417907029390335,0.6535020609820463,-0.7053901713549038,0.22263668934421493,0.160601122253057
1728666806805623800,0.831623779296875,-1.158547282218933,0.1488436609506607,0.3937646448612213,0.520624041557312,0.847253680229187,0.10541242361068726,0.07759672403335571,0.02437412738800049,-0.0034378841519355774,0.6487673346311595,-0.7089898143758784,0.2236954476657182,0.16246456251541044
1728666806815654700,0.841654541015625,-1.0765173435211182,0.19573603570461273,0.4173019528388977,0.52388995885849,0.8438819646835327,0.11576937139034271,0.07809972763061523,-0.003778815269470215,-0.03085412085056305,0.6442555474798736,-0.7123021362774961,0.2247450791775416,0.16446913682319275
1728666806825684700,0.851684814453125,-1.019291877746582,0.1356615126132965,0.4972153902053833,0.5274749398231506,0.8402476906776428,0.12551474571228027,0.05348813533782959,-0.004249274730682373,-0.00643506646156311,0.6399451784397477,-0.7153031516502103,0.22605038393254315,0.1664715197737613
1728666806835715800,0.8617158203125,-0.9858710765838623,0.057613302022218704,0.6196545362472534,0.5321051478385925,0.8359472155570984,0.1343754529953003,0.04722529649734497,-0.016397535800933838,0.005929231643676758,0.6357908774371425,-0.7179172938832409,0.22755765456718444,0.16906335719522325
1728666806845746000,0.871745849609375,-1.3313357830047607,0.050690148025751114,0.5381807088851929,0.5370330214500427,0.8311218619346619,0.1443338394165039,0.040329039096832275,-0.045934975147247314,-0.046906352043151855,0.6310331701407725,-0.7209672580835451,0.22885177161062423,0.17213467484431091
1728666806855776800,0.88177685546875,-1.3163840770721436,0.023587215691804886,0.5029545426368713,0.5412168502807617,0.8263370394706726,0.15572988986968994,-0.007952570915222168,-0.05575275421142578,0.012437358498573303,0.6256706249214299,-0.7246488648798366,0.2296714305616993,0.17513274961733594
1728666806865806800,0.891806884765625,-1.1271058320999146,0.000603867694735527,0.3910785913467407,0.544985830783844,0.8218780159950256,0.16585350036621094,0.01684284210205078,-0.047707974910736084,-0.08290660381317139,0.6208038945166572,-0.7279536033350759,0.2302396660941899,0.17797731855266158
1728666806875837700,0.901837646484375,-1.0614843368530273,0.044411592185497284,0.4271199405193329,0.5480780005455017,0.8179298043251038,0.1749337911605835,-0.026303648948669434,0.09567511081695557,-0.03023456037044525,0.6164638053172796,-0.7308972825426907,0.23077274770281886,0.18029340599300328
1728666806885867800,0.91186767578125,-0.8310418725013733,-0.005269148387014866,0.6569126844406128,0.5525162816047668,0.8131909966468811,0.18288379907608032,-0.00973057746887207,0.16953611373901367,0.08264970779418945,0.6124205798382412,-0.7332380383302566,0.23195663554981158,0.18302804277969045
1728666806895899000,0.92189892578125,-0.7326594591140747,-0.07106158137321472,0.6821637153625488,0.5581781268119812,0.8079559206962585,0.18879836797714233,0.02214425802230835,0.10050678253173828,0.01960626244544983,0.6090524194206569,-0.7347107919225414,0.23366478844353292,0.18616161134280373
1728666806905929000,0.931928955078125,-0.9642974734306335,-0.11725091934204102,0.5143240690231323,0.5632419586181641,0.8029491305351257,0.19501663744449615,-0.028772294521331787,0.04119765758514404,0.00594174861907959,0.6055075213689521,-0.7364623802244347,0.2348009443748008,0.1893473927465359
1728666806915959800,0.941959716796875,-1.1749345064163208,-0.11502392590045929,0.39915701746940613,0.5670651793479919,0.7982488870620728,0.2030671089887619,-0.03779876232147217,0.0038143396377563477,-0.008654803037643433,0.601210066982593,-0.7390979211006493,0.23509107929236117,0.19238787340257046
1728666806925990000,0.951989990234375,-1.0369569063186646,-0.17567822337150574,0.3429369032382965,0.5703902244567871,0.7937719821929932,0.2111433446407318,-0.01628243923187256,-0.019372999668121338,-0.02140018343925476,0.5968610531747869,-0.7418733474093585,0.2349374559916687,0.1954108258903514
1728666806936020700,0.962020751953125,-0.8979253768920898,-0.24539366364479065,0.26216694712638855,0.5732354521751404,0.7900121808052063,0.21744461357593536,-0.042153239250183105,0.04227858781814575,0.0029839277267456055,0.5932857953739229,-0.7441358744781241,0.23448689522506982,0.19821644651024822
1728666806946050600,0.972050537109375,-1.0734115839004517,-0.2817612588405609,0.25708696246147156,0.5758134126663208,0.7863813042640686,0.22370389103889465,-0.0927048921585083,0.1871599555015564,0.06453464925289154,0.589669845811078,-0.7464885507537516,0.2336809486238329,0.20109095041544223
1728666806956080600,0.98208056640625,-1.0119534730911255,-0.3499377965927124,0.25444698333740234,0.5785831809043884,0.7824643850326538,0.2301982045173645,-0.08982890844345093,0.24442166090011597,0.09278464317321777,0.5858060978922329,-0.7489823082734067,0.2326469528328541,0.2042846497311405
1728666806966111700,0.99211181640625,-1.0703784227371216,-0.40147581696510315,0.1719750016927719,0.5811395645141602,0.7788353562355042,0.23599207401275635,-0.07254892587661743,0.16827762126922607,-0.024108439683914185,0.5821904109784306,-0.7513270162050943,0.23130878588409204,0.20750488940512613
1728666806976141600,1.0021416015625,-1.328533411026001,-0.48509103059768677,0.11205335706472397,0.5832614898681641,0.77517169713974,0.24272385239601135,-0.07590675354003906,0.12357091903686523,0.017667382955551147,0.5780454457535924,-0.7541842377962501,0.2292772572503335,0.21095383559610412
1728666806986172700,1.012172607421875,-1.5583103895187378,-0.5218037962913513,0.08383423089981079,0.5853406190872192,0.7709559202194214,0.25100448727607727,-0.045164287090301514,0.12696272134780884,0.00493130087852478,0.5730236634930406,-0.7576957322722527,0.22671439387296918,0.2148060289547243
1728666806996202800,1.02220263671875,-1.720085620880127,-0.5805984139442444,0.02552299201488495,0.5871789455413818,0.7664046287536621,0.2604716420173645,-0.031316399574279785,0.11994814872741699,0.01613977551460266,0.5673151142725112,-0.7617382859024809,0.2235857806465936,0.21890177977288572
1728666807006233600,1.032233642578125,-1.768060326576233,-0.6003809571266174,-0.05197712779045105,0.5886525511741638,0.7618366479873657,0.27035731077194214,-0.011046350002288818,0.112720787525177,-0.014543682336807251,0.5612962451609312,-0.7660418801740562,0.21990564091601006,0.22308709344368022
1728666807016263700,1.042263671875,-1.7875443696975708,-0.5571758151054382,-0.054473575204610825,0.5897829532623291,0.7572877407073975,0.28048479557037354,0.01704394817352295,0.15494388341903687,-0.0495428740978241,0.5551419274706626,-0.7704391392219164,0.21602299781959516,0.22710170961775106
1728666807026294800,1.052294677734375,-1.6327015161514282,-0.5980795621871948,-0.029324278235435486,0.5911203026771545,0.7525918483734131,0.2901419997215271,0.03709930181503296,0.19624537229537964,-0.017360597848892212,0.5491330792418021,-0.7745894984187377,0.2123254655067497,0.23104523053671042
1728666807036324900,1.062324951171875,-1.6754745244979858,-0.628064751625061,-0.05678333342075348,0.5926254391670227,0.7480526566505432,0.29868417978286743,0.03991234302520752,0.1911258101463318,-0.08599188923835754,0.5435164945875637,-0.7783577529638909,0.20856963844787169,0.2350483303549686
1728666807046355700,1.072355712890625,-1.8599777221679688,-0.5577328205108643,-0.1116950511932373,0.5938301682472229,0.7431036829948425,0.3084849715232849,0.0088767409324646,0.20336860418319702,-0.06716716289520264,0.5372376312825451,-0.7825771172584359,0.20448850054366857,0.23902586871849976
1728666807056385800,1.0823857421875,-1.5754098892211914,-0.48854371905326843,-0.17399784922599792,0.594382643699646,0.738484799861908,0.31835487484931946,-0.03237086534500122,0.1847483515739441,-0.020564287900924683,0.5310810627403483,-0.7867661377013626,0.20044072515356579,0.24243679408257787
1728666807066416600,1.092416748046875,-1.2530584335327148,-0.52963787317276,-0.20134665071964264,0.5946276187896729,0.7350957989692688,0.32565727829933167,-0.0594407320022583,0.15057021379470825,-0.05157873034477234,0.5262847295386184,-0.790044039840814,0.19661905065868662,0.24534859790847488
1728666807076446700,1.10244677734375,-1.0253928899765015,-0.5237591862678528,-0.22795988619327545,0.594765841960907,0.7326169610023499,0.33094796538352966,-0.06533151865005493,0.2078738808631897,-0.05117794871330261,0.5225288673103783,-0.7926111308084274,0.1929807556643099,0.2479714041951005
1728666807086477800,1.112477783203125,-0.8194711804389954,-0.5532332062721252,-0.2435375154018402,0.5948593020439148,0.7309259176254272,0.33449918031692505,-0.0747329592704773,0.27334654331207275,-0.04427698254585266,0.519637829368129,-0.7945915395598113,0.18940398891469426,0.2504534112937445
1728666807096508000,1.1225078125,-0.22334252297878265,-0.4954640865325928,-0.27146023511886597,0.5947965979576111,0.7306169867515564,0.33528465032577515,-0.03113698959350586,0.28148317337036133,-0.17845481634140015,0.5183064448198708,-0.7955621127485614,0.1863417643230333,0.25242045524606027
1728666807106538800,1.132538818359375,-0.1578892171382904,-0.43659329414367676,-0.27107298374176025,0.5943264365196228,0.7318395972251892,0.33344727754592896,-0.004848897457122803,0.2065759301185608,-0.26961973309516907,0.5185784873829627,-0.7955619772875417,0.18386075714663483,0.25367850945531356
1728666807116568800,1.14256884765625,-0.4700455665588379,-0.39000755548477173,-0.2024071216583252,0.5939677953720093,0.7321323156356812,0.33344411849975586,0.026668310165405273,0.1618344783782959,-0.13301977515220642,0.5179294761614508,-0.7961177201555591,0.18143495121809378,0.2550042161068235
1728666807126599700,1.152599609375,-0.7202655076980591,-0.4640929698944092,-0.17781469225883484,0.5940072536468506,0.7313119173049927,0.33516907691955566,0.058824777603149414,0.07090365886688232,-0.038736492395401,0.5162430394699282,-0.7972435736272027,0.17884971338588734,0.256726685934105
1728666807136629800,1.162629638671875,-0.9517975449562073,-0.5271790027618408,-0.11188440024852753,0.5945940613746643,0.7292843461036682,0.338529497385025,0.05390435457229614,-0.04491239786148071,0.05504053831100464,0.5134242345458517,-0.7989612223958208,0.1758570768810117,0.25909612760825973
1728666807146660900,1.172660888671875,-0.7287148833274841,-0.5004797577857971,-0.11999958753585815,0.5956079363822937,0.7270053029060364,0.34163522720336914,0.0502966046333313,-0.12091094255447388,0.09620055556297302,0.5105929494217244,-0.8005643262826329,0.17295771454172915,0.26168162836829534
1728666807156691000,1.18269091796875,-0.6767156720161438,-0.5757671594619751,-0.23828841745853424,0.5960955023765564,0.7257715463638306,0.34340333938598633,-0.0005602836608886719,-0.10534912347793579,0.15854987502098083,0.5085835005720106,-0.8017444096654333,0.17002225549249628,0.2638961347585646
1728666807166721800,1.1927216796875,-0.7813810706138611,-0.6861516833305359,-0.23230428993701935,0.5964798331260681,0.7246596813201904,0.34508004784584045,-0.02941751480102539,0.02709507942199707,0.2852148711681366,0.5064159811902906,-0.8030284784785712,0.16638895273143675,0.26646364950885315
1728666807176751900,1.202751953125,-0.39025527238845825,-0.6941571831703186,-0.0964718908071518,0.5977329611778259,0.7235519289970398,0.3452366292476654,-0.007095694541931152,0.11346906423568726,0.21125152707099915,0.5047960320126379,-0.8037409313531342,0.1631527999779862,0.2693748668726377
1728666807186782700,1.21278271484375,-0.21243974566459656,-0.5387347936630249,-0.04746253415942192,0.5993701815605164,0.7230187654495239,0.3435107469558716,-0.03670227527618408,0.09941476583480835,0.05131053924560547,0.5042915892835974,-0.8036483256774674,0.1609495063322196,0.27190948385378577
1728666807196812800,1.222812744140625,-0.299733430147171,-0.4708136022090912,-0.10458414256572723,0.6006271243095398,0.722600519657135,0.342192679643631,-0.0976821780204773,0.052484989166259766,0.07965195178985596,0.5038161373455913,-0.8036186688271488,0.15903888781164438,0.2739946531642897
1728666807206844000,1.232843994140625,-0.5441687107086182,-0.294567734003067,-0.17592810094356537,0.6008592247962952,0.7220742106437683,0.3428953289985657,-0.11913919448852539,-0.055753350257873535,0.1103975772857666,0.5026529523280414,-0.8042566455723545,0.1569041564523374,0.2754857714527057
1728666807216873700,1.242873779296875,-0.6910719871520996,-0.1958152800798416,-0.09567294269800186,0.6006788611412048,0.7207075357437134,0.3460724949836731,-0.07306033372879028,-0.13007020950317383,0.13670042157173157,0.5004517232680257,-0.8056422270572002,0.15484459224581693,0.2766081115057827
1728666807226903600,1.252903564453125,-0.6507991552352905,-0.22908082604408264,-0.07529976218938828,0.600849449634552,0.7188559174537659,0.349609375,-0.0011941790580749512,-0.15145772695541382,0.09397903084754944,0.49804046828314913,-0.807071249860929,0.15310351788920068,0.27776105849524146
1728666807236934700,1.2629345703125,-0.8286888003349304,-0.2840443253517151,-0.15574640035629272,0.6009222865104675,0.7169691324234009,0.353338360786438,0.006652176380157471,-0.1270642876625061,0.10166358947753906,0.4954257885502445,-0.8086279458235084,0.15096365743274798,0.27907749613213895
1728666807246964700,1.27296484375,-0.88579922914505,-0.2832464277744293,-0.19507384300231934,0.6006530523300171,0.7149644494056702,0.35782966017723083,0.0013977289199829102,-0.05531167984008789,0.19884157180786133,0.49238064097229867,-0.8105039639792496,0.14831775750836287,0.28044000758450144
1728666807256995600,1.28299560546875,-0.6392779350280762,-0.37166091799736023,-0.15628144145011902,0.6005379557609558,0.7131679654121399,0.36158767342567444,0.01382666826248169,0.0036289095878601074,0.17871078848838806,0.4896258113574636,-0.8121436818218415,0.14565879081629776,0.28190907448801816
1728666807267025700,1.293025634765625,-0.27466750144958496,-0.4728562533855438,-0.13174493610858917,0.6010481715202332,0.7124456763267517,0.3621641993522644,0.026103436946868896,0.012652158737182617,0.05334797501564026,0.488365846529545,-0.8127142860984011,0.1434488919888849,0.2835787980542131
1728666807277056800,1.303056884765625,-0.13864153623580933,-0.5201003551483154,-0.08611246198415756,0.6020991206169128,0.7123871445655823,0.36052995920181274,0.007413387298583984,0.019912898540496826,-0.031916528940200806,0.4880637420757882,-0.8125620055378948,0.1414495057050048,0.28553288637119606
1728666807287086800,1.3130869140625,0.03690897300839424,-0.3388421833515167,-0.07755785435438156,0.6031138896942139,0.7126551270484924,0.35829657316207886,-0.025248289108276367,0.011359155178070068,-0.11523929238319397,0.4882559397431174,-0.812127631510024,0.13998927303500266,0.28715479197502064
1728666807297117700,1.32311767578125,0.0715862587094307,-0.2929598391056061,-0.09397704154253006,0.6035870909690857,0.7134090662002563,0.3559919595718384,-0.08793163299560547,-0.04165607690811157,-0.11941960453987122,0.4888633256969524,-0.8115872421038987,0.13900407590722655,0.2881262136310278
1728666807307147800,1.333147705078125,0.09725194424390793,-0.2977263629436493,-0.10669630020856857,0.6039317846298218,0.7143074870109558,0.35359764099121094,-0.07890743017196655,-0.07220238447189331,-0.08223524689674377,0.48953439307255997,-0.8110308213069087,0.1379414041219698,0.2890628027966946
1728666807317178600,1.3431787109375,0.2535061836242676,-0.2719213366508484,-0.06415203213691711,0.6042884588241577,0.7154513597488403,0.35066303610801697,-0.053614139556884766,-0.08024328947067261,-0.07472306489944458,0.49055486314997215,-0.8102620134471507,0.1371385875156965,0.28986949032243303
1728666807327208700,1.353208740234375,0.3772704601287842,-0.2755964994430542,0.024790354073047638,0.6050564646720886,0.7167229652404785,0.3467203378677368,-0.022552192211151123,-0.08001941442489624,-0.07137537002563477,0.49208670068024796,-0.8090916129324144,0.13686098263965948,0.2906726149872256
1728666807337239800,1.36323974609375,0.43501660227775574,-0.371993750333786,0.11407602578401566,0.606681227684021,0.7176815867424011,0.3418644070625305,0.020104050636291504,-0.07958948612213135,-0.07155489921569824,0.4938357164199188,-0.8075767741776442,0.13693777052049225,0.29188044193341295
1728666807347270000,1.373269775390625,0.5464518070220947,-0.4365389049053192,0.13518662750720978,0.608966052532196,0.7185971140861511,0.3358260989189148,0.03391742706298828,-0.11489814519882202,-0.035227805376052856,0.49593246578796857,-0.8056663519211607,0.13716698531818478,0.29349303861319576
1728666807357301000,1.383301025390625,0.5008386969566345,-0.4702187776565552,0.1273747831583023,0.6114345192909241,0.7195953726768494,0.32913631200790405,0.02232414484024048,-0.16734915971755981,-0.04034838080406189,0.4982335976851316,-0.8035550617488125,0.13735874473897147,0.2952884201224129
1728666807367330800,1.393330810546875,0.24754276871681213,-0.4681236743927002,0.1516047567129135,0.6139664649963379,0.7199960947036743,0.32349860668182373,0.02385103702545166,-0.17977368831634521,-0.030514389276504517,0.49988573065283104,-0.8018088668741713,0.1373020154100421,0.29726276812533226
1728666807377361700,1.403361572265625,0.071134053170681,-0.4800495207309723,0.1770206242799759,0.6166878938674927,0.7194532752037048,0.3195052146911621,0.036113739013671875,-0.17994803190231323,0.013670653104782104,0.5005569740397517,-0.8006157105881873,0.1369930576256585,0.29948341633662123
1728666807387391700,1.413391845703125,0.011431843042373657,-0.4670197367668152,0.18331953883171082,0.6194902658462524,0.7184500694274902,0.3163246512413025,0.04557925462722778,-0.19040441513061523,0.013661950826644897,0.5007566771861525,-0.7996894264235467,0.13659848739759237,0.3017953337580218
1728666807397422800,1.4234228515625,-0.04415572062134743,-0.47487884759902954,0.20420750975608826,0.6223770976066589,0.7172092199325562,0.3134613037109375,0.05615079402923584,-0.16748076677322388,0.00997936725616455,0.5007385508236039,-0.7988679961054843,0.13616376239994038,0.304188046804174
1728666807407453000,1.433452880859375,-0.0854959636926651,-0.47649112343788147,0.22260542213916779,0.6253901720046997,0.7156556248664856,0.3110055923461914,0.07327932119369507,-0.10812681913375854,0.0049735307693481445,0.5004581433491648,-0.7981722669673957,0.1357344151922821,0.3066577309157124
1728666807417483800,1.44348388671875,-0.09660301357507706,-0.5103560090065002,0.20518861711025238,0.6284778714179993,0.7140017747879028,0.30857330560684204,0.08178836107254028,-0.05395221710205078,-0.002222508192062378,0.5000856866569102,-0.7974969921284779,0.13522276900492522,0.3092374743055297
1728666807427513900,1.453513916015625,-0.14591889083385468,-0.5361180901527405,0.16649554669857025,0.6314283609390259,0.7124621272087097,0.3060987889766693,0.07842594385147095,-0.009321630001068115,-0.004417121410369873,0.4996811585582678,-0.7968481287292256,0.13447103284483616,0.31188068886026604
1728666807437544700,1.463544677734375,-0.1507224440574646,-0.5572766661643982,0.12622882425785065,0.6341314315795898,0.7110658288002014,0.3037474453449249,0.0677574872970581,0.005761504173278809,0.018335163593292236,0.4991991142493295,-0.7962832090189338,0.13344199739385,0.3145257826811363
1728666807447574800,1.47357470703125,-0.11998850107192993,-0.6045773029327393,0.07926478236913681,0.6366443634033203,0.7099912762641907,0.3009926676750183,0.05528068542480469,-0.0354154109954834,0.015871405601501465,0.4988863995188931,-0.7956264403377021,0.13219265562951973,0.31720045318022033
1728666807457606000,1.48360595703125,-0.17061705887317657,-0.6312142610549927,0.027409840375185013,0.6388659477233887,0.7092492580413818,0.29801976680755615,0.04413264989852905,-0.09956908226013184,-0.008087456226348877,0.4986579360557944,-0.7949516840823339,0.13062047835999502,0.31989118681893935
1728666807467636000,1.493635986328125,-0.27711233496665955,-0.5982168912887573,0.012544606812298298,0.6408215165138245,0.7085040211677551,0.29558417201042175,0.03790473937988281,-0.13883239030838013,-0.01753842830657959,0.49816627839135175,-0.7944874407356081,0.12877029452065808,0.3225497584465021
1728666807477666800,1.503666748046875,-0.44464966654777527,-0.45387035608291626,0.0426764115691185,0.6425878405570984,0.7072715163230896,0.2947002351284027,0.03206431865692139,-0.14094144105911255,-0.031150341033935547,0.497032380177377,-0.794501452036978,0.12695497137772713,0.3249750972125246
1728666807487697000,1.51369677734375,-0.5629677772521973,-0.288837730884552,0.06382563710212708,0.6440781354904175,0.7053893804550171,0.2959554195404053,0.030619800090789795,-0.12625724077224731,-0.03213083744049072,0.49512665741568007,-0.795140384053227,0.12541720212449334,0.3269129223154112
1728666807497727000,1.52372705078125,-0.552372932434082,-0.1862245500087738,0.05475730821490288,0.6451960802078247,0.7033361196517944,0.29839611053466797,0.03887063264846802,-0.10203307867050171,-0.020289361476898193,0.4929393495586593,-0.7961062504058628,0.124148688300838,0.3283484569746232
1728666807507757800,1.5337578125,-0.48200076818466187,-0.08197378367185593,0.05230294167995453,0.6459543108940125,0.7014277577400208,0.3012349009513855,0.07003384828567505,-0.0537378191947937,-0.04070627689361572,0.49085002657488114,-0.7971471658659175,0.12318218098054566,0.3293158391074304
1728666807517788000,1.543787841796875,-0.35620182752609253,-0.050308264791965485,0.056864671409130096,0.6465296745300293,0.6998031735420227,0.3037686049938202,0.11242735385894775,0.008357346057891846,-0.01934465765953064,0.48912358501022934,-0.7980382291332001,0.12255323205200012,0.3299605771809732
1728666807527819000,1.553819091796875,-0.31376028060913086,-0.07084900885820389,0.08258388191461563,0.6471784710884094,0.6983649134635925,0.30569106340408325,0.15720397233963013,0.06457465887069702,-0.00039312243461608887,0.48773701873203174,-0.7987032768017568,0.12214173544211836,0.33055602273081797
1728666807537848800,1.563848876953125,-0.33118170499801636,-0.14790640771389008,0.13613098859786987,0.648260235786438,0.6966882348060608,0.3072208762168884,0.1955966353416443,0.09109270572662354,0.018584877252578735,0.486347264524155,-0.7992374474021401,0.12177823514256851,0.3314454454869388
1728666807547880000,1.5738798828125,-0.3178831934928894,-0.23784402012825012,0.1902778446674347,0.6500058174133301,0.6946128010749817,0.3082306683063507,0.21045279502868652,0.06457322835922241,0.0017060637474060059,0.48488171798236485,-0.7996089315887404,0.12141207002667333,0.3328282012049333
1728666807557910000,1.583909912109375,-0.3103834092617035,-0.3199864625930786,0.1991749405860901,0.6522515416145325,0.6923747658729553,0.30852171778678894,0.18566977977752686,0.006447494029998779,-0.0436137318611145,0.48349304209185473,-0.7997614369715327,0.1210062188929529,0.3346249267892501
1728666807567940900,1.59394091796875,-0.3484085500240326,-0.33364954590797424,0.1644720882177353,0.6545543670654297,0.6901489496231079,0.30863088369369507,0.12329292297363281,-0.03766787052154541,-0.06888476014137268,0.48206191807601756,-0.7998893497276826,0.12038465134430097,0.336601958257598
1728666807577971000,1.603970947265625,-0.40843355655670166,-0.2765258550643921,0.11247093975543976,0.6564656496047974,0.6880952715873718,0.3091566264629364,0.04630839824676514,-0.061615169048309326,-0.08968940377235413,0.4805510601437681,-0.8001688409691919,0.11961661884333029,0.3383672410467206
1728666807588002000,1.614001953125,-0.49098220467567444,-0.17092564702033997,0.0738053023815155,0.6578277945518494,0.6860625743865967,0.3107753098011017,-0.02010190486907959,-0.04293501377105713,-0.10192808508872986,0.4786985374846778,-0.8008172855646776,0.11865632924985342,0.3397944862319377
1728666807598032000,1.624031982421875,-0.5019246339797974,-0.0844842940568924,0.030966758728027344,0.658562183380127,0.6841734051704407,0.3133734464645386,-0.06104320287704468,0.0015108585357666016,-0.09576773643493652,0.47669298661283194,-0.8017652139558702,0.11772540259244359,0.3407010014945537
1728666807608063000,1.63406298828125,-0.44608452916145325,-0.046914808452129364,0.025199685245752335,0.6589390635490417,0.6824812293052673,0.3162578046321869,-0.08308756351470947,0.05702084302902222,-0.07025551795959473,0.47474413593999837,-0.8027924559595228,0.11684678626264923,0.34130514121540645
1728666807618092800,1.6440927734375,-0.32728782296180725,-0.04694218561053276,0.036995887756347656,0.6592943668365479,0.6810533404350281,0.31858721375465393,-0.0814591646194458,0.10698693990707397,-0.06584057211875916,0.47316833625193744,-0.8036109329161113,0.11620275714219754,0.34178693571771324
1728666807628124000,1.6541240234375,-0.30982068181037903,-0.050505492836236954,0.07569268345832825,0.6598201394081116,0.6796984672546387,0.3203865885734558,-0.08570820093154907,0.16119825839996338,-0.048474907875061035,0.4718496725980064,-0.8042327385704632,0.11577129150681746,0.34229324220485174
1728666807638153700,1.66415380859375,-0.25286945700645447,-0.02153882384300232,0.13157431781291962,0.6606894731521606,0.6780287027359009,0.32212838530540466,-0.09117043018341064,0.1935076117515564,-0.029754638671875,0.47049666101450904,-0.8047974272181231,0.11560835188257736,0.3428830603427496
1728666807648184800,1.674184814453125,-0.06029680371284485,-0.03748157247900963,0.10212242603302002,0.6615959405899048,0.6767143607139587,0.32303014397621155,-0.11272203922271729,0.15078502893447876,-0.08407750725746155,0.46966767305299134,-0.8050543415007851,0.11576954107523307,0.3433616077575278
1728666807658215000,1.68421484375,0.034544482827186584,-0.0038207611069083214,0.07725436240434647,0.6622666120529175,0.6761165261268616,0.3229082226753235,-0.15523219108581543,0.07159477472305298,-0.12498638033866882,0.4695084342180593,-0.8049753551033692,0.11605507991915757,0.3436682352420448
1728666807668245800,1.694245849609375,0.042309463024139404,0.09094969183206558,0.11644463986158371,0.6627606153488159,0.6756396293640137,0.3228929936885834,-0.17603570222854614,0.01800978183746338,-0.11335918307304382,0.46949712404873795,-0.8048919490737256,0.11659950202898858,0.34369481589224693
1728666807678275800,1.70427587890625,-0.0005521154962480068,0.2683512270450592,0.214908629655838,0.6633062362670898,0.6746084094047546,0.3239266574382782,-0.17789363861083984,-0.005251109600067139,-0.10186544060707092,0.4691946595072386,-0.8050495140002841,0.11772258302443789,0.3433556593071718
1728666807688306700,1.714306640625,-0.007259819190949202,0.4465917944908142,0.2671041786670685,0.663802981376648,0.6729407906532288,0.3263690769672394,-0.1740567684173584,-0.003003537654876709,-0.062452882528305054,0.46852640630750136,-0.8055381275868072,0.11955275441873663,0.34248890487199657
1728666807698336800,1.724336669921875,-0.022509081289172173,0.5200678706169128,0.233385369181633,0.6638877987861633,0.6712245941162109,0.3297136425971985,-0.17003697156906128,0.016351819038391113,-0.012574881315231323,0.4677596209298147,-0.8062506261851069,0.1217240468886026,0.3410928149223878
1728666807708368000,1.734367919921875,-0.07018712162971497,0.5161612629890442,0.20300935208797455,0.6635951995849609,0.6696258187294006,0.33353137969970703,-0.1433466672897339,0.07031875848770142,0.0019790232181549072,0.4668578886657255,-0.8071316367603306,0.12371017154544996,0.339526424660229
1728666807718398000,1.74439794921875,0.1051739826798439,0.5227794051170349,0.20088867843151093,0.663203239440918,0.6683000922203064,0.336952269077301,-0.10090148448944092,0.13469380140304565,-0.021003693342208862,0.46619824850188796,-0.8078802144435746,0.12572070900674406,0.33791005376752453
1728666807728428800,1.7544287109375,0.4343489408493042,0.6268916726112366,0.22001656889915466,0.6626468896865845,0.6678392291069031,0.33895444869995117,-0.0748935341835022,0.1592940092086792,-0.09606492519378662,0.4665742014071904,-0.8080865626598823,0.12834845070776257,0.3359038251355398
1728666807738459000,1.764458984375,0.713310956954956,0.7417523860931396,0.22752001881599426,0.6618414521217346,0.6683046817779541,0.33961060643196106,-0.06777089834213257,0.16476428508758545,-0.12401899695396423,0.4680935759770247,-0.80772797814618,0.13183630104308777,0.33329165288570334
1728666807748490000,1.774489990234375,0.9034832715988159,0.8302947878837585,0.1617836207151413,0.6604639887809753,0.6697848439216614,0.33937594294548035,-0.07182556390762329,0.13905316591262817,-0.1129659116268158,0.4705508498097457,-0.8069865998771477,0.13586977422427401,0.32999104924942035
1728666807758519800,1.784519775390625,0.8932836651802063,0.8671022057533264,0.08874137699604034,0.6584241986274719,0.6720618605613708,0.33883771300315857,-0.07636231184005737,0.07284188270568848,-0.09822174906730652,0.47344364028449476,-0.8061368984250104,0.13986478982927297,0.32623987086745915
1728666807768551000,1.794551025390625,0.7725937366485596,0.9009155631065369,0.050783075392246246,0.6558566093444824,0.6744774580001831,0.33901727199554443,-0.048861920833587646,0.00873500108718872,-0.1110813319683075,0.4760967051704792,-0.805533949733633,0.14360948898648346,0.3222164774466636
1728666807778581000,1.8045810546875,0.6420192718505859,0.9562844634056091,0.04543065279722214,0.653043806552887,0.676554262638092,0.34030666947364807,-0.021223008632659912,-0.04070514440536499,-0.09895822405815125,0.4781848854406085,-0.8052974766502718,0.14713704327729857,0.31809759600730797
1728666807788611800,1.81461181640625,0.5998944640159607,1.0230076313018799,0.041079312562942505,0.6499474048614502,0.6783920526504517,0.34256771206855774,-0.0018456578254699707,-0.07858431339263916,-0.06353014707565308,0.47988299867810075,-0.8053434783401915,0.1506842328148003,0.31373308120581195
1728666807798642000,1.824641845703125,0.5234984755516052,1.059672236442566,0.05240786820650101,0.6466452479362488,0.6800482869148254,0.34552001953125,0.01253432035446167,-0.07456433773040771,-0.016845643520355225,0.481291095962711,-0.8055829386157048,0.15425999293064965,0.3091906015309981
1728666807808672000,1.834672119140625,0.513802707195282,1.0535231828689575,0.07460345327854156,0.6433780193328857,0.6814437508583069,0.34885498881340027,0.03543984889984131,-0.02800118923187256,0.03255382180213928,0.482442067174143,-0.8059237499432825,0.15784298288430262,0.3046676680290706
1728666807818702800,1.844702880859375,0.5776666402816772,1.0658539533615112,0.10514058917760849,0.6402824521064758,0.682773768901825,0.35193535685539246,0.058982014656066895,0.006725192070007324,0.02483472228050232,0.4836558383196142,-0.8061369976218861,0.1615884273927568,0.3001822849205248
1728666807828733000,1.85473291015625,0.7323678135871887,1.14542555809021,0.12923367321491241,0.6372038125991821,0.6843224763870239,0.3545058071613312,0.07855546474456787,0.00891488790512085,-0.011198163032531738,0.4852108262645077,-0.8060977615336258,0.16570847846399622,0.2954956319796521
1728666807838764000,1.864763916015625,0.8241665959358215,1.211503267288208,0.12414304167032242,0.6338585019111633,0.6863072514533997,0.3566591441631317,0.09244459867477417,-0.000012695789337158203,-0.02481094002723694,0.4871998302825429,-0.8058147651126853,0.17027076051361972,0.2903562656207648
1728666807848793900,1.8747939453125,0.7997385263442993,1.1926262378692627,0.11652480065822601,0.6303536295890808,0.6884888410568237,0.3586609363555908,0.10043561458587646,0.007708728313446045,0.04626166820526123,0.48929213970908547,-0.805447029209286,0.1748872488324662,0.2850663670195409
1728666807858825000,1.884824951171875,0.6985542178153992,1.1633599996566772,0.12688182294368744,0.626953661441803,0.6904211640357971,0.3608984053134918,0.12275630235671997,0.023125529289245605,0.06285351514816284,0.49109264053189466,-0.8051678658151389,0.17931509613603036,0.27996212867823317
1728666807868855000,1.89485498046875,0.722987949848175,1.1296422481536865,0.12971515953540802,0.6236738562583923,0.6921664476394653,0.3632311522960663,0.13578665256500244,0.006594657897949219,0.06544935703277588,0.492700985571454,-0.804918755598973,0.18363380122914932,0.2750095821450065
1728666807878886000,1.904885986328125,0.7894434928894043,1.120670199394226,0.14380568265914917,0.6205012798309326,0.6941056847572327,0.3649604022502899,0.12588250637054443,-0.034544408321380615,0.07978764176368713,0.4945406058028785,-0.8044465560961863,0.18800517179132148,0.2700918197716921
1728666807888915700,1.914915771484375,0.7494012713432312,1.1046347618103027,0.1842585653066635,0.6175516247749329,0.6959412097930908,0.3664640188217163,0.11308497190475464,-0.055575549602508545,0.09873077273368835,0.4963847001157949,-0.8038609772454369,0.1924565791038445,0.26527385788095736
1728666807898947000,1.924947021484375,0.7183987498283386,1.0896625518798828,0.24411070346832275,0.6149766445159912,0.6973240971565247,0.36816170811653137,0.09252762794494629,-0.06928753852844238,0.14325201511383057,0.49797679770447806,-0.8032825193147187,0.19702297280653286,0.26064984596088486
1728666807908977000,1.934976806640625,0.6750052571296692,1.057890772819519,0.30674347281455994,0.6129533648490906,0.6982176303863525,0.3698391914367676,0.06752771139144897,-0.09802812337875366,0.13692066073417664,0.4993741139250674,-0.8026380298490065,0.20172206906529122,0.2563321246749534
1728666807919007700,1.9450078125,0.6105929017066956,1.0787392854690552,0.3138163089752197,0.611194908618927,0.6986685395240784,0.3718915283679962,0.05175375938415527,-0.1228017807006836,0.07212412357330322,0.500463925876698,-0.8020650459395593,0.20648831962774342,0.2521709323539278
1728666807929037800,1.955037841796875,0.529251217842102,1.0725152492523193,0.27918508648872375,0.6092464327812195,0.6989969611167908,0.3744628131389618,0.031134486198425293,-0.12042933702468872,0.06380024552345276,0.5012709218650492,-0.8016632277037316,0.21111009301202358,0.2479842741534893
1728666807939068700,1.965068603515625,0.44404318928718567,1.0364266633987427,0.2812644839286804,0.6072027683258057,0.699141263961792,0.377500057220459,0.02870720624923706,-0.09303164482116699,0.10244995355606079,0.5017517508904379,-0.8014490727291534,0.21547485485309553,0.24391632142797914
1728666807949098800,1.9750986328125,0.3591544032096863,0.9552145600318909,0.307150661945343,0.6054668426513672,0.6988838911056519,0.3807511329650879,0.04913526773452759,-0.06825333833694458,0.11601412296295166,0.5019209431153002,-0.8013293886888204,0.21965149224108968,0.24020800650926943
1728666807959129900,1.9851298828125,0.2614481449127197,0.8586744070053101,0.3180168867111206,0.6041803956031799,0.6981716156005859,0.38408657908439636,0.05800521373748779,-0.05634111166000366,0.1348648965358734,0.5017817619422796,-0.8012880432741964,0.22356378947944883,0.23700587924463498
1728666807969160000,1.995159912109375,0.225713849067688,0.7740693092346191,0.3223772943019867,0.60325688123703,0.6971522569656372,0.38737571239471436,0.04264765977859497,-0.05053055286407471,0.14317244291305542,0.5014335713905537,-0.8012952129268059,0.22718679023886226,0.23425742455371845
1728666807979190800,2.005190673828125,0.2008066326379776,0.7098075151443481,0.3298996686935425,0.6026678681373596,0.6960018277168274,0.390349805355072,0.02484983205795288,-0.03657799959182739,0.09622249007225037,0.5010614065073884,-0.8012443523429605,0.23061307233890513,0.2318676159630773
1728666807989220900,2.015220947265625,0.19556713104248047,0.688814640045166,0.3249261975288391,0.6022263169288635,0.6947733759880066,0.3932096064090729,0.00307464599609375,-0.014963686466217041,0.04616743326187134,0.5006449415594392,-0.8011828673798983,0.23390341790645824,0.22967366386020321
1728666807999252000,2.025251953125,0.2840147018432617,0.7168254256248474,0.2979672849178314,0.6016156673431396,0.6938291192054749,0.39580321311950684,-0.02049994468688965,-0.008846700191497803,0.005426764488220215,0.5004077621072947,-0.8010270690907144,0.2371860959990341,0.22735571474586294
1728666808009281800,2.03528173828125,0.3223775327205658,0.7276365756988525,0.2821044325828552,0.6007358431816101,0.6933322548866272,0.3980037271976471,-0.03490948677062988,-0.016376078128814697,0.00020501017570495605,0.5004642442342424,-0.800721874431681,0.2405126642965296,0.22479708702755644
1728666808019313000,2.04531298828125,0.3079054653644562,0.6863178014755249,0.30484169721603394,0.5999219417572021,0.6928300261497498,0.40010055899620056,-0.028739631175994873,-0.01894080638885498,0.0380861759185791,0.5005337077880678,-0.8003763070650293,0.24381970239782896,0.22229665687774128
1728666808029343000,2.055343017578125,0.29648342728614807,0.5904030203819275,0.33484700322151184,0.5995636582374573,0.6921265721321106,0.40185120701789856,-0.016647398471832275,-0.025897324085235596,0.05246412754058838,0.5006048898429606,-0.7999349563282818,0.24704183437568966,0.22015725500277936
1728666808039372800,2.065372802734375,0.2518891990184784,0.5282271504402161,0.3582783043384552,0.5997195839881897,0.6911521553993225,0.4032931923866272,-0.007403910160064697,-0.015401363372802734,0.016491413116455078,0.5006338310796268,-0.7994230774790039,0.25013863849883394,0.2184474509448599
1728666808049404000,2.07540380859375,0.22873246669769287,0.4992782771587372,0.3628450930118561,0.6001723408699036,0.6899214386940002,0.4047248363494873,-0.020490825176239014,0.016423404216766357,0.01196238398551941,0.5005412375667045,-0.7989267352299443,0.25313730354402586,0.21701679986237005
1728666808059434000,2.08543408203125,0.22896915674209595,0.5007697343826294,0.308312326669693,0.6004855632781982,0.6888037323951721,0.4061610698699951,-0.04880398511886597,0.038033485412597656,-0.007143616676330566,0.5004457315331553,-0.798465434889734,0.2559950829682527,0.21557743246531158
1728666808069464800,2.09546484375,0.21170733869075775,0.47856882214546204,0.21478211879730225,0.6002800464630127,0.6881441473960876,0.4075801968574524,-0.0740959644317627,0.06133711338043213,-0.011873960494995117,0.5004260622950724,-0.7980960082039559,0.25852053176892126,0.21397127077534403
1728666808079495000,2.105494873046875,0.1397431492805481,0.3732317090034485,0.14189647138118744,0.5997399687767029,0.6878102421760559,0.40893658995628357,-0.08478635549545288,0.09484362602233887,0.02909749746322632,0.5003888754649091,-0.7978808300214868,0.2604889143968116,0.21246809187026253
1728666808089526000,2.115526123046875,0.12408402562141418,0.24609613418579102,0.12218987196683884,0.5993521809577942,0.6875573992729187,0.40992969274520874,-0.07855433225631714,0.10335153341293335,0.02818077802658081,0.5003533152670278,-0.7977234934367132,0.26191997437504017,0.21138096232684753
1728666808099556000,2.12555615234375,0.1702064424753189,0.1381533145904541,0.11105573177337646,0.5993789434432983,0.6874458193778992,0.41007769107818604,-0.07922196388244629,0.06977170705795288,-0.02366393804550171,0.5005539357398557,-0.7974109233697637,0.2630107616546919,0.21072998335552043
1728666808109587000,2.1355869140625,0.2633712887763977,0.08866911381483078,0.08006053417921066,0.5996028780937195,0.6877356171607971,0.4092632830142975,-0.10006058216094971,0.022576332092285156,-0.06046247482299805,0.5011620937550949,-0.7968580267395338,0.2639108329210776,0.21024989929740706
1728666808119617000,2.145616943359375,0.33754637837409973,0.06029249727725983,0.035603854805231094,0.5997096300125122,0.6886346936225891,0.40759170055389404,-0.12767887115478516,-0.008382558822631836,-0.05343502759933472,0.502220531907458,-0.7960930860804126,0.2646349297156755,0.20971129018858833
1728666808129647900,2.15564794921875,0.335886687040329,0.03502602502703667,-0.004853557329624891,0.5996065139770508,0.6899434924125671,0.4055250287055969,-0.135098397731781,-0.0049152374267578125,-0.010535895824432373,0.5035073350843852,-0.7952600253379397,0.2651867257759154,0.20908859147290254
1728666808139678000,2.165677978515625,0.24848760664463043,-0.03954829275608063,-0.037622157484292984,0.5994721055030823,0.6912569403648376,0.4034811556339264,-0.11552441120147705,0.019070208072662354,0.03098234534263611,0.5047026094197586,-0.7945413155037477,0.26541416741396406,0.2086497351000658
1728666808149709000,2.175708984375,0.20775961875915527,-0.10323991626501083,-0.07889076322317123,0.5993622541427612,0.6925036311149597,0.40150216221809387,-0.08109742403030396,0.02720773220062256,0.034823060035705566,0.5057447974899208,-0.7939803019649992,0.26522888918714443,0.20849760793764352
1728666808159739000,2.18573876953125,0.22960205376148224,-0.1625368595123291,-0.12102330476045609,0.599200427532196,0.6939831972122192,0.3991820812225342,-0.060397326946258545,-0.004545271396636963,0.03461015224456787,0.506894558557532,-0.7934215184046668,0.26471368054863265,0.2084872882088273
1728666808169769700,2.195769775390625,0.23493662476539612,-0.20658767223358154,-0.14638273417949677,0.5989902019500732,0.6957460641860962,0.396419882774353,-0.04468411207199097,-0.04091501235961914,0.0537450909614563,0.5082244863024847,-0.7928052808815816,0.2639502298971545,0.20856210678672993
1728666808179799800,2.2057998046875,0.15977923572063446,-0.26058149337768555,-0.15304969251155853,0.5988539457321167,0.6974462270736694,0.39362749457359314,-0.027946412563323975,-0.05271667242050171,0.06221359968185425,0.5094840229008407,-0.7922518047780671,0.26296544125935706,0.20883546453227855
1728666808189830700,2.21583056640625,0.11511562764644623,-0.3061543107032776,-0.13961350917816162,0.5989614129066467,0.698838472366333,0.3909864127635956,-0.010750293731689453,-0.05384933948516846,0.04877197742462158,0.5105386651437127,-0.7918033458830017,0.26180271983304426,0.209421055273358
1728666808199860700,2.22586083984375,0.14239324629306793,-0.3275854289531708,-0.15261027216911316,0.599189281463623,0.7001898884773254,0.38820981979370117,-0.0022348761558532715,-0.06537836790084839,0.006413161754608154,0.5115983633474074,-0.7913406594712741,0.2605472549108076,0.2101485568176086
1728666808209891800,2.235891845703125,0.1675574630498886,-0.3705579340457916,-0.15636612474918365,0.5994310975074768,0.7017343044281006,0.3850345015525818,0.0012921690940856934,-0.06782311201095581,-0.012124896049499512,0.5128296179921653,-0.7907824987134322,0.25919160525502477,0.21092325874400636
1728666808219922000,2.245921875,0.20364730060100555,-0.41288232803344727,-0.13665473461151123,0.5998780727386475,0.7033360004425049,0.3813987970352173,0.007955849170684814,-0.05912512540817261,-0.008214473724365234,0.5142189483804128,-0.79009143896781,0.25778851971430994,0.21184798673599295
1728666808229952800,2.255952880859375,0.24261653423309326,-0.4524134695529938,-0.12238737940788269,0.6006188988685608,0.7049625515937805,0.37720683217048645,0.018750667572021484,-0.05866122245788574,-0.012262225151062012,0.5158023475291353,-0.7892164767856797,0.2563996313851444,0.21294272597716876
1728666808239982800,2.26598291015625,0.2502968907356262,-0.4750930964946747,-0.12546466290950775,0.6015000343322754,0.7066358923912048,0.37264448404312134,0.014070093631744385,-0.06305056810379028,0.017599135637283325,0.5175130385193093,-0.7882315044356952,0.2549771281513118,0.21414525518147254
1728666808250014000,2.276013916015625,0.16418489813804626,-0.49644899368286133,-0.1369040161371231,0.6023705005645752,0.7082181572914124,0.36820852756500244,0.008759379386901855,-0.06609755754470825,0.06497344374656677,0.5191143229943281,-0.7873217569661707,0.2534338454795332,0.2154444720591288
1728666808260043800,2.286043701171875,0.05329973250627518,-0.5185900330543518,-0.14375978708267212,0.6032137870788574,0.709469199180603,0.3643997311592102,0.016613543033599854,-0.0693170428276062,0.10525062680244446,0.5203279178663793,-0.7866772399311847,0.2516719872111963,0.21693133901532244
1728666808270073900,2.296073974609375,-0.018100949004292488,-0.5703248977661133,-0.11376751959323883,0.6042695641517639,0.7103181481361389,0.3609797954559326,0.031426846981048584,-0.09494644403457642,0.13750967383384705,0.5212196838945787,-0.7862036270927297,0.2497473911915295,0.21872388691967934
1728666808280105000,2.30610498046875,-0.09811782091856003,-0.6330137848854065,-0.052547309547662735,0.6058287620544434,0.7106219530105591,0.3577542304992676,0.05576181411743164,-0.1234484314918518,0.12428626418113708,0.5218332161109627,-0.7857986545233789,0.24778537713564358,0.22093667138616344
1728666808290134800,2.316134765625,-0.20335450768470764,-0.6932776570320129,-0.018957659602165222,0.607959508895874,0.7102976441383362,0.35477182269096375,0.07058364152908325,-0.13270658254623413,0.1049756109714508,0.522106958446661,-0.7854898884893512,0.24574692905404277,0.22364842900894286
1728666808300166000,2.326165771484375,-0.26678693294525146,-0.7565012574195862,-0.009622746147215366,0.6104353070259094,0.7095242738723755,0.3520568311214447,0.0621415376663208,-0.1262723207473755,0.09151619672775269,0.5220636267106087,-0.7853166143668672,0.24352870171443922,0.22676225217763987
1728666808310196000,2.336196044921875,-0.24977253377437592,-0.7952529191970825,0.01938147470355034,0.6131939888000488,0.7085791826248169,0.3491550087928772,0.05373728275299072,-0.11386775970458984,0.035809069871902466,0.5219677673772425,-0.7851119948916333,0.2411983815266829,0.23015724533731485
1728666808320226800,2.346226806640625,-0.18831756711006165,-0.8042617440223694,0.05364757031202316,0.6162572503089905,0.7075876593589783,0.345755398273468,0.04930061101913452,-0.09419959783554077,-0.01744726300239563,0.5220295699454852,-0.7847066734106964,0.23898354585175327,0.23368240446976846
1728666808330257000,2.3562568359375,-0.1518857777118683,-0.755427896976471,0.07422395050525665,0.6194201111793518,0.7065853476524353,0.34213459491729736,0.029231011867523193,-0.05228841304779053,-0.012834548950195312,0.5222082725845376,-0.7841551615192096,0.23699784685008723,0.237131415805813
1728666808340288000,2.3662880859375,-0.08465561270713806,-0.7158257365226746,0.09704084694385529,0.622549831867218,0.7056230306625366,0.3384200632572174,0.003319978713989258,-0.018977463245391846,0.005131721496582031,0.5224906220703068,-0.7834943276054684,0.23525871789017733,0.24040305204303464
1728666808350319000,2.376319091796875,-0.019510691985487938,-0.6538390517234802,0.11697886884212494,0.6256174445152283,0.7048045992851257,0.3344452679157257,-0.005957961082458496,-0.002381443977355957,-0.01704704761505127,0.5229892269291084,-0.7826570718879509,0.2338173276440171,0.24343326560074066
1728666808360350200,2.38635009765625,-0.035432200878858566,-0.5391298532485962,0.15944457054138184,0.6286118626594543,0.7038292288780212,0.33086562156677246,-0.001170337200164795,0.020993947982788086,-0.027536004781723022,0.5234073204059645,-0.7818315853463281,0.23274920057806833,0.24619533424588289
1728666808370380300,2.39638037109375,-0.005524903070181608,-0.43489953875541687,0.17185276746749878,0.6313985586166382,0.7026997208595276,0.3279466927051544,0.02414947748184204,0.03362846374511719,-0.018727213144302368,0.5236853223392797,-0.7810864551861607,0.23211483008918535,0.24855655186715642
1728666808380411100,2.4064111328125,-0.06548304855823517,-0.411857008934021,0.14915943145751953,0.633899450302124,0.7015834450721741,0.3255033493041992,0.05765938758850098,0.0488133430480957,-0.007983088493347168,0.5238561332384897,-0.7804526359052756,0.23161467088855317,0.25064552816132124
1728666808390441200,2.416441162109375,-0.15512025356292725,-0.4903392791748047,0.1137537807226181,0.6362705230712891,0.700385570526123,0.3234500586986542,0.09920305013656616,0.07674461603164673,0.0200100839138031,0.52376611852729,-0.7800354522662096,0.23080234672668304,0.2528716129135615
1728666808400472000,2.42647216796875,-0.17857159674167633,-0.5812472701072693,0.058056168258190155,0.6386359930038452,0.6992626786231995,0.3212096691131592,0.13211584091186523,0.07873713970184326,0.022982895374298096,0.5236063697941942,-0.7796943901463789,0.22952450493551674,0.2554045706507563
1728666808410502100,2.436502197265625,-0.22477690875530243,-0.6561985015869141,-0.02484084665775299,0.6407454013824463,0.6985250115394592,0.318603515625,0.12057662010192871,0.07501929998397827,0.03224191069602966,0.5235316872702303,-0.7793889393120959,0.22771612308274913,0.2580946091055039
1728666808420533200,2.446533203125,-0.2622934579849243,-0.6844285130500793,-0.08090278506278992,0.6424890756607056,0.698100209236145,0.31601232290267944,0.07459765672683716,0.08501136302947998,0.05856043100357056,0.5233989598997576,-0.7792303013408483,0.2254025275928059,0.26085879922898425
1728666808430563300,2.456563232421875,-0.2311544269323349,-0.6243528723716736,-0.11269985884428024,0.643916666507721,0.6979260444641113,0.31348100304603577,0.024311304092407227,0.07854783535003662,0.01633778214454651,0.5232976401080552,-0.7791176019698278,0.22297143764374697,0.26347488073608644
1728666808440594200,2.46659423828125,-0.19859996438026428,-0.48957622051239014,-0.1404619961977005,0.6447896361351013,0.6980668306350708,0.3113666772842407,-0.03048604726791382,0.07372277975082397,-0.03387022018432617,0.523246837445698,-0.7790799711562606,0.22072095447452447,0.26557387835226937
1728666808450624300,2.476624267578125,-0.0943092331290245,-0.3290579319000244,-0.15911343693733215,0.6450060606002808,0.6985682845115662,0.30979013442993164,-0.07077193260192871,0.08149164915084839,-0.0508483350276947,0.5233044255705607,-0.7790996784576899,0.2188578567323512,0.2669411200899857
1728666808460655000,2.486655029296875,0.02934333123266697,-0.19613641500473022,-0.14994923770427704,0.6446855068206787,0.6995143890380859,0.30831843614578247,-0.07179433107376099,0.09610944986343384,-0.11471489071846008,0.5236921219984562,-0.7790015325351461,0.21752202083368097,0.26755813021383823
1728666808470685200,2.496685302734375,0.13886024057865143,-0.11235816031694412,-0.10819592326879501,0.6442519426345825,0.7005876302719116,0.30678489804267883,-0.04848766326904297,0.11487269401550293,-0.14389726519584656,0.5243386203775945,-0.7787298584544351,0.2167308482182734,0.26772520987674164
1728666808480716300,2.50671630859375,0.3187296688556671,-0.04133404791355133,-0.08716787397861481,0.6438321471214294,0.7018909454345703,0.3046794533729553,-0.019778132438659668,0.09112370014190674,-0.16751810908317566,0.5254395815791217,-0.7781262033811595,0.21647019374062199,0.267532535587336
1728666808490746000,2.51674609375,0.4092364013195038,0.022065963596105576,-0.12682794034481049,0.6431150436401367,0.7036898136138916,0.3020328879356384,-0.011843621730804443,0.0439450740814209,-0.17668187618255615,0.5270315108944392,-0.7772528198763113,0.21655138632408427,0.26687341406889054
1728666808500776000,2.52677587890625,0.36412379145622253,0.01169140636920929,-0.14715531468391418,0.642066478729248,0.7057806253433228,0.29937413334846497,-0.02083534002304077,0.0320582389831543,-0.09080156683921814,0.5287298412157876,-0.7763900313248813,0.21657697529294115,0.26600359672407736
1728666808510807000,2.53680712890625,0.30118557810783386,-0.005298496689647436,-0.12941786646842957,0.6410786509513855,0.7076506018638611,0.297066867351532,-0.017207801342010498,0.03145456314086914,-0.037346988916397095,0.5301900967733343,-0.7756704950795568,0.21649184901442464,0.2652640452900485
1728666808520837000,2.546837158203125,0.22490277886390686,-0.019245311617851257,-0.12349631637334824,0.6402528285980225,0.7092366814613342,0.2950589060783386,-0.03829360008239746,0.01956886053085327,0.0028689801692962646,0.5314090063177935,-0.7750725107961411,0.21631470022802807,0.26471695652841615
1728666808530868000,2.556867919921875,0.1729293167591095,0.0009568966925144196,-0.10648723691701889,0.6394594311714172,0.7105491757392883,0.2936190366744995,-0.07554024457931519,0.004844069480895996,-0.008264273405075073,0.5323248181907658,-0.7746686642566497,0.21609713486879875,0.26423664724606216
1728666808540898000,2.56689794921875,0.1557285636663437,0.09053269028663635,-0.0796540305018425,0.6387154459953308,0.711614727973938,0.2926563024520874,-0.10181945562362671,-0.023412585258483887,-0.08023852109909058,0.533055375174926,-0.7743653056209505,0.21607063600702006,0.26367413599041944
1728666808550929200,2.57692919921875,0.12051838636398315,0.20142138004302979,-0.06887621432542801,0.6377414464950562,0.7124835252761841,0.29266539216041565,-0.12855565547943115,-0.024815678596496582,-0.09222593903541565,0.5335104447229478,-0.7742863614949868,0.21636388496118458,0.2627429948970731
1728666808560959000,2.586958984375,0.1052737832069397,0.2736828625202179,-0.011237421073019505,0.636738657951355,0.7130904793739319,0.29337078332901,-0.13727253675460815,-0.004029572010040283,-0.04410308599472046,0.5337499404459527,-0.7743408384711215,0.2169830680258969,0.26158331094161696
1728666808570990000,2.596989990234375,0.06328718364238739,0.30105695128440857,0.050891198217868805,0.6360463500022888,0.7131948471069336,0.29461604356765747,-0.09345901012420654,0.023011386394500732,-0.03967210650444031,0.533732703452517,-0.7744689391005587,0.2179584360488856,0.26042572602488206
1728666808581020200,2.607020263671875,0.09746865183115005,0.2900157570838928,0.039873700588941574,0.6355335116386414,0.7130740284919739,0.29601168632507324,-0.03717529773712158,0.047073185443878174,-0.029898256063461304,0.5336144876731949,-0.7746103809076402,0.2190538817909752,0.2593257705879154
1728666808591051000,2.617051025390625,0.19194082915782928,0.2636323571205139,-0.03569349646568298,0.6347448825836182,0.7134791016578674,0.2967265248298645,0.005834341049194336,0.057944297790527344,-0.039448052644729614,0.5338714815543686,-0.774573072020053,0.21999960060799575,0.2581046655295306
1728666808601081000,2.6270810546875,0.23215442895889282,0.15040534734725952,-0.06958089023828506,0.6336835026741028,0.714500367641449,0.29653745889663696,0.03283566236495972,0.07683569192886353,-0.007825881242752075,0.5345576453264703,-0.7743304225393424,0.22063799751497282,0.2568645247043995
1728666808611112200,2.6371123046875,0.2717931866645813,-0.009635986760258675,-0.005421875976026058,0.6332173943519592,0.7154929041862488,0.2951372265815735,0.06281232833862305,0.053885817527770996,-0.011018514633178711,0.5355089383992813,-0.7737841978652903,0.2209674668762735,0.2562453847398761
1728666808621142300,2.647142333984375,0.2276848405599594,-0.046042997390031815,-0.006083138752728701,0.6333235502243042,0.7162455916404724,0.293076753616333,0.10732293128967285,-0.023069262504577637,-0.16003522276878357,0.5365552313584978,-0.7730376549561534,0.22124910773018786,0.2560669652682509
1728666808631173000,2.657173095703125,0.07579092681407928,-0.13809676468372345,0.025913145393133163,0.6336286067962646,0.7166648507118225,0.2913874685764313,0.08954650163650513,-0.09087127447128296,-0.1444757878780365,0.5372413414908529,-0.7725047135865449,0.22120172764312404,0.256277523352327
1728666808641203200,2.667203125,-0.022643502801656723,0.03822319954633713,-0.04872540757060051,0.6339751482009888,0.7167260646820068,0.29048147797584534,0.12484443187713623,-0.16058892011642456,-0.21040332317352295,0.5375006579062284,-0.7722554185740571,0.22104821253405296,0.2566171996855117
1728666808651234000,2.677234130859375,-0.21892033517360687,-0.018949540331959724,-0.15640899538993835,0.6329073309898376,0.7172017097473145,0.2916339933872223,0.04624617099761963,-0.1404346227645874,0.040519505739212036,0.5371454039631611,-0.7727874512106383,0.22049160338277565,0.2562381480523858
1728666808661264100,2.68726416015625,-0.12475834786891937,-0.14217698574066162,0.003921558149158955,0.6327748894691467,0.7170500159263611,0.29229336977005005,-0.031075000762939453,-0.1395658254623413,0.3718912899494171,0.5366128717245073,-0.7732268814458093,0.21969724436787635,0.2567100195635728
1728666808671295200,2.697295166015625,-0.34005123376846313,-0.11700372397899628,-0.031664665788412094,0.6330053806304932,0.7165384292602539,0.29304778575897217,-0.012033700942993164,-0.11464017629623413,0.16981241106987,0.5359689594473398,-0.7736407468273322,0.21909791048626778,0.2573197016467728
1728666808681325300,2.7073251953125,-0.4763703942298889,-0.07864530384540558,0.08852006494998932,0.6335394978523254,0.715050220489502,0.29551827907562256,-0.11953192949295044,-0.022774159908294678,0.3767688274383545,0.5343158841570688,-0.7746700449029115,0.21827841917812849,0.25835532200921424
1728666808691356200,2.717356201171875,-0.21698860824108124,0.08588318526744843,0.07383113354444504,0.6341325640678406,0.7134572267532349,0.2980853021144867,-0.06597155332565308,-0.03410542011260986,0.05085274577140808,0.5328594971425031,-0.7755012853159108,0.21826682233206332,0.2588786496275841
1728666808701386200,2.72738623046875,-0.08580189943313599,0.09003814309835434,0.05878507345914841,0.634292483329773,0.7126041054725647,0.2997813820838928,-0.08785980939865112,-0.04405534267425537,-0.0074686408042907715,0.5320630456054932,-0.7759792695998387,0.2185105427886993,0.25887916249769194
1728666808711416300,2.737416259765625,0.21296589076519012,0.14136365056037903,0.06746511161327362,0.6343896985054016,0.7123718857765198,0.30012741684913635,-0.06819695234298706,-0.048797547817230225,-0.03317484259605408,0.5320828335666895,-0.7759024587393528,0.21917820847190858,0.25850398806915664
1728666808721447200,2.747447265625,0.28924280405044556,0.0887814536690712,0.1414402723312378,0.6347545981407166,0.712557315826416,0.29891330003738403,-0.06161916255950928,-0.07132184505462646,-0.05994531512260437,0.5328809830165737,-0.7752194445697977,0.2202077710759999,0.2580337442471862
1728666808731477000,2.75747705078125,0.2314082831144333,0.1222027912735939,0.23447006940841675,0.6358005404472351,0.7121357321739197,0.2976917028427124,-0.05190771818161011,-0.10073131322860718,0.0017163455486297607,0.5335464637114916,-0.774436781445312,0.22157059027360457,0.257841649572075
1728666808741508400,2.76750830078125,0.04691040888428688,0.1456475555896759,0.2905682325363159,0.6373250484466553,0.7108644247055054,0.29747113585472107,-0.043376624584198,-0.13086247444152832,-0.01866242289543152,0.5336276692178631,-0.7739112707652402,0.22315223472106546,0.2578878708563331
1728666808751538000,2.777537841796875,-0.13376642763614655,0.21271206438541412,0.23895271122455597,0.6387150287628174,0.7089788317680359,0.2989853024482727,-0.03689312934875488,-0.1352941393852234,-0.023014813661575317,0.532881250628498,-0.7739729026511158,0.22462992609027857,0.2579630670898295
1728666808761569000,2.787569091796875,-0.23227515816688538,0.14528243243694305,0.19805774092674255,0.6396570801734924,0.7070554494857788,0.30151522159576416,-0.04343515634536743,-0.09386575222015381,0.012709110975265503,0.5316671448509408,-0.774476633176392,0.22570679015692657,0.25801636721801885
1728666808771599000,2.79759912109375,-0.24888849258422852,0.09599185734987259,0.2249055951833725,0.6408036947250366,0.7049587965011597,0.30397939682006836,-0.004054427146911621,-0.028017878532409668,-0.041559040546417236,0.5303135677620895,-0.7750372945672376,0.2265102468538851,0.2584138900632596
1728666808781630000,2.8076298828125,-0.24190261960029602,0.11283309757709503,0.20647145807743073,0.6420189738273621,0.702811062335968,0.30638039112091064,0.04249054193496704,0.044412076473236084,-0.12127584218978882,0.5289648358634823,-0.775572341287248,0.22732739668256394,0.2588556450342552
1728666808791660000,2.817659912109375,-0.18987511098384857,0.05433250591158867,0.16478340327739716,0.6430422067642212,0.7009352445602417,0.30852392315864563,0.030480802059173584,0.09117913246154785,-0.034842103719711304,0.5277581169473345,-0.7760665735593559,0.22799700026723885,0.25924817107537035
1728666808801691100,2.827691162109375,-0.0928456261754036,-0.08402910083532333,0.1413007229566574,0.6441629528999329,0.6995196342468262,0.30939745903015137,0.009371042251586914,0.08887159824371338,0.02652493119239807,0.5270342945320762,-0.7762410071506762,0.2283607540580027,0.2598774457614822
1728666808811721000,2.837720947265625,-0.15681049227714539,-0.14030036330223083,0.15713827311992645,0.6455802321434021,0.6982136964797974,0.3093927800655365,-0.0058860182762146,0.10055345296859741,0.021097391843795776,0.5265402673937857,-0.7762115492023972,0.22845573833337599,0.26088116756123997
1728666808821752000,2.847751953125,-0.22254909574985504,-0.06394684314727783,0.16814272105693817,0.6470791101455688,0.6965112686157227,0.3100980222225189,-0.018966376781463623,0.14165401458740234,0.021795958280563354,0.5256649740059844,-0.7764084248078936,0.22855847391616252,0.261968274492789
1728666808831782100,2.8577822265625,-0.13965953886508942,-0.0036717839539051056,0.1076817736029625,0.6481596827507019,0.6950072646141052,0.3112143874168396,-0.042263567447662354,0.14459240436553955,0.009113460779190063,0.5247861360187263,-0.7766977940834975,0.2287962588261647,0.262664232810645
1728666808841813000,2.86781298828125,0.013716636225581169,-0.04100147262215614,0.043858323246240616,0.648727297782898,0.6943110823631287,0.31158560514450073,-0.05203217267990112,0.13903266191482544,-0.04126077890396118,0.5244363825697556,-0.776774823986362,0.22894032772620937,0.26300932282054185
1728666808851843000,2.877843017578125,0.1820949912071228,-0.08216355741024017,0.028689488768577576,0.6491634249687195,0.694420337677002,0.31043168902397156,-0.03662979602813721,0.13793152570724487,-0.1118689477443695,0.5248743131749721,-0.7763754916993815,0.22903480330782244,0.26323246919392473
1728666808861874200,2.887874267578125,0.2397509664297104,-0.06618890166282654,0.05604627728462219,0.6497073173522949,0.6948229074478149,0.30838558077812195,-0.016727030277252197,0.12788528203964233,-0.13745656609535217,0.5257623025449435,-0.7756440543388299,0.229279515100817,0.263403217765683
1728666808871904300,2.897904296875,0.22606098651885986,-0.035370003432035446,0.033678121864795685,0.6502067446708679,0.695216953754425,0.30643904209136963,-0.00508040189743042,0.07931923866271973,-0.10586217045783997,0.5266692331767685,-0.7748980255089055,0.22967928831089487,0.2634390012544361
1728666808881935000,2.90793505859375,0.0895906314253807,-0.08859637379646301,-0.02273109182715416,0.6504176259040833,0.695693850517273,0.30490565299987793,-0.016933679580688477,0.022674858570098877,-0.02666148543357849,0.5273732156670938,-0.7743782251478141,0.22976333667320106,0.26348596387479756
1728666808891965200,2.917965087890625,-0.05409170687198639,-0.12742765247821808,-0.05378381535410881,0.6502395272254944,0.6962066888809204,0.3041136562824249,-0.016099512577056885,0.0016541481018066406,0.03925502300262451,0.5276511953872122,-0.7742783198583241,0.2292376672082011,0.2636806950343799
1728666808901996000,2.92799609375,-0.09486397355794907,-0.08316927403211594,-0.11434915661811829,0.6495875716209412,0.6968883275985718,0.303945392370224,-0.012395799160003662,0.008678078651428223,0.047052592039108276,0.527688728181851,-0.7744772900590179,0.2283804351328273,0.26376498449989194
1728666808912026000,2.938026123046875,-0.10016606003046036,-0.02228488400578499,-0.14907625317573547,0.6480809450149536,0.6981420516967773,0.3042842149734497,-0.03331965208053589,0.053780555725097656,0.08602043986320496,0.52772648814787,-0.774902281156575,0.2273072115181813,0.26336797242041265
1728666808922057200,2.94805712890625,0.045787084847688675,-0.08256601542234421,-0.10147463530302048,0.6467751264572144,0.699533224105835,0.3038678467273712,-0.029053449630737305,0.09404605627059937,0.10703614354133606,0.5281047439398896,-0.7750419525128728,0.22637115006118308,0.26300495561558473
1728666808932087300,2.95808740234375,0.1303267478942871,-0.03352763131260872,-0.06851935386657715,0.6460341811180115,0.7010183930397034,0.3020155727863312,0.0130845308303833,0.0872964859008789,-0.0014783143997192383,0.5290756884352582,-0.7746282840523351,0.22574057537944714,0.26281409383808396
1728666808942117000,2.9681171875,0.1706366091966629,0.00030378298833966255,-0.06846103072166443,0.645291805267334,0.7026539444923401,0.29979386925697327,0.024691224098205566,0.06535154581069946,0.0015825331211090088,0.5302997038297774,-0.7740298548328083,0.22533247154939642,0.26246035444048926
1728666808952148200,2.978148193359375,0.2704247236251831,-0.023529112339019775,-0.08114859461784363,0.6446943879127502,0.7042465806007385,0.2973313331604004,0.046360909938812256,0.009056031703948975,-0.0035232603549957275,0.5316592726629842,-0.7732869710862601,0.22515090767116,0.26205486751109724
1728666808962178300,2.98817822265625,0.22921577095985413,-0.10043651610612869,-0.09867032617330551,0.6441375017166138,0.7057464718818665,0.29497307538986206,0.0686768889427185,-0.02402949333190918,-0.017781853675842285,0.532927937165892,-0.7725952619775189,0.22490688206975917,0.26172771131178807
1728666808972209200,2.998209228515625,0.2468176782131195,-0.10432526469230652,-0.08525678515434265,0.6437321901321411,0.706915557384491,0.293051540851593,0.06839543581008911,-0.03142422437667847,0.04241293668746948,0.5339084581749461,-0.772058671746132,0.2246134001426083,0.26156445225231717
1728666808982239200,3.0082392578125,0.20878826081752777,-0.08859536051750183,-0.11950423568487167,0.6431590914726257,0.7082065343856812,0.291187047958374,0.04127383232116699,-0.06021153926849365,0.03590044379234314,0.5349136102209443,-0.7715464668491553,0.22429795702197702,0.261292780801766
1728666808992270300,3.018270263671875,0.14375706017017365,-0.10394235700368881,-0.08968189358711243,0.6422435641288757,0.7095089554786682,0.29003503918647766,0.009382963180541992,-0.05837070941925049,0.04355272650718689,0.5356340415394609,-0.7713206121819604,0.22379015112682052,0.2609189533124816
1728666809002300000,3.0282998046875,0.12320611625909805,-0.06437139958143234,-0.07530321925878525,0.6414059996604919,0.7106172442436218,0.2891739308834076,0.026700079441070557,-0.06665050983428955,-0.05080103874206543,0.5362020198396515,-0.7711733307692852,0.22333529746329026,0.26057717213495174
1728666809012331300,3.038331298828125,0.0801132395863533,-0.03374425321817398,-0.09097006171941757,0.6407011151313782,0.7116807699203491,0.28811925649642944,0.017090022563934326,-0.060450851917266846,-0.05263030529022217,0.5368276436974262,-0.770950551938907,0.22292348797596523,0.2603008388168086
1728666809022361000,3.048361083984375,0.07931608706712723,-0.0895998477935791,-0.05810505896806717,0.6402477025985718,0.7125216722488403,0.2870468497276306,0.017741799354553223,-0.05090057849884033,-0.009123235940933228,0.5373716732286142,-0.7707190666346538,0.22252089404575282,0.26020818783240574
1728666809032392000,3.058391845703125,0.04318231716752052,-0.09896086156368256,-0.05105380713939667,0.6405081152915955,0.7127149105072021,0.2859839200973511,0.038126468658447266,-0.04068732261657715,-0.03775385022163391,0.5376999315278529,-0.7704473326914859,0.22226756293647074,0.2605509855581599
1728666809042422000,3.068422119140625,0.030181560665369034,-0.08854566514492035,-0.019140085205435753,0.641331136226654,0.7123925089836121,0.28494131565093994,0.017131447792053223,-0.017003655433654785,0.01739645004272461,0.5378687695381891,-0.7701335426830386,0.22218230614760076,0.2612022835606485
1728666809052453000,3.078453125,0.07705026865005493,-0.04111822322010994,-0.02579079568386078,0.642034649848938,0.7118633985519409,0.28467923402786255,0.01725184917449951,-0.008814573287963867,-0.012584447860717773,0.5377873602923967,-0.7700046943212369,0.22233396679660739,0.2616204063271189
1728666809062483200,3.088483154296875,0.09981689602136612,0.04742532968521118,-0.062053464353084564,0.6422976851463318,0.7116007804870605,0.2847421169281006,0.0070705413818359375,0.003151416778564453,-0.019315391778945923,0.5377612503500258,-0.7699394326682607,0.2226304685105882,0.2616138416128653
1728666809072514000,3.09851416015625,0.2319972962141037,-0.026220129802823067,-0.05503017455339432,0.6421933174133301,0.7117887735366821,0.28450754284858704,0.012805461883544922,-0.009502947330474854,0.024437159299850464,0.538016970819044,-0.7697736777130213,0.2229400410473159,0.2613120306592558
1728666809082544000,3.108544189453125,0.2395668625831604,-0.05735929682850838,-0.09171868115663528,0.6428260803222656,0.712276816368103,0.2818445861339569,0.032939910888671875,-0.07342183589935303,-0.030135542154312134,0.5391278138469757,-0.768847952287449,0.22314818894086913,0.2615701113747291
1728666809092575000,3.118574951171875,0.20465175807476044,-0.06267577409744263,-0.09703754633665085,0.6434131264686584,0.7128208875656128,0.279116153717041,0.0038493871688842773,-0.09285634756088257,0.02892833948135376,0.5402325502193137,-0.7679432118382158,0.22320685895361664,0.2618981944598945
1728666809102605000,3.12860498046875,0.1403687298297882,-0.08500935137271881,-0.07941647619009018,0.6436377763748169,0.7132590413093567,0.27747443318367004,-0.021826863288879395,-0.10353308916091919,0.11131951212882996,0.5409191268024857,-0.7674186450479061,0.22317222103038056,0.2620483185752771
1728666809112636200,3.13863623046875,0.004522470757365227,-0.022769151255488396,-0.07984497398138046,0.6438425183296204,0.7135310173034668,0.27629774808883667,-0.034497976303100586,-0.05909675359725952,0.1045311689376831,0.5413450072094316,-0.7670844018642508,0.22300313286354997,0.2622913661207587
1728666809122666200,3.148666259765625,0.026710132136940956,0.008935513906180859,-0.06511956453323364,0.6435402631759644,0.7137362957000732,0.2764717638492584,-0.048493266105651855,-0.025152862071990967,0.10222101211547852,0.5413166395710687,-0.7671894522276845,0.22283675999049454,0.26218411776865586
1728666809132697000,3.158697021484375,0.02720894105732441,0.06630000472068787,-0.08665015548467636,0.64305180311203,0.7141913175582886,0.27643343806266785,-0.031799912452697754,-0.0427282452583313,-0.020680785179138184,0.5414875953977579,-0.7671995225287542,0.22275907214362778,0.26186751377752093
1728666809142727200,3.16872705078125,0.018668385222554207,0.06503031402826309,-0.06150378659367561,0.6423468589782715,0.7147375345230103,0.27665969729423523,-0.014310479164123535,-0.03634709119796753,-0.06656140089035034,0.5416096899292034,-0.7672975063158438,0.22267552961063902,0.2613982399046824
1728666809152758000,3.178758056640625,0.05485568195581436,0.0038191555067896843,-0.04028904438018799,0.6419733166694641,0.7150054574012756,0.27683502435684204,0.02773493528366089,-0.07657766342163086,-0.10120633244514465,0.5416724256199329,-0.7673467087685494,0.22270279706128557,0.26110059126537566
1728666809162788000,3.1887880859375,-0.09095971286296844,-0.03397221863269806,-0.049181871116161346,0.6421119570732117,0.7149413228034973,0.2766799032688141,0.02825254201889038,-0.12138956785202026,-0.08298465609550476,0.5416689748233388,-0.7673188357602718,0.22262468499293023,0.26125656561899985
1728666809172818200,3.198818115234375,-0.2455066740512848,-0.06651604175567627,0.015703916549682617,0.6424739956855774,0.7141258120536804,0.27794188261032104,0.024777650833129883,-0.11532509326934814,-0.01976311206817627,0.54085351810228,-0.7678010498598419,0.2223791689093221,0.2617376305600595
1728666809182849300,3.208849365234375,-0.30185428261756897,-0.03261997178196907,0.021753817796707153,0.6429110765457153,0.7127083539962769,0.2805567681789398,0.029223263263702393,-0.11557096242904663,-0.004586279392242432,0.539376701762653,-0.7687130568758322,0.2221679967704443,0.26228681652330355
1728666809192879000,3.218879150390625,-0.32525867223739624,0.0121195362880826,-0.0350055992603302,0.6427902579307556,0.711612343788147,0.28360000252723694,-0.007917702198028564,-0.08172941207885742,0.04640188813209534,0.5378428263300609,-0.7698088436166045,0.22179798467609907,0.26253616381355444
1728666809202910200,3.22891015625,-0.22646772861480713,0.004979813937097788,-0.033102504909038544,0.6422544121742249,0.7109566330909729,0.2864438593387604,-0.005840778350830078,-0.009616851806640625,0.04363429546356201,0.5365164830034407,-0.7708692366542392,0.2213200195249482,0.26254175692175213
1728666809212940300,3.238940185546875,-0.04908895865082741,-0.012230598367750645,-0.0956612229347229,0.6418591141700745,0.710996687412262,0.2872290313243866,0.006791949272155762,0.013276994228363037,0.02989441156387329,0.5361398885686833,-0.7712468290748432,0.22089100983290444,0.26256323796626696
1728666809222971100,3.24897119140625,-0.0010652400087565184,-0.01166600827127695,-0.08120318502187729,0.6413185000419617,0.7116168141365051,0.28690147399902344,-0.034812092781066895,0.016593754291534424,0.06649219989776611,0.5363375090313578,-0.7712743898462937,0.22042357912208502,0.2624718320233422
1728666809233001200,3.259001220703125,0.020538056269288063,0.0012204954400658607,0.02805432677268982,0.641643762588501,0.7116225957870483,0.28615841269493103,-0.03333687782287598,-0.02085721492767334,0.034550875425338745,0.5365710030604988,-0.7710354244272499,0.22041682868671358,0.26270205804361046
1728666809243032300,3.2690322265625,-0.08808935433626175,0.04723619297146797,0.07844985276460648,0.6426436901092529,0.7108044028282166,0.2859477400779724,-0.040440380573272705,-0.09410524368286133,-0.021024644374847412,0.5364418879766341,-0.7708498663287133,0.22082652215694148,0.26316570476677253
1728666809253062100,3.279062255859375,-0.22320109605789185,0.07821966707706451,0.12684853374958038,0.6436430215835571,0.7092942595481873,0.28744715452194214,-0.06538057327270508,-0.11813807487487793,-0.045015424489974976,0.5355380372570678,-0.7711802058784734,0.22136997065322342,0.2635823178578156
1728666809263093200,3.28909326171875,-0.3461976647377014,0.0786907896399498,0.17239844799041748,0.6450055837631226,0.7069845199584961,0.29007041454315186,-0.04557925462722778,-0.0927724838256836,-0.059845685958862305,0.5339825410399314,-0.7718502704215893,0.22199633574972927,0.26424894311986685
1728666809273123000,3.299123046875,-0.35316261649131775,0.0652836337685585,0.14321765303611755,0.6461331844329834,0.7045473456382751,0.29347142577171326,-0.022994697093963623,-0.03247380256652832,-0.033415764570236206,0.5320824980453268,-0.7728125241895755,0.22247811737129009,0.2648635834424192
1728666809283154200,3.309154296875,-0.25831034779548645,0.022337285801768303,0.06512153148651123,0.6466185450553894,0.7029546499252319,0.2962088882923126,-0.04415571689605713,0.016360044479370117,0.022425293922424316,0.5306132612045364,-0.7736633556139998,0.22259707197429904,0.26522687463860595
1728666809293184000,3.31918408203125,-0.16444538533687592,0.02425422891974449,0.09755856543779373,0.6469748020172119,0.7019005417823792,0.29792487621307373,-0.053621530532836914,0.06041330099105835,0.027453631162643433,0.5296537937861909,-0.7742096744633654,0.22262482971184244,0.2655266590144772
1728666809303215000,3.329215087890625,-0.02867909148335457,0.038347091525793076,0.1543872207403183,0.6474484801292419,0.7009274363517761,0.2991846799850464,-0.03544890880584717,0.05763280391693115,-0.00026488304138183594,0.5289952505445572,-0.7745037317359932,0.22301638262731177,0.26565350037683466
1728666809313245200,3.3392451171875,-0.07220552861690521,0.0926891639828682,0.16132421791553497,0.6482112407684326,0.699847400188446,0.30005961656570435,-0.04750329256057739,0.017971813678741455,-0.025798112154006958,0.5285174932430003,-0.7745855585188034,0.22371191443334007,0.26578079618682116
1728666809323276000,3.349276123046875,-0.15206241607666016,0.11072083562612534,0.1932787001132965,0.6492645144462585,0.6982380151748657,0.30152809619903564,-0.043749988079071045,0.018696188926696777,-0.014678031206130981,0.5276999962110774,-0.7748057221004306,0.22458884095184078,0.26602374428252556
1728666809333306000,3.35930615234375,-0.26917198300361633,0.07089938968420029,0.16957789659500122,0.6504839658737183,0.6962951421737671,0.3033871054649353,-0.008165240287780762,0.03147280216217041,0.020083993673324585,0.5265759314090697,-0.7751918818421141,0.22532442872079425,0.2665037620505107
1728666809343337000,3.3693369140625,-0.3354558050632477,-0.0014395765028893948,0.08995577692985535,0.6514898538589478,0.6944478750228882,0.3054562211036682,0.014403760433197021,0.08838909864425659,0.022958755493164062,0.5252428454253354,-0.7757998289786168,0.22552766777850639,0.26719279957606806
1728666809353366000,3.379365966796875,-0.23202396929264069,-0.06461428105831146,0.030903909355401993,0.6520340442657471,0.69327312707901,0.30695924162864685,0.014927566051483154,0.12436908483505249,0.0017260909080505371,0.5241893750514698,-0.7763705976900165,0.22522948726057637,0.26785419521697984
1728666809363397000,3.389397216796875,-0.1172027662396431,-0.04620848223567009,0.03749523311853409,0.6521373391151428,0.692777693271637,0.30785706639289856,-0.00032764673233032227,0.12555116415023804,-0.06460133194923401,0.5235734875252853,-0.7767711685307,0.2248445823281401,0.2682205693829955
1728666809373427000,3.399427001953125,0.037625961005687714,0.024462755769491196,0.09354518353939056,0.6522535681724548,0.6925526261329651,0.30811765789985657,-0.008424222469329834,0.08646965026855469,-0.10250532627105713,0.5234177783456838,-0.7768400718217949,0.22489626133422916,0.26828185662768267
1728666809383457800,3.409457763671875,0.0424526073038578,0.11021116375923157,0.0912356898188591,0.6524001359939575,0.692399799823761,0.3081512451171875,-0.02257823944091797,0.024519264698028564,-0.08035263419151306,0.5235157370060693,-0.7767071397557487,0.22539220292873813,0.2680594492337435
1728666809393488000,3.41948779296875,-0.007430794183164835,0.0942353904247284,0.11238998174667358,0.6525514721870422,0.6920620799064636,0.30858826637268066,-0.027856647968292236,0.030365288257598877,0.0317133367061615,0.5234477158431219,-0.7766736149517712,0.22599166682092367,0.26778417948527794
1728666809403519000,3.42951904296875,-0.05885183811187744,0.03038455918431282,0.11158517003059387,0.6529269814491272,0.6914694309234619,0.30912235379219055,0.007931232452392578,0.06745702028274536,0.08394420146942139,0.5231966541712848,-0.7767116992719172,0.22645112762389566,0.26777633797651723
1728666809413549000,3.439549072265625,-0.024272825568914413,0.005939937196671963,0.027124349027872086,0.6531254649162292,0.6910622119903564,0.30961284041404724,0.017544031143188477,0.10083842277526855,0.056659191846847534,0.5229351977934669,-0.7768201841805411,0.22662044307178486,0.2678289573132524
1728666809423579000,3.449578857421875,0.06232684478163719,0.003240929450839758,-0.017209826037287712,0.6527213454246521,0.6915150880813599,0.30945390462875366,-0.0078238844871521,0.11288249492645264,0.010156720876693726,0.5231226119571161,-0.7768094828505524,0.22648173487004927,0.2676112495732979
1728666809433610000,3.45960986328125,0.1597743034362793,0.028398213908076286,0.013815733604133129,0.6522055864334106,0.6924465894699097,0.30845746397972107,-0.005492269992828369,0.09821826219558716,-0.06597992777824402,0.5237925122915095,-0.7765077794405297,0.22641644425827206,0.2672317906189451
1728666809443640000,3.46964013671875,0.22218848764896393,0.08364623785018921,0.015418956987559795,0.6517654657363892,0.6935954689979553,0.3068016469478607,-0.01112520694732666,0.04825639724731445,-0.10144877433776855,0.524859858129383,-0.77590632935975,0.22664992743573056,0.2666859149124571
1728666809453671000,3.4796708984375,0.21288180351257324,0.056481990963220596,0.0355207659304142,0.651518702507019,0.6946828961372375,0.30486002564430237,-0.03655886650085449,0.004474937915802002,-0.05608066916465759,0.5260318110259438,-0.7751779196125704,0.22700046482359304,0.26619679407149066
1728666809463701000,3.489700927734375,0.1618359386920929,0.03534810617566109,0.07059166580438614,0.6517016887664795,0.69522625207901,0.30322468280792236,-0.025755703449249268,-0.007115960121154785,-0.0722675621509552,0.5269196877873272,-0.7745187155711521,0.22744912637729772,0.26597604837016064
1728666809473732000,3.499732177734375,0.12864814698696136,0.06276561319828033,0.07609162479639053,0.6518076062202454,0.6952927112579346,0.30284547805786133,-0.02811974287033081,0.02591407299041748,-0.06145128607749939,0.5272557655984199,-0.7742335006060499,0.22800269680499338,0.26566670098965883
1728666809483762000,3.509761962890625,0.19435638189315796,0.07659535855054855,0.0566425621509552,0.6517977714538574,0.6953889727592468,0.3026450276374817,-0.04016447067260742,0.05599963665008545,-0.0518820583820343,0.5275711589929054,-0.7739852791432287,0.2286248173807277,0.26522858443121083
1728666809493793000,3.51979296875,0.2574322819709778,0.139240100979805,0.02004433423280716,0.6514871716499329,0.6960129141807556,0.30187854170799255,-0.037366628646850586,0.05380403995513916,-0.08218240737915039,0.5282875881995514,-0.7735458688717584,0.22927288578805113,0.2645241361239409
1728666809503823000,3.529822998046875,0.35149186849594116,0.09365673363208771,0.03862893953919411,0.6508432030677795,0.6971831917762756,0.3005649745464325,-0.03133624792098999,0.042547762393951416,-0.018094152212142944,0.5294032200285653,-0.7729234664450954,0.22993869113073226,0.2635336026947693
1728666809513854000,3.53985400390625,0.32848110795021057,0.07455175369977951,0.047288473695516586,0.6506617069244385,0.69841068983078,0.2980978190898895,0.00012570619583129883,-0.03045707941055298,-0.006929486989974976,0.5309018870219147,-0.7719295916079127,0.23059404919891063,0.26285823453063206
1728666809523884000,3.549884033203125,0.22974565625190735,0.12550798058509827,0.0646275132894516,0.6506674289703369,0.6992128491401672,0.29619917273521423,-0.0015736818313598633,-0.07956850528717041,0.03810575604438782,0.5320645200332472,-0.7711050218666011,0.23129337685794302,0.26231278280706755
1728666809533915100,3.5599150390625,0.12262348085641861,0.09165574610233307,0.04695025086402893,0.6506728529930115,0.6995493769645691,0.2953908145427704,-0.019477784633636475,-0.11657208204269409,0.1296885907649994,0.5326932047777556,-0.7706334852147277,0.23199017568221658,0.26180647138403346
1728666809543945000,3.569945068359375,-0.016888344660401344,0.0843750387430191,0.08473704755306244,0.6508381962776184,0.6993736028671265,0.2954425811767578,-0.012196838855743408,-0.08517676591873169,0.11648377776145935,0.5327757537595561,-0.7704996784301312,0.23248986101092947,0.2615888633543648
1728666809553976000,3.57997607421875,0.07284712791442871,0.049479104578495026,0.0797276422381401,0.6512219905853271,0.699027419090271,0.29541587829589844,0.014259517192840576,-0.044883131980895996,0.08303269743919373,0.5328062582811323,-0.7703476705442136,0.23296439713344166,0.26155219077457253
1728666809564006100,3.590006103515625,0.1895492523908615,0.0752602070569992,0.04491160437464714,0.6512558460235596,0.6993082761764526,0.29467660188674927,0.00851905345916748,-0.02540367841720581,-0.0043475329875946045,0.5333007598203221,-0.7699768731666635,0.23339646304987188,0.2612512394210267
1728666809574037000,3.600037109375,0.32143375277519226,0.04328043758869171,0.06558465957641602,0.6512476801872253,0.7000773549079895,0.29286307096481323,-0.000353395938873291,-0.007206141948699951,-0.01751774549484253,0.5343763094357286,-0.7692178097672071,0.2339561746280442,0.26078855440815074
1728666809584067000,3.610067138671875,0.32191240787506104,0.07277563959360123,0.09506158530712128,0.6515037417411804,0.7006840705871582,0.2908351719379425,0.01295560598373413,-0.04151952266693115,-0.03590640425682068,0.5355426594087953,-0.7683095302144859,0.23477233093619249,0.26033942514540104
1728666809594098200,3.62009814453125,0.24262665212154388,0.1303425282239914,0.09185940772294998,0.6519650816917419,0.7007824182510376,0.28956136107444763,0.005520939826965332,-0.06835126876831055,-0.03385448455810547,0.5363416688418489,-0.7675760568493218,0.23581281202423812,0.25991729560677285
1728666809604128000,3.6301279296875,0.1982240378856659,0.09108737856149673,0.07460717856884003,0.6523735523223877,0.7005438208580017,0.2892186939716339,0.0029152631759643555,-0.07470446825027466,-0.018115729093551636,0.536719698768714,-0.7671338630782008,0.2368860238891659,0.25946628624954987
1728666809614159000,3.6401591796875,0.16961954534053802,0.07072138786315918,0.039514973759651184,0.6526813507080078,0.7001526355743408,0.28947126865386963,0.025419294834136963,-0.023745715618133545,-0.04551360011100769,0.5367820217989667,-0.7669426720089142,0.23777000930398756,0.2590936987971749
1728666809624189000,3.65018896484375,0.2673012316226959,0.05479956790804863,-0.011624378152191639,0.6526740193367004,0.7002530097961426,0.2892449200153351,0.027868032455444336,0.0585055947303772,-0.036116719245910645,0.5371193449212369,-0.7666620895431843,0.23843594119037262,0.2586125689762048
1728666809634220000,3.660219970703125,0.3709016442298889,0.13898581266403198,-0.10704570263624191,0.6520257592201233,0.7012836933135986,0.28820833563804626,0.00660473108291626,0.11078917980194092,0.0016172230243682861,0.5380534263295551,-0.7661457706539666,0.23900800292200616,0.25767132687509525
1728666809644249900,3.670249755859375,0.4717991054058075,0.15423758327960968,-0.1354275494813919,0.650698721408844,0.7033506631851196,0.2861633896827698,-0.015551507472991943,0.16809415817260742,0.08718875050544739,0.539679259049638,-0.7653375336345075,0.23945805435030673,0.2562513959410185
1728666809654280000,3.680280029296875,0.6674977540969849,0.11418284475803375,-0.1220795139670372,0.6493834257125854,0.7057954668998718,0.28311556577682495,0.006500422954559326,0.21707147359848022,0.08192053437232971,0.5418257300938599,-0.7641534217132687,0.24005694417274032,0.25469060105744157
1728666809664311000,3.69031103515625,0.83122318983078,0.08913543820381165,-0.1836603283882141,0.6480792760848999,0.7088868618011475,0.278339684009552,0.015266120433807373,0.2267669439315796,0.002605229616165161,0.544802300496928,-0.762383752419127,0.2407090768895894,0.25302321287246204
1728666809674340900,3.7003408203125,0.9274669289588928,0.11471669375896454,-0.2696625888347626,0.6461416482925415,0.7128332853317261,0.2727092504501343,0.004462718963623047,0.24380141496658325,-0.08790990710258484,0.5483380437402173,-0.7603783960295623,0.24120389913275914,0.2509402444977818
1728666809684372000,3.7103720703125,0.95991450548172,0.07635759562253952,-0.24928593635559082,0.644011914730072,0.7170433402061462,0.26664242148399353,0.03007572889328003,0.23173308372497559,-0.13653060793876648,0.5521339008392212,-0.758208003540475,0.2417474631540483,0.2486507386705888
1728666809694402000,3.720402099609375,0.891395628452301,-0.013118228875100613,-0.30934208631515503,0.6419343948364258,0.721320629119873,0.2600334882736206,0.05601799488067627,0.14868992567062378,-0.13477393984794617,0.5560031408577122,-0.7559793567740095,0.24189245691907488,0.24666577512336296
1728666809704433000,3.730432861328125,0.7351502776145935,-0.011872243136167526,-0.4361266791820526,0.6392886638641357,0.7257960438728333,0.25402823090553284,0.030419588088989258,0.04074454307556152,-0.10766580700874329,0.5595702700384882,-0.7541214435465703,0.2414849096076525,0.24467750807209643
1728666809714463000,3.740462890625,0.5078050494194031,-0.11377916485071182,-0.4630240499973297,0.6360552906990051,0.7303143739700317,0.2491479218006134,-0.005424797534942627,-0.009153485298156738,0.0075659602880477905,0.5625426101911591,-0.7528691678906857,0.24033721229479232,0.24284128224008644
1728666809724494000,3.750494140625,0.40691232681274414,-0.22572045028209686,-0.39984244108200073,0.6333317160606384,0.7341563105583191,0.24475693702697754,0.03451508283615112,-0.006083071231842041,-0.0184231698513031,0.5649505275039419,-0.7519197542638774,0.23873657293528405,0.241769822452748
1728666809734524000,3.76052392578125,0.43865349888801575,-0.17489615082740784,-0.3813624978065491,0.6309599876403809,0.7376469969749451,0.24034744501113892,0.05164206027984619,-0.03272128105163574,-0.12447211146354675,0.5672537798274226,-0.7509393757229652,0.23719986012136862,0.24093485155185448
1728666809744555000,3.770554931640625,0.51043701171875,-0.15447759628295898,-0.3494918942451477,0.6285987496376038,0.7411195635795593,0.23580923676490784,0.025774478912353516,-0.0885162353515625,-0.13754217326641083,0.5696813109360612,-0.7498276509887898,0.23593031998175226,0.23991418907670226
1728666809754585000,3.780585205078125,0.5472623705863953,-0.18546773493289948,-0.24479186534881592,0.6267677545547485,0.744259774684906,0.23073695600032806,0.05949622392654419,-0.1460084319114685,-0.1647426337003708,0.5722604383349796,-0.7484374890236065,0.2349676647975953,0.23905961954932833
1728666809764616000,3.790615966796875,0.45603135228157043,-0.2710007429122925,-0.14115867018699646,0.6258376836776733,0.7466306090354919,0.22554448246955872,0.10983443260192871,-0.2018612027168274,-0.12152525782585144,0.5746527771952289,-0.7469409957267044,0.23420373211556636,0.2387511250263694
1728666809774646000,3.80064599609375,0.26286959648132324,-0.31158146262168884,-0.06404338032007217,0.6257350444793701,0.7481047511100769,0.22089630365371704,0.15536236763000488,-0.28849470615386963,-0.08350610733032227,0.5765086039887151,-0.7456380574618757,0.23339245202457934,0.23914387653197192
1728666809784677000,3.810677001953125,0.04275061562657356,-0.4570190906524658,-0.04042646288871765,0.6262020468711853,0.7487392425537109,0.2173948734998703,0.20762968063354492,-0.36932945251464844,-0.09543134272098541,0.5775710440054612,-0.7448041812164153,0.23230189668868995,0.24023788495849113
1728666809794707000,3.82070703125,-0.06813541799783707,-0.6375436186790466,-0.05534655600786209,0.6269857287406921,0.749031126499176,0.21410617232322693,0.21438384056091309,-0.40377044677734375,-0.08347560465335846,0.5781985118033701,-0.7442596688698869,0.23050082548357506,0.24214349456856796
1728666809804738000,3.830738037109375,-0.12191655486822128,-0.7994443774223328,0.0013105953112244606,0.6283189058303833,0.7490136027336121,0.21022464334964752,0.17881006002426147,-0.3513389229774475,-0.10718190670013428,0.578717861965377,-0.7436789940081657,0.22815318184451344,0.2448948064524647
1728666809814768000,3.84076806640625,-0.05010628700256348,-0.8208258152008057,0.019674155861139297,0.6301565170288086,0.7487473487854004,0.2056216299533844,0.1323862075805664,-0.24029392004013062,-0.1668184995651245,0.5793374722325647,-0.7428750707013106,0.22571541061151001,0.24810748718269943
1728666809824799000,3.850799072265625,-0.047644391655921936,-0.6484761834144592,0.06144477427005768,0.6319577693939209,0.7484104633331299,0.2012745887041092,0.06794768571853638,-0.1363956332206726,-0.21660959720611572,0.5799474831177973,-0.7420430166241015,0.22362794773867448,0.25104531003392616
1728666809834829000,3.8608291015625,0.001340992283076048,-0.659326434135437,0.11051537841558456,0.6338263750076294,0.7478727102279663,0.19735951721668243,0.06069272756576538,-0.14504367113113403,-0.18440473079681396,0.5805114459730368,-0.7411838886584946,0.22209503404140474,0.2536273188206556
1728666809844860200,3.870860107421875,-0.15210530161857605,-0.7694408893585205,0.2838541269302368,0.6366971731185913,0.7464812994003296,0.19334502518177032,0.12738662958145142,-0.19754642248153687,-0.20036402344703674,0.5807863404996809,-0.7402605398896841,0.22065096694393496,0.2569332155838905
1728666809854890000,3.880889892578125,-0.33123138546943665,-1.0589704513549805,0.32384949922561646,0.6408087611198425,0.744015634059906,0.1892218291759491,0.21945124864578247,-0.20855414867401123,-0.19372311234474182,0.5805330539741127,-0.739391765108265,0.21888520921613333,0.26147744796576344
1728666809864921000,3.890921142578125,-0.44854462146759033,-1.0901159048080444,0.23208041489124298,0.6449181437492371,0.7414138913154602,0.1854347288608551,0.22315436601638794,-0.1842849850654602,-0.2249244600534439,0.5797756343230313,-0.7388852237699031,0.21625444978011935,0.2667261299324151
1728666809874951200,3.900951171875,-0.4199076294898987,-1.3142861127853394,0.15336750447750092,0.6485398411750793,0.7393869757652283,0.18084028363227844,0.16251057386398315,-0.098044753074646,-0.21006083488464355,0.5792147860468846,-0.7383091604494023,0.2128843028594069,0.27219517618079075
1728666809884981000,3.91098095703125,-0.22105878591537476,-1.437848448753357,0.1273801028728485,0.6520174145698547,0.7378954887390137,0.17431004345417023,0.11932969093322754,0.07335346937179565,-0.27262234687805176,0.5792468136773189,-0.7372311878700483,0.20891432885005176,0.27806169155647165
1728666809895011800,3.92101171875,0.11567475646734238,-1.3564432859420776,0.18232697248458862,0.6555455923080444,0.7368127107620239,0.1654295027256012,0.059908509254455566,0.22414004802703857,-0.3522733449935913,0.5803004253857617,-0.7352403662578089,0.20527142147714406,0.28378976134154005
1728666809905042000,3.9310419921875,0.37655356526374817,-1.2063738107681274,0.2175334393978119,0.6591107249259949,0.735880970954895,0.15508894622325897,0.015617728233337402,0.25648975372314453,-0.3944687843322754,0.5822817381491635,-0.7324309014572878,0.20270532242612904,0.2887968576767629
1728666809915073000,3.941072998046875,0.36007896065711975,-1.1772505044937134,0.20534200966358185,0.6624366044998169,0.7350576519966125,0.1444585621356964,0.00861448049545288,0.16778969764709473,-0.355914831161499,0.5845599363003569,-0.7293836937296371,0.20057095090146507,0.29336076429236463
1728666809925102800,3.951102783203125,0.27312618494033813,-1.3119333982467651,0.3207719326019287,0.6660682559013367,0.7337812781333923,0.13385944068431854,0.060326457023620605,0.04814016819000244,-0.25640273094177246,0.586576555068708,-0.7263533874410497,0.19834434032742262,0.29832583654135436
1728666809935134000,3.961134033203125,0.025709448382258415,-1.4888479709625244,0.34704694151878357,0.6704419851303101,0.731665313243866,0.12318048626184464,0.14732229709625244,0.0009854435920715332,-0.16837692260742188,0.5880443112061954,-0.7233915437246805,0.1956908725296839,0.3043249288385026
1728666809945164000,3.9711640625,-0.040782295167446136,-1.5735827684402466,0.25915011763572693,0.6744351983070374,0.7296152710914612,0.11313086748123169,0.14493119716644287,0.03675734996795654,-0.0929281935095787,0.5889762416749876,-0.7208287447792168,0.1922793621090548,0.31071127833087375
1728666809955195000,3.98119482421875,0.17538516223430634,-1.6476020812988281,0.2403165102005005,0.6779997944831848,0.7280005812644958,0.10164690017700195,0.14356404542922974,0.05546212196350098,-0.1632159799337387,0.5903354889635729,-0.7178637837053462,0.18840126518747558,0.3173024626180963
1728666809965225000,3.991224853515625,0.723096489906311,-1.666016936302185,0.26785945892333984,0.6814085245132446,0.7267026901245117,0.08709511160850525,0.16858232021331787,0.15839862823486328,-0.3065469264984131,0.593085594766031,-0.713639366330475,0.18511188427120204,0.32357667910449217
1728666809975256000,4.001256103515625,1.2531099319458008,-1.5788079500198364,0.32838165760040283,0.6848378777503967,0.7254517078399658,0.06868080049753189,0.15172529220581055,0.26925355195999146,-0.3290109634399414,0.5976579054537939,-0.7077232062415793,0.1829433380840029,0.32933976431682255
1728666809985286000,4.011285888671875,1.0384771823883057,-1.4673439264297485,0.34165751934051514,0.6881630420684814,0.7238621115684509,0.04955391213297844,0.16309434175491333,0.22184717655181885,-0.31467533111572266,0.6027298599115652,-0.7012861790243641,0.18158923798815782,0.33457419279057693
1728666809995317000,4.02131689453125,0.6114098429679871,-1.5360106229782104,0.43647855520248413,0.6916419863700867,0.7214827537536621,0.03308130428195,0.2221459150314331,-0.029282987117767334,-0.11724865436553955,0.6063548521197606,-0.6958487238741454,0.1798199278974213,0.34028417138990835
1728666810005347000,4.03134716796875,0.17112749814987183,-1.6819510459899902,0.5045300722122192,0.6954733729362488,0.7182965874671936,0.01916138455271721,0.333304762840271,-0.30623286962509155,-0.07979977130889893,0.6082695008680337,-0.6915160682469781,0.17716156346087988,0.3470269576579843
1728666810015378000,4.0413779296875,0.27774983644485474,-1.7904585599899292,0.4736722707748413,0.6992032527923584,0.7148998379707336,0.005773995537310839,0.3889163136482239,-0.2802988886833191,-0.09039914608001709,0.6095657783609114,-0.6874895738471337,0.17391113734810562,0.3543200509014777
1728666810025408000,4.051407958984375,0.5775653123855591,-1.8237276077270508,0.4365707039833069,0.702407956123352,0.7117002010345459,-0.010303306393325329,0.3843535780906677,-0.10057038068771362,-0.20930111408233643,0.6119005529271927,-0.682424710982324,0.17071865917826304,0.3615653436910089
1728666810035439000,4.061439208984375,0.6983396410942078,-1.943272352218628,0.465510755777359,0.7052501440048218,0.7084038257598877,-0.028045551851391792,0.337596595287323,0.04553300142288208,-0.10121160745620728,0.6148139178599893,-0.6766678072027454,0.1676242918975846,0.3688180931423142
1728666810045469000,4.071468994140625,0.8221593499183655,-1.9418840408325195,0.4464486539363861,0.7077583074569702,0.704870343208313,-0.04728914424777031,0.30710381269454956,-0.06152921915054321,-0.02357262372970581,0.6181200690801876,-0.6702982785000936,0.16448600418801276,0.3762609112648669
1728666810055500000,4.0815,0.630548357963562,-1.8238543272018433,0.47056490182876587,0.7098665833473206,0.7012708783149719,-0.06564118713140488,0.2711057662963867,-0.05779242515563965,-0.06598109006881714,0.621146451288274,-0.6641604136169368,0.16146315983956822,0.3834028927807979
1728666810065530000,4.091530029296875,0.771545946598053,-2.1080267429351807,0.5682509541511536,0.7120961546897888,0.6969678401947021,-0.08458773791790009,0.26495468616485596,-0.05313843488693237,0.024925947189331055,0.6240265273827688,-0.6577240158492741,0.15844635947636618,0.3910049507943122
1728666810075561000,4.10156103515625,0.8142364621162415,-2.1561646461486816,0.5975912809371948,0.7140669822692871,0.6920585632324219,-0.10565612465143204,0.2965989112854004,-0.19431692361831665,-0.1853136420249939,0.6272182804995137,-0.6504600676985092,0.1551568223909518,0.39928090059810406
1728666810085591000,4.111591064453125,0.6237990856170654,-2.102750301361084,0.7517039179801941,0.7162429094314575,0.6863700747489929,-0.12606412172317505,0.23679053783416748,-0.19300764799118042,-0.12578211724758148,0.6299235345206752,-0.6432856727623479,0.15215610772730448,0.40771115449798906
1728666810095622100,4.1216220703125,0.23219484090805054,-2.078171491622925,0.7895513772964478,0.7187517285346985,0.6801854968070984,-0.14402714371681213,0.2326185703277588,-0.2169896364212036,-0.0009160041809082031,0.6312311842619969,-0.6370397087178585,0.14888531444898476,0.4166063901396985
1728666810105652000,4.13165185546875,0.1524139940738678,-2.1387243270874023,0.8031854629516602,0.7209526896476746,0.6741532683372498,-0.16045191884040833,0.22522962093353271,-0.2087295651435852,0.04871189594268799,0.6316802341714344,-0.6314320669695174,0.1451467672909918,0.42568314609091334
1728666810115683000,4.14168310546875,0.19073474407196045,-2.218719720840454,0.6510998010635376,0.7222309708595276,0.6685624718666077,-0.17722022533416748,0.2746715545654297,0.030503809452056885,-0.07784564793109894,0.6321375728975428,-0.625725853601248,0.14091503087871637,0.43475558177727724
1728666810125713200,4.151713134765625,0.49849051237106323,-2.3908638954162598,0.5046232342720032,0.7217212915420532,0.6638064384460449,-0.19616204500198364,0.2915691137313843,0.24000221490859985,-0.16824829578399658,0.6335652994896016,-0.6191760392735074,0.13616169664902192,0.44348184685180536
