time,seconds_elapsed,rotationRateX,rotationRateY,rotationRateZ,gravityX,gravityY,gravityZ,accelerationX,accelerationY,accelerationZ,quaternionW,quaternionX,quaternionY,quaternionZ
1729786938070292200,0.106292236328125,0.2945660948753357,0.016846973448991776,0.02585507556796074,0.6211151480674744,0.5681636929512024,-0.5398203134536743,0.011880457401275635,0.021985232830047607,0.005411744117736816,0.8774452343321699,-0.323760201629694,0.3539338540431055,-2.4606201238619018e-17
1729786938080323300,0.1163232421875,0.26137351989746094,0.01585334911942482,0.020307712256908417,0.6210719347000122,0.5667248368263245,-0.5413803458213806,-0.0008631348609924316,-0.0003491640090942383,0.032530248165130615,0.8778895317860002,-0.32258180309427376,0.3539079037958573,-0.00048386502689907443
1729786938090355200,0.126355224609375,0.22110417485237122,0.01841946318745613,0.013109720312058926,0.6211959719657898,0.5654006600379944,-0.5426212549209595,-0.01284325122833252,-0.01538228988647461,0.0382571816444397,0.8782425401934999,-0.3215375428956645,0.3539816288554227,-0.0008824627445591723
1729786938100386000,0.136385986328125,0.18308596312999725,0.013643616810441017,0.011610626243054867,0.6213330030441284,0.5643574595451355,-0.5435493588447571,0.0032702088356018066,-0.009135961532592773,0.02620011568069458,0.8785061357126019,-0.32070005087802617,0.3540858756836232,-0.0012475885189670286
1729786938110417200,0.146417236328125,0.13831943273544312,-0.0015637250617146492,0.022574327886104584,0.6212822794914246,0.5636112093925476,-0.5443810224533081,-0.00038689374923706055,-0.009701907634735107,0.022057414054870605,0.8787423243133672,-0.3200705254785089,0.3540682836748245,-0.001542304296835007
1729786938120448000,0.156447998046875,0.0915314108133316,-0.009619520977139473,0.008057436905801296,0.6210789084434509,0.5632222294807434,-0.5450153350830078,0.0010676980018615723,-0.009740173816680908,0.010927200317382812,0.8789223603571106,-0.3196993380368748,0.3539557601969697,-0.0017522395859955156
1729786938130479000,0.16647900390625,0.10535614937543869,-0.020316481590270996,0.01713429018855095,0.6208592653274536,0.5627566576004028,-0.5457459092140198,-0.0024358034133911133,-0.010586857795715332,0.0013428926467895508,0.8791297780339693,-0.319291948501303,0.3538074166705579,-0.0019198453064514175
1729786938140511000,0.176510986328125,0.07714927941560745,-0.01446738000959158,0.020098652690649033,0.6207558512687683,0.5623711347579956,-0.5462607145309448,-0.005750417709350586,-0.01766294240951538,0.00010293722152709961,0.8792759410155394,-0.31897633265318287,0.35372832670388077,-0.0020279691662218055
1729786938150542000,0.1865419921875,0.053465720266103745,-0.023781733587384224,0.0236411914229393,0.6208013892173767,0.5622227787971497,-0.5463617444038391,0.001146852970123291,-0.003278076648712158,0.010412096977233887,0.8793045774011591,-0.318862490158974,0.35375957094280824,-0.002075227081141134
1729786938160573200,0.1965732421875,0.05999525636434555,-0.009154053404927254,0.019438188523054123,0.6210522055625916,0.5620716214179993,-0.5462321639060974,-0.016544759273529053,-0.019636988639831543,0.03161430358886719,0.8792677567156482,-0.3187956805379386,0.3539113206486288,-0.002060005057085169
1729786938170604300,0.206604248046875,0.04788386821746826,-0.0032341666519641876,0.014283907599747181,0.6213025450706482,0.5618114471435547,-0.546215295791626,-0.016230523586273193,-0.017240464687347412,0.014354944229125977,0.8792630160878753,-0.3186470320171511,0.3540570914039391,-0.0020650896131885208
1729786938180635100,0.21663525390625,0.016309697180986404,-0.0017177620902657509,0.009357324801385403,0.6216229200363159,0.5616267919540405,-0.5460407137870789,-0.005640804767608643,-0.012615561485290527,-0.007319211959838867,0.879213489059466,-0.3185722937810726,0.3542475648627809,-0.002033420617051838
1729786938190666200,0.226666259765625,0.008206361904740334,-0.006385697051882744,-0.00033684680238366127,0.6218138933181763,0.5615605115890503,-0.545891284942627,0.0043305158615112305,-0.015524744987487793,-0.014258861541748047,0.8791710272371366,-0.31855799128817835,0.3543658433282029,-0.002012905930666932
1729786938200698000,0.236697998046875,-0.0404791533946991,-0.006316721439361572,-0.007161197252571583,0.6218627691268921,0.5616384744644165,-0.5457554459571838,-0.00017392635345458984,-0.010338425636291504,-0.013418138027191162,0.879132477194689,-0.31863384654598653,0.35439349439379364,-0.0019692033901905484
1729786938210729200,0.246729248046875,-0.034903623163700104,0.005286404397338629,-0.007229640614241362,0.6218646764755249,0.5618067979812622,-0.5455799698829651,-0.005546867847442627,-0.006280064582824707,-0.010465502738952637,0.8790826701710328,-0.3187683359583541,0.35439631988278875,-0.0019178124414413855
1729786938220760000,0.256760009765625,0.010738163255155087,0.00425336416810751,-0.0029094605706632137,0.6218796372413635,0.5617707967758179,-0.5455998778343201,-0.007789671421051025,-0.01921403408050537,0.009451866149902344,0.8790883392396789,-0.3187498662565741,0.35439888874888353,-0.0019077849007333792
1729786938230791200,0.266791259765625,0.0269576795399189,0.006732021924108267,0.004792401567101479,0.6219623684883118,0.5616803169250488,-0.5455988049507141,-0.010710477828979492,-0.014607012271881104,0.005834400653839111,0.8790879849336091,-0.31869016294706204,0.35445335208675766,-0.0019282447365589592
1729786938240822000,0.276822021484375,0.06749764829874039,0.005313888657838106,0.0002391943708062172,0.6221019625663757,0.5614190697669983,-0.5457084774971008,-0.0023815035820007324,-0.006289064884185791,-0.010230183601379395,0.8791189863322413,-0.3184982002210556,0.3545485142762573,-0.002007359730562566
1729786938250853000,0.28685302734375,0.05185503885149956,0.005322837270796299,-0.0032154577784240246,0.6221219301223755,0.5610747337341309,-0.5460399389266968,-0.0027219057083129883,-0.007348477840423584,-0.004146218299865723,0.8792130011743788,-0.31821772474974847,0.3545666648247104,-0.002132723015507124
1729786938260885200,0.29688525390625,0.04699956625699997,0.0023134653456509113,0.010598625056445599,0.6221107244491577,0.5606616139411926,-0.5464767217636108,-0.008081793785095215,-0.0029681921005249023,-0.008012354373931885,0.8793369237755684,-0.31791002044459765,0.3545347191656067,-0.002202256555014311
1729786938270914600,0.30691455078125,-0.006243483629077673,-0.005784035660326481,0.007256091572344303,0.6222138404846191,0.5602189898490906,-0.5468130707740784,-0.004553377628326416,-0.0057604312896728516,-0.00206071138381958,0.8794327777902375,-0.31765534612480156,0.3545257866007866,-0.0021238876245262793
1729786938280945700,0.316945556640625,-0.03796519339084625,-0.012721037492156029,0.010049215517938137,0.6221740245819092,0.5601027011871338,-0.5469775795936584,-0.00626826286315918,-0.009229958057403564,0.004771769046783447,0.8794798300090602,-0.31761583385036685,0.35444519182687106,-0.002016213645524145
1729786938290976500,0.3269765625,-0.1114715039730072,-0.002789098769426346,-0.013198849745094776,0.622049868106842,0.560472846031189,-0.5467395782470703,-0.012201845645904541,-0.021425604820251465,0.0057239532470703125,0.8794125098980027,-0.31790815185370597,0.35435096369823105,-0.0018739080090770456
1729786938301007600,0.337007568359375,-0.08959336578845978,-0.009233683347702026,-0.020781135186553,0.6219776272773743,0.5610965490341187,-0.5461817979812622,-0.007918179035186768,-0.03225743770599365,0.014123082160949707,0.8792541955152972,-0.31837580568426344,0.3543246426725359,-0.001735721483990523
1729786938311038500,0.34703857421875,-0.07695560157299042,0.0021547400392591953,-0.02028738521039486,0.6218435764312744,0.5616011619567871,-0.5458157062530518,-0.002138376235961914,-0.017564237117767334,0.028466463088989258,0.8791502261550619,-0.31872724518096796,0.3542669640232104,-0.0016694752560604779
1729786938321070300,0.3570703125,-0.06910673528909683,0.0009951996617019176,-0.016051894053816795,0.6217041611671448,0.5620469450950623,-0.5455156564712524,0.0054168701171875,0.006938040256500244,0.02278006076812744,0.8790650353756327,-0.3190328427786004,0.35420365248556857,-0.0016172991280513796
1729786938331101400,0.367101318359375,0.0046433196403086185,-0.0033766990527510643,-0.007271984592080116,0.6216359734535217,0.5622020363807678,-0.545433521270752,-0.0055776238441467285,0.0031208395957946777,0.009941577911376953,0.8790417663235359,-0.319145345048222,0.35416025314905464,-0.001578198563251961
1729786938341132300,0.37713232421875,0.0046241446398198605,-0.0035806968808174133,-0.003627448808401823,0.6214772462844849,0.5621190071105957,-0.5456997156143188,0.0036295652389526367,0.013320386409759521,-0.03152501583099365,0.8791173117246199,-0.3190562324693184,0.35405260914359044,-0.0016146038615592934
1729786938351163400,0.387163330078125,-0.03781292587518692,0.0049744946882128716,-0.02041654847562313,0.6214127540588379,0.5621896386146545,-0.5457004904747009,-0.0035233497619628906,0.004155576229095459,-0.0343775749206543,0.8791175366377902,-0.3190916552559082,0.3540201455861488,-0.00162634442725359
1729786938361194500,0.397194580078125,-0.09361440688371658,0.007007818669080734,-0.02113080769777298,0.6213673949241638,0.5625989437103271,-0.5453301668167114,-0.015501916408538818,-0.016944706439971924,-0.004138827323913574,0.8790123009482773,-0.319377251494431,0.35402411682107005,-0.0015901293379878474
1729786938371226600,0.4072265625,-0.10195216536521912,0.0020659505389630795,-0.01872597448527813,0.6213060021400452,0.563105583190918,-0.5448770523071289,-0.011595308780670166,-0.01606273651123047,0.005829811096191406,0.8788836039177534,-0.3197575466206934,0.354000833749526,-0.0014777423495169672
1729786938381257500,0.417257568359375,-0.10740365087985992,0.0015535582788288593,-0.013639070093631744,0.6214470267295837,0.5634749531745911,-0.5443339943885803,-0.0026420950889587402,-0.013471901416778564,0.004081368446350098,0.8787293960495592,-0.32010246459695674,0.35407259484512793,-0.0012823282980910782
1729786938391288600,0.42728857421875,-0.08415906131267548,-0.01215293351560831,-0.007906615734100342,0.6216262578964233,0.5639760494232178,-0.5436100363731384,-0.0010207891464233398,-0.0064198970794677734,0.014404714107513428,0.8785237440927073,-0.3205459092004195,0.35418258269931163,-0.0010752831717601896
1729786938401319400,0.4373193359375,-0.043752510100603104,-0.008604270406067371,-0.007292490918189287,0.6216676235198975,0.5645038485527039,-0.5430147051811218,0.0049346089363098145,0.0020549893379211426,0.01626598834991455,0.8783544434070664,-0.32094428289021426,0.3542420433004602,-0.0009854266513858014
1729786938411350500,0.4473505859375,0.00454464927315712,0.0011851899325847626,-0.020996585488319397,0.6215673685073853,0.564765989780426,-0.5428566336631775,0.003280043601989746,0.009071290493011475,0.006327152252197266,0.8783093073898345,-0.32109849416522146,0.35421381958697434,-0.0010140436919955826
1729786938421381400,0.45738134765625,-0.02788785845041275,0.006796736735850573,-0.029339205473661423,0.6212347149848938,0.564876914024353,-0.5431219935417175,-0.004504978656768799,0.0038943886756896973,-0.010787248611450195,0.8783847281433338,-0.32108443204549114,0.3540392468477776,-0.0011377326955172428
1729786938431413500,0.46741357421875,-0.11602630466222763,0.022098567336797714,-0.05734819918870926,0.6208144426345825,0.5653939843177795,-0.5430644154548645,-0.006007373332977295,-0.0003916025161743164,-0.009746134281158447,0.8783681359491569,-0.3213434902010355,0.35384480119365025,-0.0012409620131698666
1729786938441444400,0.4774443359375,-0.18909358978271484,0.02423389069736004,-0.08991946280002594,0.6204650402069092,0.5665050745010376,-0.5423052906990051,-0.014416515827178955,-0.026160895824432373,0.007820546627044678,0.8781519626835336,-0.322030961967265,0.3537561328659885,-0.0013015216393254777
1729786938451475700,0.487475830078125,-0.26147496700286865,0.02513536997139454,-0.13441716134548187,0.620003342628479,0.5682747960090637,-0.5409801602363586,-0.020058274269104004,-0.03455287218093872,0.003489375114440918,0.8777745143448353,-0.3231446820292614,0.35367700248688744,-0.001383266975334263
1729786938461506600,0.497506591796875,-0.3560805916786194,0.0496942400932312,-0.21082031726837158,0.6193243861198425,0.5708041191101074,-0.5390917062759399,-0.021347761154174805,-0.026523172855377197,-0.011033356189727783,0.877236078889412,-0.32469507906633077,0.353591928441696,-0.0016058637648483332
1729786938471537700,0.50753759765625,-0.4403384029865265,0.09648247063159943,-0.3163943886756897,0.6183822154998779,0.5744933485984802,-0.5362470149993896,-0.00623011589050293,-0.018646180629730225,-0.013786554336547852,0.8764240600414137,-0.3268959622155332,0.35357532266356645,-0.002113245110436007
1729786938481569500,0.517569580078125,-0.3769644796848297,0.10515372455120087,-0.36627674102783203,0.6170943379402161,0.5788068771362305,-0.5330826640129089,-0.00214993953704834,-0.028681814670562744,-0.011610269546508789,0.8755182488984835,-0.3293365979696478,0.35354784240832154,-0.00300731837642388
1729786938491600600,0.5276005859375,-0.22644782066345215,0.11405901610851288,-0.329520583152771,0.6157034635543823,0.5825110077857971,-0.5306506156921387,0.0051308274269104,0.007515847682952881,-0.018330037593841553,0.8748183664926559,-0.33121755155374777,0.3535104424272029,-0.004243994302675681
1729786938501631500,0.537631591796875,-0.20751327276229858,0.1664801388978958,-0.3506053686141968,0.6144285202026367,0.5854834318161011,-0.5288541316986084,0.035443246364593506,0.02938467264175415,-0.0348513126373291,0.8742977493670039,-0.3325989728449852,0.3534838996673862,-0.005519889936778918
1729786938511662600,0.54766259765625,-0.19109369814395905,0.24413621425628662,-0.3150670826435089,0.6134907603263855,0.588342010974884,-0.5267664790153503,0.04632985591888428,0.014487028121948242,-0.020657896995544434,0.8736905004571074,-0.33388668802114935,0.3537462992780998,-0.0069466852368628715
1729786938521693400,0.557693359375,-0.3694240152835846,0.2417694628238678,-0.08173370361328125,0.6136539578437805,0.5906479954719543,-0.5239881873130798,0.0030452609062194824,0.02953016757965088,0.0018019676208496094,0.87288910527316,-0.33522147105158684,0.3544467045978157,-0.007653734518472392
1729786938531724500,0.567724609375,-0.8858704566955566,0.3161824643611908,-0.011162596754729748,0.6148350238800049,0.5937445759773254,-0.5190812945365906,0.019198238849639893,0.01648491621017456,0.035408198833465576,0.8714882953986591,-0.33779813155310806,0.35545995877321307,-0.006991426770048724
1729786938541756400,0.57775634765625,-1.440176010131836,0.388683557510376,-0.7764964699745178,0.613763153553009,0.601698100566864,-0.5111302733421326,-0.009606659412384033,-0.046827495098114014,0.06124013662338257,0.8692039706333784,-0.34323982572870526,0.35583886736099357,-0.007035866173240661
1729786938551787500,0.58778759765625,-1.6508234739303589,0.3859107494354248,-0.5276416540145874,0.6114913821220398,0.6142199039459229,-0.49881085753440857,-0.2150070071220398,-0.43474602699279785,0.06341660022735596,0.8656439516252566,-0.35142931618233314,0.35649965721530513,-0.008127052478838164
1729786938561818600,0.597818603515625,-1.088414192199707,0.11856001615524292,-0.06634196639060974,0.6111910939216614,0.6227046251296997,-0.4885534942150116,-0.07910186052322388,-0.31363779306411743,0.02366393804550171,0.8626851292314325,-0.3579486134363176,0.35720589044615214,-0.0071537505335331555
1729786938571849500,0.607849365234375,-0.3252483904361725,-0.0450345017015934,-0.005141189321875572,0.611095666885376,0.6263638138771057,-0.4839737117290497,0.14723563194274902,0.2376498579978943,-0.02299952507019043,0.8613647352903457,-0.36104082017464967,0.3572991423883058,-0.006140710565810958
1729786938581880600,0.617880615234375,-0.0036716689355671406,-0.10546882450580597,0.2604185938835144,0.6115020513534546,0.6261651515960693,-0.4837174713611603,0.057702720165252686,0.36416083574295044,-0.11267232894897461,0.8612968069504227,-0.3613616997821786,0.3571540173857752,-0.005159937587118602
1729786938591911700,0.62791162109375,-0.07731326669454575,-0.02126014605164528,0.11999089270830154,0.6125189661979675,0.6249780058860779,-0.48396602272987366,0.06309443712234497,0.17819887399673462,-0.061138927936553955,0.8613749809621983,-0.361105837075523,0.3572387987835282,-0.0040350226110456395
1729786938601943600,0.637943603515625,-0.2110593467950821,0.039844755083322525,-0.14235711097717285,0.6124276518821716,0.6258394718170166,-0.4829672574996948,0.0040122270584106445,-0.08648711442947388,0.044856905937194824,0.8610855908467278,-0.3617797435304367,0.3572559245887767,-0.003908752865929004
1729786938611974400,0.647974365234375,-0.2098308950662613,0.03799998387694359,-0.1876382976770401,0.611499547958374,0.6280189156532288,-0.48131126165390015,-0.10029959678649902,-0.15275341272354126,0.059390485286712646,0.8606024014801543,-0.36305816285201314,0.3571178217981189,-0.004370313957693832
1729786938622005500,0.658005615234375,-0.10198379307985306,-0.000689355656504631,-0.05403362959623337,0.6107845306396484,0.6295586228370667,-0.4802064895629883,-0.05608177185058594,-0.05692678689956665,-0.0022916793823242188,0.8602799540003754,-0.3639687769511272,0.35696426387349545,-0.004662316955503693
1729786938632036400,0.668036376953125,-0.05327637121081352,-0.02496577426791191,0.01809755340218544,0.6106430292129517,0.6299664378166199,-0.47985127568244934,0.030805885791778564,0.04245781898498535,-0.025992780923843384,0.8601771526711601,-0.3642910880416683,0.35688424295337123,-0.004562686406137721
1729786938642067500,0.6780673828125,-0.111244335770607,-0.023555096238851547,-0.011755149811506271,0.6105522513389587,0.6303011178970337,-0.4795272946357727,0.02377086877822876,0.04103982448577881,-0.024806201457977295,0.8600841036689229,-0.3646120150565584,0.35678345165028014,-0.0043543249045280355
1729786938652098300,0.688098388671875,-0.17904195189476013,-0.005437718704342842,-0.05574604123830795,0.6102299690246582,0.6312506794929504,-0.4786876142024994,-0.0061345696449279785,-0.012552618980407715,-0.010539621114730835,0.8598405402153152,-0.36531671637189067,0.3566509270484022,-0.004237236493867218
1729786938662130700,0.698130615234375,-0.21235117316246033,-0.01168789155781269,-0.04736107960343361,0.6097977757453918,0.6325521469116211,-0.4775190055370331,-0.01929795742034912,-0.02879244089126587,0.005930870771408081,0.8595013386849794,-0.36627060543480844,0.3564917176997787,-0.004112313293413888
1729786938672161500,0.70816162109375,-0.1487426459789276,0.01931774988770485,-0.02394949644804001,0.609584391117096,0.6336677670478821,-0.4763108789920807,-0.008906960487365723,-0.0074166059494018555,0.012092739343643188,0.8591507220068614,-0.36714116357195226,0.3564434484294285,-0.003939726103168665
1729786938682192600,0.718192626953125,-0.025090740993618965,0.041133832186460495,-0.02528667077422142,0.6095777153968811,0.6342290639877319,-0.47557181119918823,0.005198955535888672,0.006212770938873291,0.007645785808563232,0.8589355510452031,-0.3675513601719443,0.3565390561556876,-0.003959213965788551
1729786938692223500,0.728223388671875,0.03171747922897339,0.02760246768593788,0.008949329145252705,0.6096553802490234,0.6342703104019165,-0.4754171669483185,-0.012105941772460938,0.017753005027770996,-0.03036588430404663,0.8588899024084176,-0.3675398874885901,0.35665927909367556,-0.004090357888868349
1729786938702254600,0.738254638671875,0.04739151522517204,0.02115815132856369,0.0334344319999218,0.6099229454994202,0.6339173913002014,-0.47554466128349304,-0.008741915225982666,0.03189980983734131,-0.04056859016418457,0.8589269663537457,-0.3673123557266751,0.3568042913459728,-0.004103707475384361
1729786938712286500,0.748286376953125,0.029144534841179848,0.03466000407934189,0.01500242855399847,0.6101974844932556,0.6335905194282532,-0.47562819719314575,0.008164942264556885,0.017715632915496826,-0.025439918041229248,0.8589511138958358,-0.3670957662091661,0.3569686309947243,-0.0041402293681185665
1729786938722317600,0.758317626953125,-0.011574399657547474,0.0344805084168911,0.01186948549002409,0.610417366027832,0.6335195302963257,-0.47544047236442566,-0.010579049587249756,0.002512514591217041,-0.027092456817626953,0.8588963821121665,-0.36707105558473296,0.3571254673788472,-0.004154767999531408
1729786938732348400,0.768348388671875,-0.0190490260720253,0.013696720823645592,0.03574632480740547,0.6106488108634949,0.6334676146507263,-0.4752124845981598,-0.007468879222869873,0.0024271607398986816,-0.018653452396392822,0.8588303763086687,-0.36709539367738736,0.35726002513221355,-0.004089842535491897
1729786938742379500,0.778379638671875,-0.06698033213615417,0.02163081057369709,0.05042273923754692,0.6110163331031799,0.6333884000778198,-0.4748455584049225,0.006628930568695068,0.003406703472137451,-0.004936575889587402,0.8587246731293077,-0.36718906593720624,0.3574204871334389,-0.0038607112046383837
1729786938752410400,0.788410400390625,-0.03444096818566322,0.04049339517951012,0.04208890721201897,0.6114294528961182,0.6334062814712524,-0.47428956627845764,0.005132496356964111,0.0005353689193725586,0.014130234718322754,0.858563704398159,-0.36736348735627006,0.35763010251662003,-0.0036299445387945753
1729786938762441500,0.79844140625,0.01637907139956951,0.05619459226727486,0.042316608130931854,0.6119329333305359,0.6332053542137146,-0.4739084839820862,-0.0037328004837036133,-0.0090445876121521,0.02246195077896118,0.8584532448444966,-0.36733694021289837,0.3579236354562701,-0.0035233400031278285
1729786938772473600,0.8084736328125,0.033690351992845535,0.03836030885577202,0.027021273970603943,0.6120584011077881,0.6329628229141235,-0.47407031059265137,-0.009824514389038086,-0.020246148109436035,0.016566067934036255,0.8585000354320936,-0.3671476099445732,0.3580048564424853,-0.0035898126599340214
1729786938782504400,0.81850439453125,0.0022301622666418552,0.015341542661190033,0.016375288367271423,0.6117157340049744,0.6329571604728699,-0.4745197892189026,-0.022238194942474365,-0.01775336265563965,0.014894574880599976,0.8586302724507435,-0.3670325917326386,0.35780885444942445,-0.0037262544400634592
1729786938792535600,0.82853564453125,-0.04589002951979637,0.015187185257673264,0.0030823852866888046,0.6116371154785156,0.6330207586288452,-0.47453632950782776,-0.012866973876953125,-0.025690436363220215,0.017688214778900146,0.8586351299011272,-0.3670673728470758,0.3577616214005537,-0.003727189115459942
1729786938802566700,0.838566650390625,-0.11438626050949097,0.013468647375702858,-0.006798474583774805,0.6114119291305542,0.6333851218223572,-0.47434014081954956,-0.005699098110198975,-0.030815601348876953,0.03305599093437195,0.8585781860855487,-0.36733070073634777,0.3576284101071158,-0.003664235995965939
1729786938812597500,0.848597412109375,-0.09139486402273178,0.016788385808467865,-0.021405912935733795,0.6111916303634644,0.633973240852356,-0.47383826971054077,-0.0041817426681518555,-0.027833104133605957,0.02490943670272827,0.8584324502152975,-0.3677699400002942,0.35752781775160225,-0.0035828866407929313
1729786938822629400,0.85862939453125,-0.03700299561023712,0.01855991967022419,-0.018695879727602005,0.6111709475517273,0.6343632340431213,-0.47334280610084534,-0.0002853274345397949,-0.020593702793121338,0.00805652141571045,0.8582881790982442,-0.3680531560312666,0.357582812810497,-0.003596254269036821
1729786938832660500,0.868660400390625,-0.024301711469888687,0.008906971663236618,0.003616083413362503,0.6112943887710571,0.634570837020874,-0.47290486097335815,-0.007137894630432129,0.0069086551666259766,-0.019603073596954346,0.8581605004493931,-0.36823016428203936,0.3577067531365748,-0.0035918352651133196
1729786938842691300,0.87869140625,-0.01817191392183304,0.025993546470999718,0.02573976293206215,0.6115800738334656,0.6345973014831543,-0.4724997282028198,0.006385624408721924,0.018906056880950928,-0.033008694648742676,0.8580428659019869,-0.36833245365364614,0.35788452363629353,-0.0035028773205292687
1729786938852722400,0.888722412109375,-0.0008048424497246742,0.03624133765697479,-0.007579313591122627,0.6119194626808167,0.6344900131225586,-0.472204327583313,0.007648348808288574,0.00891202688217163,-0.011606067419052124,0.8579569062627176,-0.3683174279518792,0.35810628178628373,-0.0034753268025847447
1729786938862753300,0.898753173828125,-0.0063727134838700294,0.03322610631585121,-0.010050727054476738,0.6119548082351685,0.6346012949943542,-0.47200915217399597,-0.016617894172668457,-0.010669410228729248,0.0030455589294433594,0.8578996484411936,-0.3683599434246989,0.35819880401706405,-0.003586767829593794
1729786938872784600,0.90878466796875,-0.005703860893845558,0.03210299834609032,0.009716053493320942,0.6122342348098755,0.6344988942146301,-0.47178420424461365,-0.011968791484832764,-0.006645500659942627,0.005445152521133423,0.8578339789991326,-0.36832533662437716,0.35839132106005217,-0.003592306144070637
1729786938882816500,0.91881640625,-0.025825640186667442,0.030772482976317406,0.013682032935321331,0.6127774715423584,0.6343457102775574,-0.4712848365306854,0.0011599063873291016,0.00035887956619262695,0.010927200317382812,0.8576890060681894,-0.3683464467655308,0.3587178337700147,-0.003473924539326196
1729786938892847600,0.92884765625,-0.04525679722428322,0.02728896215558052,0.014406678266823292,0.613228976726532,0.6342995166778564,-0.47075921297073364,0.00005221366882324219,-0.0036843419075012207,0.010798275470733643,0.8575362158908291,-0.36843793971191086,0.358990076930768,-0.003345178409253394
1729786938902878500,0.93887841796875,-0.07056161761283875,0.026905201375484467,0.014552886597812176,0.6135721206665039,0.6343485713005066,-0.47024592757225037,-0.0030679702758789062,-0.007731139659881592,0.013458788394927979,0.857387358459585,-0.36860336685306394,0.35917765426673964,-0.003169550103365984
1729786938912909600,0.94890966796875,-0.05047173053026199,0.03763023018836975,0.026677992194890976,0.6136366724967957,0.6345481872558594,-0.4698922634124756,-0.004475295543670654,-0.003017425537109375,0.008954763412475586,0.8572845317945611,-0.3688042401911238,0.35921762134608354,-0.0030731235601857494
1729786938922940400,0.9589404296875,-0.027601037174463272,0.044271089136600494,0.04074481129646301,0.6138410568237305,0.6344889998435974,-0.4697050154209137,-0.008372306823730469,-0.0001354217529296875,0.009606808423995972,0.8572302195584616,-0.3688377895946085,0.35931347737469543,-0.002965687396121115
1729786938932971500,0.968971435546875,0.00615672767162323,0.05166338384151459,0.03297796845436096,0.6142352223396301,0.6343100070953369,-0.4694315791130066,-0.012474417686462402,-0.002718210220336914,0.006907165050506592,0.8571508919270506,-0.36880710867282523,0.3595351577838927,-0.0028694217138366986
1729786938943003400,0.97900341796875,0.043920084834098816,0.05337126553058624,0.03356466069817543,0.6145487427711487,0.6340043544769287,-0.46943414211273193,-0.014237463474273682,-0.006364583969116211,-0.009188294410705566,0.8571514372063546,-0.36860215468359375,0.3597434914290442,-0.0029307391698429556
1729786938953034500,0.989034423828125,0.03103291429579258,0.03890061005949974,0.0444500669836998,0.6149204969406128,0.6336337924003601,-0.4694475531578064,-0.016669154167175293,0.0004299283027648926,-0.029026567935943604,0.8571552278677415,-0.3683762828057896,0.35996546748986236,-0.0029481705229832816
1729786938963065600,0.999065673828125,-0.0009050439111888409,0.03570561856031418,0.04371343553066254,0.615411102771759,0.6333332061767578,-0.46921029686927795,-0.002068817615509033,0.0077342987060546875,-0.023358643054962158,0.8570863879176819,-0.3682692929060168,0.3602396233752338,-0.002853691908422695
1729786938973096700,1.0090966796875,-0.04150400310754776,0.03877613693475723,0.05060196667909622,0.615924060344696,0.6331992745399475,-0.4687177836894989,0.01034247875213623,0.00478595495223999,-0.013154804706573486,0.8569433254821358,-0.36832542024038856,0.3605239050568181,-0.002678434122782253
1729786938983127600,1.01912744140625,-0.025895215570926666,0.051947593688964844,0.07757579535245895,0.6165895462036133,0.6330028772354126,-0.4681076407432556,0.010622978210449219,0.015236258506774902,0.0013565421104431152,0.8567660191628433,-0.36839338568335545,0.3608773983921552,-0.002423295485949284
1729786938993159400,1.029159423828125,0.001031273975968361,0.06754264235496521,0.08518950641155243,0.617372989654541,0.6326225399971008,-0.4675888121128082,0.014371395111083984,0.012107014656066895,0.006025731563568115,0.8566152831232174,-0.3683455954793976,0.36128535840259524,-0.0021612080772678097
1729786939003190500,1.0391904296875,0.014946024864912033,0.06515485048294067,0.07147342711687088,0.6180545687675476,0.6322605609893799,-0.46717774868011475,-0.004315614700317383,0.005129516124725342,0.013564497232437134,0.8564955910058062,-0.36824422655829364,0.3616729451358527,-0.002020368777023259
1729786939013221400,1.049221435546875,0.04212445020675659,0.07572824507951736,0.08521320670843124,0.61872798204422,0.631778359413147,-0.466938853263855,-0.01080256700515747,0.0027736425399780273,-0.01092064380645752,0.8564261862544637,-0.3680337265873154,0.3620521329519147,-0.001920862373916126
1729786939023252500,1.05925244140625,0.05474090948700905,0.07400411367416382,0.11757779866456985,0.61948561668396,0.630926251411438,-0.4670863449573517,0.004476726055145264,0.015222370624542236,-0.032196491956710815,0.8564695418775122,-0.36758651180837526,0.3624044496888179,-0.0017562492486413448
1729786939033283600,1.06928369140625,0.03167993202805519,0.06710939854383469,0.13108189404010773,0.6202048063278198,0.6299548149108887,-0.4674430787563324,0.007007777690887451,0.019901812076568604,-0.02668231725692749,0.8565742009693925,-0.3670824076694369,0.36266922727818096,-0.0015002222060137773
1729786939043314400,1.079314453125,-0.019382189959287643,0.05979715660214424,0.11655035614967346,0.6210423707962036,0.6291554570198059,-0.46740758419036865,-0.004785656929016113,-0.0014241337776184082,0.0031284093856811523,0.8565643655407632,-0.3667693577373038,0.36301024664967796,-0.0011464056099397906
1729786939053346300,1.08934619140625,-0.06223224848508835,0.06638991832733154,0.08360066264867783,0.6218891143798828,0.6287291049957275,-0.4668549597263336,-0.015092909336090088,-0.02948594093322754,0.025845468044281006,0.8564034392850708,-0.3667474366835374,0.3634127673340061,-0.0007726648585362333
1729786939063377700,1.099377685546875,-0.07574353367090225,0.06835106760263443,0.11082935333251953,0.6227170825004578,0.6286336183547974,-0.4658789038658142,-0.01575303077697754,-0.02905482053756714,0.029614895582199097,0.8561187005683191,-0.36697235216460683,0.36385688920315545,-0.00039823978027942386
1729786939073408500,1.109408447265625,-0.04466317966580391,0.07678711414337158,0.12076374143362045,0.6238144636154175,0.6283018589019775,-0.4648571312427521,-0.002079904079437256,-0.0041716694831848145,0.01394471526145935,0.8558203546408272,-0.36710393576992495,0.36442575057920323,0.00006607964592963994
1729786939083439600,1.119439697265625,-0.028462368994951248,0.09333466738462448,0.10337410122156143,0.6248233914375305,0.6279650926589966,-0.46395638585090637,0.002312779426574707,0.0003612637519836426,0.003644496202468872,0.8555571353722429,-0.36716692799350964,0.36497980697442906,0.00041023404986516944
1729786939093470500,1.129470458984375,0.01895015314221382,0.10738369077444077,0.10267635434865952,0.6256315112113953,0.6274722814559937,-0.4635339677333832,-0.010702311992645264,0.0018459558486938477,-0.007184386253356934,0.8554336133585381,-0.3670063727522656,0.3654303392008075,0.0005840819536530897
1729786939103502600,1.139502685546875,0.04615727439522743,0.11381442844867706,0.13288085162639618,0.6265917420387268,0.6265960335731506,-0.46342238783836365,-0.0015154480934143066,0.01354074478149414,-0.02978748083114624,0.855400890111111,-0.3665875324881415,0.3659267554641176,0.0007687180979765301
1729786939113533400,1.149533447265625,0.06367441266775131,0.10748771578073502,0.13550247251987457,0.6276767253875732,0.6255751252174377,-0.4633333086967468,0.012459993362426758,0.02695167064666748,-0.032501041889190674,0.8553746220721477,-0.3660927637100109,0.3664825233442648,0.0009792813822651755
1729786939123564500,1.159564453125,0.05898485705256462,0.10902728885412216,0.15174509584903717,0.6289293169975281,0.6244845390319824,-0.4631058871746063,0.002555668354034424,0.025066852569580078,-0.03663468360900879,0.8553078425639916,-0.3655962028026406,0.36713276826148933,0.0012394322345116984
1729786939133595400,1.169595458984375,0.031776536256074905,0.10914504528045654,0.14449863135814667,0.63042151927948,0.6233216524124146,-0.4626433849334717,0.0022231340408325195,0.01011645793914795,-0.02417302131652832,0.8551720110402402,-0.3651364165940939,0.36790447529584436,0.0016135005376923018
1729786939143626500,1.17962646484375,0.02579454332590103,0.10435828566551208,0.12419656664133072,0.6317933201789856,0.6224145889282227,-0.46199268102645874,0.0030638575553894043,-0.0025416016578674316,-0.0016761422157287598,0.8549810371260795,-0.36482632364168144,0.3686535174146505,0.0019321155492576937
1729786939153657300,1.1896572265625,0.05903119593858719,0.10563425719738007,0.14523233473300934,0.6330642700195312,0.621506929397583,-0.46147435903549194,-0.006355345249176025,0.003904998302459717,-0.012616157531738281,0.8548287300110275,-0.36448079635283037,0.36934614454174236,0.002207113434949447
1729786939163689700,1.199689697265625,0.0747252032160759,0.09550279378890991,0.16043365001678467,0.6343855857849121,0.6203239560127258,-0.46125179529190063,0.007246494293212891,0.01274794340133667,-0.017202794551849365,0.8547629317718678,-0.36395017600028834,0.37001942128586307,0.002511087744597592
1729786939173720600,1.209720458984375,0.07501135766506195,0.10590867698192596,0.14922893047332764,0.6355503797531128,0.6191480159759521,-0.46122828125953674,0.007348179817199707,0.003730952739715576,-0.0007010698318481445,0.8547552451954762,-0.36338272105576036,0.3705925852982685,0.002777363040829791
1729786939183751700,1.219751708984375,0.06331554800271988,0.1017802432179451,0.11033321171998978,0.6364707350730896,0.618131697177887,-0.4613220989704132,-0.009120941162109375,-0.024305522441864014,0.024600356817245483,0.854782118766065,-0.36283603475702325,0.37106463369310533,0.0029102523347368098
1729786939193782500,1.229782470703125,0.04823760315775871,0.08232920616865158,0.11533249169588089,0.6372662782669067,0.6173232793807983,-0.46130651235580444,-0.02778446674346924,-0.029631078243255615,0.028719842433929443,0.85477726947436,-0.36241819296123146,0.37148323302511393,0.0030288880428320226
1729786939203813600,1.239813720703125,0.02287685126066208,0.07077215611934662,0.13039027154445648,0.6380297541618347,0.6164989471435547,-0.4613535404205322,-0.007368743419647217,-0.010404586791992188,0.014576196670532227,0.8547901104503646,-0.3620367509410067,0.37182336523686843,0.0032702508105993235
1729786939213844500,1.249844482421875,-0.014178371988236904,0.042770128697156906,0.09989254921674728,0.6387506723403931,0.6158096194267273,-0.46127668023109436,0.010220885276794434,-0.010295093059539795,0.013766944408416748,0.854766353898311,-0.3617823438176869,0.3721225641566656,0.0035863494085691346
1729786939223876400,1.25987646484375,-0.06992951780557632,0.03592660278081894,0.08659112453460693,0.6394317150115967,0.6154838800430298,-0.4607675075531006,-0.0036742687225341797,-0.02736443281173706,0.029233723878860474,0.8546156376417822,-0.36183099299890853,0.3724172022025539,0.003986082649796148
1729786939233907500,1.269907470703125,-0.05125276744365692,0.042901210486888885,0.07055597007274628,0.6399694085121155,0.6153300404548645,-0.4602261483669281,0.0037226080894470215,-0.035908043384552,0.05022251605987549,0.8544556255129423,-0.3619539437115453,0.37266106345210515,0.004316435650930215
1729786939243938600,1.2799384765625,-0.041236624121665955,0.0346430167555809,0.08646941930055618,0.6405341625213623,0.6150789260864258,-0.45977580547332764,0.00187605619430542,-0.021786808967590332,0.054532915353775024,0.8543221171988581,-0.36200595013082243,0.3729125798553361,0.004639731684304691
1729786939253969400,1.289969482421875,-0.051591191440820694,0.030539296567440033,0.10162787139415741,0.6412160992622375,0.6147345304489136,-0.45928555727005005,0.0038949251174926758,0.0032463669776916504,0.044765323400497437,0.854176192227331,-0.3620544805558789,0.3731940132822295,0.0050672309584463195
1729786939264000500,1.30000048828125,-0.05269506946206093,0.02166750840842724,0.0862363949418068,0.6420210003852844,0.6142764687538147,-0.4587738513946533,0.012474238872528076,0.0025142431259155273,0.02955937385559082,0.854023417292527,-0.3620710311509287,0.3735206000253681,0.005565668314715962
1729786939274032000,1.3100322265625,-0.08431704342365265,0.015297120437026024,0.07978062331676483,0.6425992250442505,0.6141148209571838,-0.4581802487373352,-0.0020505785942077637,-0.025034070014953613,0.022480815649032593,0.8538467220243033,-0.3622355141911168,0.37375835407830005,0.005983034053234866
1729786939284064000,1.32006396484375,-0.0970434918999672,0.012128224596381187,0.05751180648803711,0.643105149269104,0.6141139268875122,-0.45747122168540955,-0.01375645399093628,-0.03553110361099243,0.012051939964294434,0.853635862247703,-0.36252641839151317,0.37395051185621137,0.0064409586842169055
1729786939294095000,1.33009521484375,-0.024851256981492043,0.006461337674409151,0.01869809627532959,0.643482506275177,0.6140912771224976,-0.45697084069252014,-0.023624658584594727,-0.03323489427566528,-0.001067519187927246,0.8534870921497293,-0.3627058404267111,0.3741110242116421,0.0067336213701102215
1729786939304126000,1.3401259765625,-0.0016263609286397696,0.00914553739130497,0.036367107182741165,0.6437870264053345,0.6139097213745117,-0.45678552985191345,-0.03630417585372925,-0.025134146213531494,-0.021333366632461548,0.8534315348179821,-0.36268637937090725,0.37425369359670985,0.006875394146225003
1729786939314157000,1.350156982421875,0.020815230906009674,0.033168159425258636,-0.029419098049402237,0.6440882682800293,0.6138207912445068,-0.45648032426834106,-0.004973948001861572,-0.022741079330444336,-0.0014053881168365479,0.8533421151107141,-0.362675403111581,0.37446814759246805,0.006878586764954048
1729786939324188000,1.36018798828125,0.029118169099092484,0.01404719240963459,-0.04628090187907219,0.644061267375946,0.6139541268348694,-0.45633912086486816,-0.007891833782196045,-0.032929956912994385,0.012872934341430664,0.8533026025621769,-0.3626699139725057,0.374567712132326,0.006647969392120161
1729786939334220000,1.370219970703125,0.028433335945010185,-0.00016503222286701202,-0.04743644595146179,0.6439054012298584,0.6141394972801208,-0.4563096761703491,-0.0015866756439208984,-0.032611846923828125,0.0008348524570465088,0.8532958323935278,-0.36267485232382013,0.37458259418750783,0.00640496400044599
1729786939344251000,1.3802509765625,0.024568025022745132,-0.0035520410165190697,-0.05879562720656395,0.6436086297035217,0.6144468188285828,-0.45631474256515503,0.016273021697998047,-0.019704997539520264,-0.01151973009109497,0.8532995755011461,-0.3627210271090932,0.3745344904613693,0.006104377012610061
1729786939354282000,1.390281982421875,-0.005705258809030056,-0.006751989014446735,-0.058404676616191864,0.6433135271072388,0.6147063374519348,-0.4563814401626587,-0.014239370822906494,-0.0049803853034973145,-0.007912993431091309,0.8533207122640926,-0.3627666669868516,0.3744457644007898,0.005883747909292134
1729786939364312800,1.400312744140625,-0.04595228284597397,-0.010411439463496208,-0.03836226090788841,0.6430490612983704,0.6150190830230713,-0.45633259415626526,-0.009916126728057861,-0.015440285205841064,0.04086628556251526,0.8533070527944486,-0.36290600211224566,0.3743433495221461,0.005772012216921548
1729786939374344200,1.41034423828125,-0.07708243280649185,0.001223219558596611,-0.08471883833408356,0.6426650285720825,0.6156455874443054,-0.45602864027023315,0.0049942731857299805,-0.036971330642700195,0.06840965151786804,0.8532188596730896,-0.36325266158721914,0.37421008058068006,0.005641827428256933
1729786939384375000,1.420375,-0.043235789984464645,-0.027227329090237617,-0.03625303506851196,0.6420834064483643,0.6163653135299683,-0.45587560534477234,-0.003838837146759033,-0.016344010829925537,0.04126378893852234,0.8531751585193449,-0.36361284339552447,0.37396243201030505,0.005462557492855678
1729786939394407000,1.430406982421875,-0.005704259965568781,-0.057527393102645874,0.058915555477142334,0.6419906616210938,0.6162611246109009,-0.4561470150947571,0.0015792250633239746,0.058772385120391846,-0.017775684595108032,0.8532532693977073,-0.3636145407173846,0.3737792875713275,0.005684439429226453
1729786939404438000,1.44043798828125,-0.02896777167916298,-0.06579703837633133,0.015259956009685993,0.6421255469322205,0.6158453226089478,-0.45651867985725403,0.05394989252090454,0.056105971336364746,-0.040002286434173584,0.8533594398888987,-0.3634988928806499,0.37364317280781223,0.006082151260073114
1729786939414469000,1.45046923828125,-0.0800483301281929,-0.06116500496864319,-0.017782682552933693,0.6419497132301331,0.6159496903419495,-0.4566252529621124,0.029726922512054443,-0.0013867020606994629,-0.009149312973022461,0.8533889128524501,-0.3636542645983417,0.37342060990697834,0.006329782004684384
1729786939424500000,1.4605,-0.09431222081184387,-0.0700884535908699,0.035767097026109695,0.6418245434761047,0.6161414384841919,-0.45654240250587463,-0.0010164380073547363,-0.0034552812576293945,0.02929633855819702,0.8533615934582249,-0.36394748419245976,0.37319033874846796,0.006720632624457417
1729786939434531000,1.470531005859375,-0.06969189643859863,-0.06865312159061432,0.016806453466415405,0.641645610332489,0.6162713766098022,-0.45661860704421997,0.021211445331573486,0.014664292335510254,0.05195552110671997,0.8533805986723624,-0.36419388684862297,0.3728987984465383,0.007134134835174911
1729786939444563000,1.48056298828125,-0.10606694966554642,-0.06507755815982819,0.0033473698422312737,0.6414790153503418,0.6166825294494629,-0.4562973976135254,0.011978566646575928,-0.005018711090087891,0.02606058120727539,0.8532838936676697,-0.36460578077821804,0.37271158977091506,0.007434665110802589
1729786939454593800,1.49059375,-0.14807605743408203,-0.06840251386165619,0.042987458407878876,0.64167320728302,0.6170319318771362,-0.45555150508880615,-0.0024214982986450195,-0.01157844066619873,0.023361563682556152,0.853060411645466,-0.36514738986912715,0.3726816696283653,0.007987533088338987
1729786939464625200,1.500625244140625,-0.1454019695520401,-0.06316541135311127,0.012696397490799427,0.6417169570922852,0.6175252199172974,-0.45482075214385986,0.01998037099838257,-0.03032130002975464,0.03598228096961975,0.8528408400207222,-0.3657687048558943,0.37256259127092267,0.008535158294172885
1729786939474656000,1.510656005859375,-0.12267328798770905,-0.04715043678879738,-0.008360951207578182,0.6412256956100464,0.6184185147285461,-0.45429983735084534,-0.014989733695983887,-0.04929620027542114,-0.002914518117904663,0.852685500906534,-0.3664720710058069,0.3722207738169789,0.008801707889771169
1729786939484687000,1.52068701171875,-0.06396497040987015,-0.04592165723443031,0.030147824436426163,0.6410923600196838,0.6187486052513123,-0.4540383815765381,-0.03638648986816406,-0.013432443141937256,-0.04115515947341919,0.8526057226730211,-0.36682765292121217,0.37204606862826506,0.009098450310930538
1729786939494718000,1.530718017578125,-0.03205477446317673,-0.037897445261478424,0.04176107421517372,0.6412273049354553,0.6186085939407349,-0.4540384113788605,-0.011512339115142822,0.02531224489212036,-0.04986780881881714,0.8526016991875522,-0.366904848233238,0.3719699237759224,0.009461488972369373
1729786939504750000,1.54075,-0.04988330602645874,-0.015192131511867046,0.023436658084392548,0.6413465142250061,0.6185969710350037,-0.45388591289520264,-0.004063248634338379,0.020288586616516113,-0.03366291522979736,0.8525538401593318,-0.36704036779613314,0.37193872982407017,0.009741377719651095
1729786939514781000,1.550781005859375,-0.07946550101041794,0.006571113131940365,0.013982969336211681,0.6415650844573975,0.618841290473938,-0.453243613243103,0.0040801167488098145,-0.011465191841125488,-0.010303139686584473,0.8523630471218556,-0.3673609479762267,0.3720539294538902,0.00995618456831095
1729786939524812000,1.56081201171875,-0.07762658596038818,0.025014301761984825,0.020943675190210342,0.641826868057251,0.6190982460975647,-0.4525216221809387,-0.002636134624481201,-0.016971170902252197,0.00994044542312622,0.8521489409554078,-0.3676934180140395,0.37221061115398496,0.010156674097150162
1729786939534843000,1.5708427734375,-0.08445912599563599,0.01970534399151802,0.03249486908316612,0.6422174572944641,0.6192704439163208,-0.45173102617263794,-0.016271352767944336,-0.007759213447570801,-0.00984734296798706,0.851913912782247,-0.3680065300322604,0.37243211192707926,0.010403668445685462
1729786939544874000,1.5808740234375,-0.034872930496931076,0.0409989133477211,0.00012174947187304497,0.6427634358406067,0.6192439198493958,-0.4509904086589813,-0.005541086196899414,-0.020992517471313477,-0.032804787158966064,0.8516937636382278,-0.3681913273132025,0.3727464916432839,0.010635363106600302
1729786939554904800,1.59090478515625,-0.035076793283224106,0.055567897856235504,-0.016461487859487534,0.6430160403251648,0.6192289590835571,-0.4506504535675049,-0.006938159465789795,-0.04537642002105713,-0.027910947799682617,0.8515942207037831,-0.36821506197332216,0.3729509835541175,0.010605535000906175
1729786939564937200,1.600937255859375,-0.0009372013155370951,0.03965151682496071,-0.004561419598758221,0.6428787708282471,0.6193565130233765,-0.4506709575653076,-0.042109787464141846,-0.024263739585876465,-0.013364076614379883,0.851601793411924,-0.36823020216612085,0.37292230479714245,0.010477396358763554
1729786939574968000,1.610968017578125,0.016849452629685402,0.04441026598215103,-0.014803670346736908,0.642737090587616,0.6193660497665405,-0.45086005330085754,-0.023794829845428467,-0.0034145116806030273,-0.012549340724945068,0.8516595988427298,-0.36813085190287964,0.37289361320794306,0.010295549940661999
1729786939584999200,1.620999267578125,0.011461610905826092,0.048092082142829895,-0.034099604934453964,0.6425853967666626,0.6195200085639954,-0.4508647918701172,-0.007926583290100098,-0.005674183368682861,-0.025056838989257812,0.851664370760931,-0.368097496242127,0.37292336262106357,0.010016823373567327
1729786939595030000,1.631030029296875,-0.010799486190080643,0.03506672382354736,-0.004183516837656498,0.6426829099655151,0.6194918155670166,-0.4507642984390259,-0.008588731288909912,0.009154975414276123,-0.0028794705867767334,0.8516362743603321,-0.3680368256186358,0.373050603220435,0.009884965050116797
1729786939605061000,1.64106103515625,-0.04052036628127098,0.023293953388929367,-0.014923512935638428,0.6428964734077454,0.6195138692855835,-0.45042940974235535,0.01945704221725464,0.007454514503479004,0.022679805755615234,0.8515376622944446,-0.3681064170813246,0.3732063149796381,0.009912884451817615
1729786939615093000,1.651093017578125,-0.0798439309000969,0.030726410448551178,-0.028505899012088776,0.6427394151687622,0.6199174523353577,-0.45009827613830566,0.026114344596862793,-0.022413790225982666,0.035120248794555664,0.8514414209726097,-0.3683500299102847,0.37318778411442627,0.009833488589753466
1729786939625124000,1.6611240234375,-0.1254737377166748,0.03074025921523571,0.025719523429870605,0.642848014831543,0.6201741099357605,-0.449589341878891,0.009587228298187256,-0.024821937084197998,0.03542006015777588,0.8512900889444931,-0.3686380900839934,0.3732442769999565,0.009995893088744686
1729786939635155000,1.671155029296875,-0.12070594727993011,0.011053692549467087,0.0058083971962332726,0.6431180834770203,0.6202830076217651,-0.449052631855011,0.006357014179229736,-0.00021159648895263672,0.032838642597198486,0.8511283098600042,-0.3689273980022973,0.37331790682036226,0.010347872684180397
1729786939645186000,1.68118603515625,-0.09055150300264359,0.0249713733792305,-0.0016103708185255527,0.6429830193519592,0.6207656860351562,-0.448578804731369,0.0015482306480407715,-0.00525665283203125,0.00917142629623413,0.8509877110791968,-0.3693208813998856,0.3732461453390975,0.010461464887559812
1729786939655217000,1.691216796875,-0.050276320427656174,0.01843123510479927,0.03439450263977051,0.642954409122467,0.6210178732872009,-0.4482705891132355,0.00015783309936523438,0.009490549564361572,0.0031259655952453613,0.8508958580601106,-0.3695545013530978,0.373221348086983,0.010565970645303594
1729786939665248000,1.701248046875,-0.03473837301135063,-0.0002361927181482315,0.032926034182310104,0.6430768370628357,0.6208123564720154,-0.4483794867992401,0.021168768405914307,0.02263551950454712,0.008087158203125,0.8509249928026413,-0.3695173355140064,0.3731851985094143,0.010786490456500182
1729786939675280100,1.711280029296875,-0.040787409991025925,0.010142732411623001,0.013022900559008121,0.6430848836898804,0.6209506988525391,-0.44817638397216797,0.011685013771057129,0.0011195540428161621,0.0014601051807403564,0.8508640713378194,-0.3696683123289755,0.37317173865553194,0.010885458243650625
1729786939685311000,1.72131103515625,-0.0549708753824234,0.009343784302473068,0.01875002682209015,0.6434643864631653,0.621109127998352,-0.44741159677505493,-0.016373872756958008,-0.01770031452178955,-0.0033025145530700684,0.8506371603563446,-0.3699393498720349,0.3734154328706447,0.011058968922949252
1729786939695342000,1.731342041015625,-0.07094372063875198,-0.012942345812916756,0.009687290526926517,0.6441048979759216,0.6210094690322876,-0.44662773609161377,-0.022965312004089355,-0.020606577396392822,0.011691153049468994,0.8504024525317246,-0.37013204737201555,0.37374910989973525,0.011388605280669815
1729786939705373000,1.741373046875,-0.12019301950931549,-0.00388466939330101,-0.0020665698684751987,0.6445333957672119,0.6212292313575745,-0.44570282101631165,-0.013109445571899414,-0.03378111124038696,0.012749969959259033,0.8501261237643347,-0.3705252247924914,0.3739781323695603,0.011708037855972558
1729786939715404000,1.751404052734375,-0.13501165807247162,0.012689672410488129,-0.0006881179288029671,0.6447076797485352,0.6219534873962402,-0.4444386661052704,-0.007775366306304932,-0.02966839075088501,0.012630254030227661,0.8497509065290346,-0.3712204821353447,0.37413369001865643,0.011942770936446342
1729786939725435100,1.76143505859375,-0.06171213462948799,0.03398750349879265,0.0036110226064920425,0.6448782086372375,0.6223571300506592,-0.44362547993659973,-0.003886997699737549,-0.003842175006866455,0.005026876926422119,0.8495090164530081,-0.3716465506052163,0.3742540560586668,0.012126858263190965
1729786939735467000,1.771467041015625,0.008896321058273315,0.006670183502137661,0.012682815082371235,0.6449458003044128,0.6224799752235413,-0.44335484504699707,0.004880189895629883,0.010424017906188965,-0.005177229642868042,0.8494293512273964,-0.37175651928549286,0.37432560867058856,0.012130899595114318
1729786939745497900,1.781497802734375,0.00029963674023747444,0.0018245619721710682,0.01163113210350275,0.6451098918914795,0.6224573850631714,-0.4431479275226593,0.003663301467895508,0.019662976264953613,-0.02111595869064331,0.8493681575460499,-0.3717816628825009,0.37443882499618153,0.012153719957317816
1729786939755529000,1.791529052734375,-0.03763609379529953,0.004569481126964092,0.00946758035570383,0.6452803015708923,0.6223860383033752,-0.4429998993873596,0.005568027496337891,0.01154029369354248,-0.004387766122817993,0.849323026651333,-0.3718078871925327,0.3745116101465755,0.012261214702209616
1729786939765559800,1.801559814453125,-0.05543027073144913,-0.021071700379252434,0.022817209362983704,0.6452631950378418,0.622382402420044,-0.4430300295352936,-0.004775524139404297,0.0025565624237060547,0.030920684337615967,0.8493293546256857,-0.3718795405057435,0.37442033259789376,0.012437939289243817
1729786939775591000,1.8115908203125,-0.08421152085065842,-0.028433743864297867,0.016848266124725342,0.6452426314353943,0.6225002408027649,-0.44289448857307434,-0.004739701747894287,-0.009463131427764893,0.02480369806289673,0.8492854983660691,-0.3720852073047456,0.37430649200347194,0.012707400140841317
1729786939785623000,1.821623046875,-0.14203700423240662,-0.008527145721018314,0.0015601227059960365,0.6453660726547241,0.6227337121963501,-0.4423861503601074,0.003574967384338379,-0.029563546180725098,0.024676799774169922,0.8491306306220573,-0.37244197413102986,0.37429120336777055,0.013051440017832296
1729786939795654100,1.831654052734375,-0.1023692786693573,-0.019816657528281212,-0.00021460792049765587,0.6455020308494568,0.6230819225311279,-0.4416968524456024,-0.016550004482269287,-0.02556300163269043,0.055924177169799805,0.8489221703310361,-0.37289374486506316,0.3743017820365311,0.013403103074147346
1729786939805685000,1.84168505859375,-0.05446966737508774,-0.027917463332414627,0.012504915706813335,0.6454144716262817,0.6233826279640198,-0.4414002299308777,-0.0025159716606140137,-0.01818859577178955,0.03368541598320007,0.8488312425948225,-0.37320576074950146,0.3741889085006291,0.013622502453358762
1729786939815716000,1.851716064453125,-0.029168039560317993,-0.014039142988622189,-0.00023458153009414673,0.6453108787536621,0.6235378384590149,-0.44133275747299194,0.005217075347900391,-0.0034664273262023926,-0.009396612644195557,0.8488096280847864,-0.3733556213781619,0.3740844856061777,0.013737381007216692
1729786939825747000,1.861746826171875,-0.04605141654610634,-0.02707931026816368,0.0302029550075531,0.6451429724693298,0.6236578226089478,-0.4414083957672119,-0.01124715805053711,0.00945979356765747,-0.021161764860153198,0.8488297010937259,-0.37347158586328094,0.3739181464602876,0.013866294676627401
1729786939835778000,1.871778076171875,-0.051243916153907776,-0.03180642053484917,0.012622627429664135,0.6451015472412109,0.6237753033638,-0.441303014755249,-0.002843916416168213,0.010059475898742676,-0.011791437864303589,0.8487951147705387,-0.37365011566132206,0.3738102295859004,0.014083972862137509
1729786939845810000,1.881809814453125,-0.09988681226968765,-0.02166057750582695,0.019087452441453934,0.6451733112335205,0.6241652965545654,-0.4406464099884033,0.016722500324249268,-0.01137232780456543,-0.00681757926940918,0.848597632888927,-0.3740761673603377,0.3738232318525494,0.014331675622475488
1729786939855841000,1.891841064453125,-0.12471812963485718,-0.025836411863565445,0.025785569101572037,0.6453245878219604,0.6245729327201843,-0.4398465156555176,0.006347835063934326,-0.012939631938934326,0.0011563301086425781,0.8483556299341223,-0.3745852533172625,0.37384840938917907,0.01469861673468578
1729786939865872000,1.901871826171875,-0.09042194485664368,-0.012657228857278824,0.043760042637586594,0.6458154320716858,0.6245808005332947,-0.4391143023967743,-0.004412233829498291,-0.0033344626426696777,0.0020567774772644043,0.8481309627009849,-0.3749140641870629,0.3740084183915298,0.01520241340270222
1729786939875903000,1.911903076171875,-0.06937199085950851,0.013649902306497097,0.033543091267347336,0.6463131308555603,0.6247528195381165,-0.4381359815597534,-0.012325823307037354,0.0009490251541137695,-0.010686010122299194,0.8478361668148621,-0.3753030125256145,0.3742721801966445,0.015547666776994444
1729786939885934000,1.92193408203125,-0.06814853101968765,0.015939155593514442,0.04169768840074539,0.6468572616577148,0.6247463822364807,-0.43734148144721985,-0.017737388610839844,-0.0013639330863952637,-0.014303416013717651,0.8475959556143742,-0.375552175784981,0.3745528304768617,0.0158677258150365
1729786939895966000,1.931966064453125,-0.05340440198779106,0.0382121279835701,0.03133000433444977,0.6472059488296509,0.6246808171272278,-0.43691927194595337,-0.0036969780921936035,-0.002000093460083008,-0.01251310110092163,0.8474669405795519,-0.37568106518965866,0.374705342981742,0.01611097417573956
1729786939905997000,1.9419970703125,0.004361690487712622,0.04025664180517197,0.048998214304447174,0.647343099117279,0.6245802044868469,-0.4368598461151123,-0.013340473175048828,0.004539668560028076,-0.019316911697387695,0.8474478822206924,-0.3756650190565051,0.3747610906145363,0.016187475467488728
1729786939916028000,1.95202783203125,0.012468352913856506,0.054328516125679016,0.0485990047454834,0.6477006077766418,0.6242489814758301,-0.4368034899234772,-0.00985264778137207,0.0035586953163146973,-0.029734015464782715,0.8474299501168998,-0.37551243312805727,0.3749515504066461,0.01625810358427554
1729786939926059000,1.96205908203125,0.021846408024430275,0.0651654526591301,0.01162633951753378,0.6482833623886108,0.6237574219703674,-0.4366408884525299,-0.012281835079193115,-0.009652256965637207,-0.016972333192825317,0.8473810982958714,-0.37526905263513705,0.3753034671886025,0.01629928569488594
1729786939936090000,1.972090087890625,0.01941121369600296,0.06204050034284592,0.038895245641469955,0.6488267779350281,0.6233519911766052,-0.4364127516746521,-0.02529168128967285,-0.016479432582855225,-0.0089760422706604,0.8473140000645715,-0.37506212500351094,0.3756621269209824,0.01628959939246753
1729786939946121000,1.982120849609375,0.02489599399268627,0.06787148863077164,0.01529910508543253,0.6492374539375305,0.6230887174606323,-0.43617796897888184,-0.005514919757843018,-0.012630343437194824,-0.0059607625007629395,0.8472458280139775,-0.3749185477202287,0.3759615652432349,0.01623517849020149
1729786939956152800,1.99215283203125,0.018131831660866737,0.0820767879486084,-0.00042606284841895103,0.6493958830833435,0.6230254173278809,-0.4360322952270508,-0.006039619445800781,-0.019387781620025635,-0.011233329772949219,0.8472067927717518,-0.3748081543189267,0.3761684387187746,0.016022859234163685
1729786939966184000,2.002183837890625,0.06113336235284805,0.08645342290401459,-0.005153439939022064,0.6495056748390198,0.6229404807090759,-0.43599024415016174,-0.02011120319366455,-0.0020908713340759277,-0.0035697221755981445,0.8472001257172099,-0.37462913749946025,0.3763746703370893,0.015717346658894592
1729786939976215000,2.012215087890625,0.09946104139089584,0.07375174760818481,0.00633623544126749,0.6497486233711243,0.6225571632385254,-0.436175674200058,-0.005720973014831543,0.015870511531829834,-0.007671922445297241,0.84726080425102,-0.3742367584378728,0.3766417481434187,0.015392741130670753
1729786939986246100,2.02224609375,0.10074175894260406,0.06250069290399551,0.005095735192298889,0.6498199701309204,0.6221438646316528,-0.4366588294506073,0.010580301284790039,0.016711056232452393,-0.0127430260181427,0.8474096580647578,-0.37377296887888867,0.3767815813295081,0.015040267097073902
1729786939996277000,2.032277099609375,0.05817671865224838,0.05790508911013603,-0.011358605697751045,0.6497864723205566,0.6218172907829285,-0.43717366456985474,0.01986074447631836,0.0007718205451965332,0.008096516132354736,0.8475673669950888,-0.3733646555484568,0.37684480319581687,0.01470915057874036
1729786940006308000,2.04230810546875,0.02903055027127266,0.030011139810085297,-0.0014295419678092003,0.649787962436676,0.621627688407898,-0.4374409019947052,0.010475099086761475,-0.009857118129730225,0.03291517496109009,0.8476498223557462,-0.37312372839077146,0.3769061294799864,0.014498054183740146
1729786940016340000,2.052340087890625,0.005594866815954447,0.013950306922197342,0.013214648701250553,0.649725615978241,0.6215317249298096,-0.43766987323760986,0.011697113513946533,-0.00678563117980957,0.04240620136260986,0.8477188753116198,-0.3729973615495241,0.3768793330390743,0.014410548301845252
1729786940026371000,2.06237109375,-0.028182538226246834,0.002463826909661293,0.0013281609863042831,0.6498128175735474,0.6214337348937988,-0.4376794993877411,0.012906849384307861,-0.005695939064025879,0.04272100329399109,0.8477206006668664,-0.37296640884952403,0.37690358565757875,0.014471705910798612
1729786940036402000,2.07240185546875,-0.039348307996988297,-0.008988350629806519,-0.0032900264486670494,0.6497900485992432,0.6214888095855713,-0.43763506412506104,0.0019585490226745605,-0.0034011006355285645,0.04881063103675842,0.8477062007450066,-0.3730384095907739,0.37686179103136447,0.014547958963448302
1729786940046433000,2.08243310546875,-0.036803923547267914,-0.03308356925845146,0.030390173196792603,0.649665355682373,0.6216261386871338,-0.43762513995170593,0.004997670650482178,0.010728597640991211,0.04202580451965332,0.8477008720091679,-0.3731812367216253,0.3767269541899218,0.014687017957672162
1729786940056464000,2.0924638671875,-0.04715383052825928,-0.027394894510507584,0.03683582320809364,0.6496358513832092,0.621692955493927,-0.43757402896881104,0.03365272283554077,0.015605568885803223,0.036603569984436035,0.8476813342541857,-0.3733406590311732,0.3766029009798535,0.014942602790261881
1729786940066496000,2.10249609375,-0.05335873365402222,-0.035653624683618546,0.007314148359000683,0.6495905518531799,0.6218004822731018,-0.4374885857105255,0.02158254384994507,0.003077387809753418,0.0411873459815979,0.8476518960249878,-0.373522108800837,0.3764796629779463,0.015184011928746594
1729786940076527000,2.112527099609375,-0.03477112948894501,-0.046120382845401764,0.03243201971054077,0.6496723890304565,0.6218301057815552,-0.4373251497745514,-0.008147060871124268,-0.0078163743019104,0.02423924207687378,0.8475989398023779,-0.3736804338639446,0.37643107419981897,0.015450638187738001
1729786940086558200,2.12255810546875,-0.023915287107229233,-0.046965137124061584,0.04194216802716255,0.649961531162262,0.6216731071472168,-0.43711841106414795,0.005830645561218262,0.00007671117782592773,-0.003158658742904663,0.8475310720469909,-0.37378209644487254,0.3764674499365082,0.01581910623918648
1729786940096589000,2.132589111328125,-0.03186216205358505,-0.04705147445201874,0.008187665604054928,0.6501917243003845,0.621648907661438,-0.43681028485298157,0.009262561798095703,-0.009969890117645264,-0.007342487573623657,0.8474346679946355,-0.37394017125175993,0.3765150819030302,0.016109370297733648
1729786940106620200,2.1426201171875,-0.037656400352716446,-0.05288699269294739,0.02514747530221939,0.6503543257713318,0.6217303276062012,-0.4364525079727173,-0.02150905132293701,-0.013713300228118896,-0.00525897741317749,0.8473240633362421,-0.3741575313146308,0.3765367064160262,0.016379586670864456
1729786940116651000,2.152651123046875,-0.0441250205039978,-0.04606913775205612,0.019922617822885513,0.6504992842674255,0.6218921542167664,-0.43600571155548096,-0.004182696342468262,-0.009266972541809082,-0.008803308010101318,0.8471867486007861,-0.3744394666292031,0.3765530986175776,0.01666186197444251
1729786940126683000,2.162682861328125,-0.05747650936245918,-0.038038112223148346,0.002849891781806946,0.6505103707313538,0.6222639679908752,-0.4354582726955414,-0.0005012154579162598,-0.014948904514312744,0.0069762468338012695,0.847021352059814,-0.3748165530131187,0.376541388433114,0.016852463650211532
1729786940136714000,2.1727138671875,-0.06470046937465668,-0.03955158591270447,0.005953006446361542,0.650688648223877,0.6225899457931519,-0.4347253739833832,-0.022835195064544678,-0.016541361808776855,0.007082581520080566,0.8467998780352901,-0.3752228020772901,0.3766233671089027,0.017109011842585314
1729786940146745000,2.1827451171875,-0.049932174384593964,-0.029325315728783607,0.003017936833202839,0.650897204875946,0.622871458530426,-0.43400925397872925,-0.010989367961883545,-0.012916624546051025,-0.001369774341583252,0.8465835560126319,-0.3755936405905956,0.3767290731517667,0.017348475127679838
1729786940156776000,2.19277587890625,-0.03671490401029587,-0.014717291109263897,-0.018648475408554077,0.6508325934410095,0.6231529712677002,-0.43370193243026733,-0.003325819969177246,-0.013045549392700195,-0.007963716983795166,0.8464908325517988,-0.3758426951283733,0.3766846224957146,0.017444025272818728
1729786940166807000,2.20280712890625,-0.03900682181119919,-0.01503127720206976,-0.007630180101841688,0.6506860256195068,0.6233492493629456,-0.4336397349834442,-0.01590520143508911,-0.012539923191070557,-0.009551763534545898,0.8464715611876535,-0.3759842764969056,0.37658458660922434,0.01748711014464304
1729786940176838000,2.212837890625,-0.039598312228918076,-0.010675357654690742,-0.0005243336781859398,0.6507147550582886,0.6233314871788025,-0.4336220920085907,-0.013797640800476074,-0.0036416053771972656,-0.006593912839889526,0.8464632369956749,-0.37604222580523095,0.37653843347959437,0.017634781286994767
1729786940186870000,2.2228701171875,-0.04424499347805977,0.012097865343093872,-0.0029187817126512527,0.6505619883537292,0.6234999299049377,-0.4336092472076416,0.003963768482208252,-0.012095510959625244,-0.0180051326751709,0.8464584831996244,-0.3761629417110619,0.376426367649205,0.017683033276447522
1729786940196901000,2.232901123046875,-0.03129497170448303,0.014174171723425388,0.001443742774426937,0.6505849361419678,0.6235713362693787,-0.4334718585014343,-0.013164341449737549,-0.009878158569335938,-0.0195004940032959,0.8464165137014479,-0.37625174466750305,0.37642886278533666,0.017745743344319463
1729786940206932000,2.242931884765625,0.008425540290772915,0.01759207248687744,0.0219479538500309,0.6508488059043884,0.6234033107757568,-0.4333174526691437,-0.022552967071533203,0.008478343486785889,-0.020616233348846436,0.846368983897713,-0.37621726940673833,0.376565860209681,0.017837432366810853
1729786940216963000,2.252963134765625,-0.012142384424805641,0.02368980646133423,0.022275522351264954,0.6510195136070251,0.6232466697692871,-0.4332863688468933,-0.00006431341171264648,0.010786473751068115,-0.03126746416091919,0.8463586494761569,-0.3761557804428178,0.37664789525439135,0.017892981062606155
1729786940226994000,2.262993896484375,-0.03128012642264366,0.026384126394987106,-0.0058802166022360325,0.6511646509170532,0.6232261061668396,-0.43309783935546875,0.001652061939239502,-0.000881195068359375,-0.010765045881271362,0.8463022800130574,-0.3761845748753347,0.376744278270971,0.01792413688128296
1729786940237025000,2.27302490234375,-0.062459953129291534,0.022459425032138824,-0.020498307421803474,0.651195228099823,0.6233764886856079,-0.4328353703022003,-0.015498876571655273,-0.020425498485565186,0.017201274633407593,0.8462243189201781,-0.3763183807385227,0.3767848101160094,0.017945308975538473
1729786940247057000,2.283056884765625,-0.07676751911640167,0.02146793156862259,-0.030655071139335632,0.651012122631073,0.623795747756958,-0.43250688910484314,-0.005885779857635498,-0.030640840530395508,0.031063437461853027,0.8461277696061241,-0.376598815793935,0.376722564182032,0.017925238513226728
1729786940257088000,2.293087890625,-0.07691299170255661,0.027851473540067673,-0.025738608092069626,0.6508163809776306,0.6243466734886169,-0.43200621008872986,0.010728418827056885,-0.030093133449554443,0.013198256492614746,0.8459807882172948,-0.37696901898331087,0.37668455013116675,0.01788024283925392
1729786940267118800,2.303118896484375,-0.09445975720882416,0.012829914689064026,-0.03737529367208481,0.6507388353347778,0.6246939897537231,-0.4316205382347107,0.003268122673034668,-0.024001359939575195,0.004343956708908081,0.8458657496279701,-0.37724527860922513,0.37666395906876504,0.017925397406938524
1729786940277150700,2.313150634765625,-0.10890427976846695,0.016897307708859444,-0.05773302540183067,0.6503787040710449,0.6253616809844971,-0.4311962127685547,-0.009585916996002197,-0.030162155628204346,0.005186110734939575,0.8457412688253398,-0.37767209219723413,0.376517845493111,0.017879720121287027
1729786940287181600,2.323181640625,-0.12207920849323273,0.024195700883865356,-0.04136497154831886,0.6499037742614746,0.6262767314910889,-0.4305838346481323,-0.016572535037994385,-0.016871273517608643,0.002681642770767212,0.8455624621402951,-0.37824297124478806,0.3763513488541026,0.01777514607396204
1729786940297213400,2.33321337890625,-0.131063312292099,-0.001964263617992401,-0.03382742777466774,0.6495559811592102,0.6269969344139099,-0.43006032705307007,-0.009678661823272705,0.009935438632965088,0.009848535060882568,0.8454069538002859,-0.37875126764102596,0.3761878794249528,0.017811509556115865
1729786940307244500,2.34324462890625,-0.1801813244819641,-0.0385608896613121,-0.01855579763650894,0.649283766746521,0.6277156472206116,-0.4294224977493286,0.0026479363441467285,0.009292960166931152,0.0030614137649536133,0.845213549072926,-0.3793599052723166,0.3759984214106315,0.018038110458210004
1729786940317275600,2.353275634765625,-0.2115330547094345,-0.017972152680158615,-0.027116794139146805,0.649111270904541,0.6286203265190125,-0.42835867404937744,0.017407894134521484,-0.008884608745574951,-0.013032317161560059,0.8448901467025112,-0.38021668853772556,0.3758402996174531,0.01844180655981995
1729786940327306800,2.363306640625,-0.22136357426643372,-0.010517166927456856,-0.036748651415109634,0.6491491198539734,0.629581093788147,-0.42688754200935364,0.01732426881790161,-0.030475318431854248,-0.020820558071136475,0.8444462396899833,-0.38115565692562997,0.3758677827532633,0.018822851130541322
1729786940337337900,2.373337890625,-0.12876521050930023,-0.0003191763535141945,-0.06026036664843559,0.6492019891738892,0.6302787065505981,-0.42577630281448364,-0.011048972606658936,-0.02694624662399292,-0.01364627480506897,0.844110977964277,-0.38184376102245754,0.375908493531738,0.019098156190934655
1729786940347368700,2.38336865234375,-0.046563539654016495,-0.01566377654671669,-0.0347512811422348,0.6490777730941772,0.6306547522544861,-0.42540884017944336,-0.018721938133239746,-0.007058560848236084,-0.01071786880493164,0.8440003864557495,-0.38215092737778805,0.375840723367516,0.01917875015237928
1729786940357400600,2.393400634765625,-0.030621394515037537,-0.020266998559236526,-0.038201406598091125,0.6489068865776062,0.6307732462882996,-0.42549383640289307,-0.013958215713500977,0.01989203691482544,0.0009180605411529541,0.8440248545110098,-0.38222042356076724,0.37571349238360086,0.019208591684474197
1729786940367431700,2.403431640625,-0.037887297570705414,-0.0417025163769722,0.006224382668733597,0.6486510038375854,0.6309300065040588,-0.42565158009529114,-0.01222217082977295,0.03311723470687866,0.035270750522613525,0.8440699929301468,-0.3823198648970097,0.3755072977480312,0.019279843494618396
1729786940377462500,2.413462646484375,-0.0337187834084034,-0.04696236550807953,0.0025952933356165886,0.6484400629997253,0.6311246156692505,-0.4256846010684967,0.015378355979919434,0.014841020107269287,0.050623536109924316,0.8440761159689391,-0.38249942743670334,0.37530239181229624,0.01944118352652089
1729786940387493600,2.42349365234375,-0.10208532959222794,-0.02981426939368248,0.0027883723378181458,0.6482947468757629,0.6313772797584534,-0.42553088068962097,0.01788872480392456,-0.017455220222473145,0.042046964168548584,0.844026021764628,-0.3827532792730314,0.37514596399019773,0.019632555057783142
1729786940397524500,2.4335244140625,-0.2043411284685135,-0.026198871433734894,0.00022987369447946548,0.6483070254325867,0.6318423748016357,-0.4248211681842804,-0.016272783279418945,-0.014349758625030518,0.025773346424102783,0.8438064559325219,-0.3833019434968402,0.37505871124714496,0.020027423105474992
1729786940407555600,2.4435556640625,-0.2332065999507904,-0.049319103360176086,0.0470929890871048,0.64852374792099,0.6321726441383362,-0.4239983558654785,-0.006632328033447266,0.006743311882019043,0.0350671112537384,0.8435448308271648,-0.3839417696012569,0.37495271575038486,0.020764704992486723
1729786940417587500,2.45358740234375,-0.2044706791639328,-0.015206726267933846,0.026380252093076706,0.6486688256263733,0.632639467716217,-0.42307913303375244,0.018903136253356934,0.007756590843200684,0.009932190179824829,0.8432557795711638,-0.3846427297281495,0.37484716424968606,0.021428629874388514
1729786940427618800,2.463618896484375,-0.17889074981212616,-0.029545983299613,0.027117416262626648,0.6485906839370728,0.6332927942276001,-0.42222073674201965,-0.010895371437072754,-0.008552193641662598,-0.01703399419784546,0.8429885338451629,-0.3853681114175298,0.37467458799482767,0.021924375155087373
1729786940437649700,2.473649658203125,-0.13464918732643127,-0.026008134707808495,0.019943658262491226,0.6484491229057312,0.633970320224762,-0.4214205741882324,-0.0037043094635009766,-0.0007306337356567383,-0.0011105239391326904,0.8427406607345218,-0.3860568059042312,0.37449947959156943,0.02232476260269149
1729786940447680800,2.4836806640625,-0.10115061700344086,-0.0024444861337542534,-0.008370538242161274,0.6483055949211121,0.6348108053207397,-0.42037492990493774,0.00911933183670044,0.0001226663589477539,0.0009260773658752441,0.8424262479923409,-0.3867690224231676,0.3744626201241323,0.02248282525025915
1729786940457711600,2.493711669921875,-0.06920906901359558,0.01602725312113762,0.007663022726774216,0.6485611200332642,0.6353229284286499,-0.41920557618141174,-0.01370394229888916,0.002174079418182373,0.0051125288009643555,0.8420748541059386,-0.38731264364740464,0.3746813587678734,0.022645310511440402
1729786940467742700,2.50374267578125,-0.03405667096376419,0.01862356811761856,-0.005340659990906715,0.6490319967269897,0.6353663802146912,-0.41841018199920654,-0.009047865867614746,0.009027481079101562,-0.000504612922668457,0.841834089694466,-0.3875331420846862,0.37498395846282667,0.022815408292861303
1729786940477774600,2.513774658203125,-0.044672898948192596,0.02878107689321041,-0.017547259107232094,0.6491160988807678,0.6356165409088135,-0.417899489402771,-0.0024943947792053223,-0.0069239139556884766,-0.009346604347229004,0.8416830678087411,-0.38774339981190753,0.3751070731591189,0.022790264015499363
1729786940487805700,2.5238056640625,-0.10955975204706192,0.005432345438748598,0.003030720166862011,0.6491596698760986,0.6361666917800903,-0.41699376702308655,-0.004826784133911133,-0.010953068733215332,0.0051438212394714355,0.8414129088087429,-0.3882165747449218,0.3752212878572008,0.022832105194293538
1729786940497836500,2.53383642578125,-0.13337619602680206,-0.01731211505830288,0.018428053706884384,0.6493363976478577,0.636592447757721,-0.41606780886650085,-0.006498813629150391,-0.0012317299842834473,0.016852140426635742,0.8411290385069782,-0.38874463134149145,0.3752914965972398,0.02315046300048474
1729786940507867600,2.54386767578125,-0.12411879003047943,-0.015665216371417046,0.009667583741247654,0.6492282152175903,0.6369161009788513,-0.41574111580848694,-0.001340031623840332,-0.004225671291351318,-0.002548038959503174,0.8410229301922825,-0.3891258613606691,0.3751139822931004,0.023474779589370397
1729786940517898500,2.5538984375,-0.1622263640165329,-0.009052373468875885,0.02867962419986725,0.6492482423782349,0.637353777885437,-0.4150385856628418,-0.004793226718902588,-0.01879298686981201,-0.011063098907470703,0.840803251166327,-0.3896569669359905,0.37503088172537896,0.02385927005274166
1729786940527930600,2.5639306640625,-0.1453600376844406,-0.015861012041568756,0.023791391402482986,0.6494519114494324,0.6377245783805847,-0.4141494929790497,-0.008994698524475098,-0.015120148658752441,0.010173022747039795,0.8405255892183942,-0.3902139528097501,0.375044428492644,0.024323852811989344
1729786940537961700,2.573961669921875,-0.13823360204696655,-0.0045358119532465935,0.017453603446483612,0.6494132280349731,0.6382842659950256,-0.4133467972278595,-0.013075947761535645,-0.013497889041900635,-0.00666654109954834,0.8402771207677637,-0.3908059907688881,0.37496303006728127,0.024650978827199146
1729786940547992800,2.583992919921875,-0.07220239192247391,-0.003595982678234577,0.013743286021053791,0.6493895649909973,0.6386932730674744,-0.4127520024776459,-0.012106239795684814,0.010659754276275635,-0.008360028266906738,0.8400930314152384,-0.3912424371467547,0.37490446946606043,0.024895441498258338
1729786940558023700,2.594023681640625,-0.023969149217009544,-0.002127355895936489,0.0242912694811821,0.6494666337966919,0.6386528015136719,-0.41269323229789734,0.0063561201095581055,0.030231475830078125,-0.0064351558685302734,0.840069694418626,-0.39131469055868906,0.37486824286141845,0.025089419367717112
1729786940568054800,2.6040546875,-0.006711333990097046,0.011410556733608246,0.00221153162419796,0.6496303677558899,0.6385317444801331,-0.41262274980545044,0.012112796306610107,0.03189367055892944,0.00004035234451293945,0.8400456380074482,-0.39130144677003437,0.3749290663604173,0.02519199287589302
1729786940578085600,2.614085693359375,-0.026438232511281967,0.010973106138408184,0.009188215248286724,0.6497044563293457,0.6386382579803467,-0.4123411774635315,0.0049433112144470215,0.008502185344696045,0.013888448476791382,0.8399622084550947,-0.39140089595096716,0.3750130024760515,0.025180021156281672
1729786940588117500,2.624117431640625,-0.05745074525475502,0.012700431980192661,0.005108784884214401,0.6498162746429443,0.6387016177177429,-0.41206681728363037,-0.003270864486694336,-0.00648421049118042,0.03113114833831787,0.8398765503889762,-0.39153917567811686,0.37505155463263795,0.02531322959655002
1729786940598148600,2.634148681640625,-0.06767954677343369,-0.006193364039063454,0.00010843342170119286,0.6498578190803528,0.6387574672698975,-0.41191479563713074,-0.007371246814727783,-0.01923537254333496,0.019016265869140625,0.8398269151654735,-0.3916605534596282,0.3750261419679681,0.02546046641760591
1729786940608179500,2.644179443359375,-0.11139480769634247,-0.01969985105097294,0.013864724896848202,0.6499254107475281,0.6390087008476257,-0.41141822934150696,-0.023185908794403076,-0.027573764324188232,-0.0016981959342956543,0.8396712361896521,-0.3919972725246856,0.3750053587447579,0.025718268177566513
1729786940618210600,2.65421044921875,-0.14276477694511414,-0.016147248446941376,0.005817451514303684,0.6498484015464783,0.6393933296203613,-0.4109419286251068,-0.008338391780853271,-0.019535541534423828,-0.009971797466278076,0.8395194231770781,-0.3924372176589573,0.3748627361859766,0.026041503257996715
1729786940628241700,2.66424169921875,-0.137825146317482,0.0013350723311305046,0.004055504687130451,0.6496769785881042,0.6400609612464905,-0.4101730287075043,-0.010547339916229248,-0.01838737726211548,-0.031614720821380615,0.8392827057683967,-0.39305211685091557,0.3747312639234175,0.026289165865122907
1729786940638272500,2.6742724609375,-0.08126659691333771,0.0025551202706992626,0.00850697886198759,0.6495628952980042,0.6406443119049072,-0.40944230556488037,-0.00480276346206665,-0.0060160160064697266,-0.03995954990386963,0.8390599448810879,-0.39357460061715094,0.3746703600347618,0.02645129131486114
1729786940648304600,2.6843046875,-0.051038652658462524,-0.004190133884549141,0.017889030277729034,0.6495739221572876,0.6409727931022644,-0.40891018509864807,0.00029790401458740234,0.01832890510559082,-0.023279696702957153,0.8388971393677018,-0.39390535029821583,0.3746778376509763,0.026581984757748277
1729786940658335700,2.694335693359375,-0.04938136413693428,-0.00817203987389803,0.006353812292218208,0.6496818661689758,0.6411466002464294,-0.4084659516811371,-0.00313645601272583,0.010327398777008057,0.014636635780334473,0.838760088443197,-0.3941406260631696,0.3747268141084112,0.02672914494894535
1729786940668366600,2.70436669921875,-0.11243809759616852,0.016090955585241318,-0.03666635975241661,0.6497315168380737,0.6416171789169312,-0.4076472818851471,-0.004864633083343506,-0.03683507442474365,0.026910006999969482,0.83851266385481,-0.39458751289721544,0.37480268199576494,0.02683555676321181
1729786940678397700,2.714397705078125,-0.1581660360097885,-0.00799291580915451,-0.024844586849212646,0.649633526802063,0.6423584818840027,-0.40663474798202515,-0.021963298320770264,-0.05420851707458496,0.028674572706222534,0.8382069760556035,-0.39522590559692916,0.37480543446355896,0.02695229123422203
1729786940688428500,2.724428466796875,-0.17186613380908966,-0.03693535178899765,-0.02463686093688011,0.6493557095527649,0.6430521011352539,-0.40598171949386597,-0.025408625602722168,-0.02020364999771118,0.009115874767303467,0.8380029198989115,-0.39585681040656684,0.3745751329005078,0.027239152345593542
1729786940698459600,2.734459716796875,-0.22530746459960938,-0.045307423919439316,-0.016408756375312805,0.649051308631897,0.6438223719596863,-0.40524712204933167,0.009167075157165527,0.0019906163215637207,-0.03306162357330322,0.8377707215045078,-0.39659489294113204,0.3742845636531691,0.02763777993316396
1729786940708491500,2.744491455078125,-0.31258296966552734,-0.05435365065932274,-0.0384615957736969,0.6486188173294067,0.644874632358551,-0.4042651057243347,0.009538471698760986,0.004676699638366699,-0.030320435762405396,0.8374598959711004,-0.39759360724601817,0.37388068920705525,0.028167767508071213
1729786940718522600,2.754522705078125,-0.3164093494415283,-0.05582888424396515,-0.06401915103197098,0.6479394435882568,0.6463097333908081,-0.403061181306839,0.010202646255493164,-0.019509196281433105,-0.0190885066986084,0.837082619133353,-0.39884707907474504,0.3733502649586369,0.028694478434622243
1729786940728553500,2.764553466796875,-0.23135969042778015,-0.021789954975247383,-0.06077329069375992,0.6472285985946655,0.6478286981582642,-0.4017623960971832,0.013934731483459473,-0.02394258975982666,-0.007203638553619385,0.8366838630456156,-0.40006784792436245,0.37291355424842776,0.02900395933701974
1729786940738584600,2.77458447265625,-0.15940193831920624,-0.05561497062444687,-0.04862688109278679,0.6467361450195312,0.6489827036857605,-0.40069156885147095,0.004966676235198975,0.010212182998657227,0.004558175802230835,0.8363572197348944,-0.40098959285126123,0.372641333794246,0.029194785257166758
1729786940748615700,2.78461572265625,-0.26276108622550964,-0.05012965947389603,-0.06512889266014099,0.6464254260063171,0.6498925089836121,-0.3997170329093933,-0.018587350845336914,-0.005361378192901611,0.021451681852340698,0.8360537918967482,-0.4018233633641604,0.37239691589784196,0.029537512187022687
1729786940758647800,2.794647705078125,-0.4035029411315918,-0.03045412339270115,-0.043314673006534576,0.6461194157600403,0.6513826847076416,-0.39778172969818115,-0.05062991380691528,-0.0520937442779541,0.030380606651306152,0.8354549962900902,-0.40324383611819287,0.3721606417365978,0.03009650947296697
1729786940768678700,2.8046787109375,-0.4422926902770996,-0.056969352066516876,-0.03267747536301613,0.6457105278968811,0.6532720327377319,-0.3953399062156677,-0.04474306106567383,-0.032636046409606934,0.024154603481292725,0.834697169131466,-0.4050576383957626,0.3718310840846158,0.030832396517094133
1729786940778709800,2.814709716796875,-0.42726626992225647,-0.09993135929107666,-0.06012028455734253,0.6450915336608887,0.6551121473312378,-0.3933003842830658,0.015858232975006104,0.009926915168762207,-0.016749083995819092,0.8340554474722564,-0.4068166914473874,0.37128154539224106,0.03165149854587851
1729786940788740600,2.82474072265625,-0.440297394990921,-0.121266208589077,-0.06545326858758926,0.6442229151725769,0.6570388674736023,-0.39150601625442505,0.04983842372894287,0.02183997631072998,-0.028324365615844727,0.833486840653532,-0.40857662274782935,0.3705565189434017,0.03244794706274029
1729786940798771700,2.834771728515625,-0.46806058287620544,-0.13079553842544556,-0.07080408930778503,0.643405556678772,0.6589816212654114,-0.3895798623561859,0.03684645891189575,0.018966376781463623,-0.008613437414169312,0.8328728187602774,-0.41041925336990454,0.36981902047471255,0.033357516121220086
1729786940808802600,2.844802490234375,-0.43902119994163513,-0.12408064305782318,-0.09060655534267426,0.6423833966255188,0.6612865924835205,-0.3873545527458191,0.0207635760307312,0.006102263927459717,-0.004674255847930908,0.8321727111923158,-0.4124673410215626,0.3690439248346991,0.03414434141305527
1729786940818834400,2.85483447265625,-0.40615126490592957,-0.13329379260540009,-0.10012762248516083,0.6412246823310852,0.663552463054657,-0.3853946626186371,0.006312549114227295,-0.0028163790702819824,-0.011394917964935303,0.831558236973123,-0.41437403025978914,0.368234751285393,0.034760153009600774
1729786940828865500,2.864865478515625,-0.38823696970939636,-0.17979206144809723,-0.10218411684036255,0.6399437785148621,0.6657142043113708,-0.3837924897670746,0.005609869956970215,-0.004398226737976074,-0.014644980430603027,0.8310492753772256,-0.4161733195744363,0.3672921430672485,0.035403531257301404
1729786940838896600,2.874896728515625,-0.4088880121707916,-0.1912069469690323,-0.12006271630525589,0.6384468674659729,0.6679757833480835,-0.38235336542129517,0.0030784010887145996,-0.049399733543395996,-0.016847074031829834,0.8305884965049722,-0.41800326257287235,0.366192017387575,0.03604889312342833
1729786940848927700,2.884927734375,-0.4741208255290985,-0.14834283292293549,-0.10269304364919662,0.636999249458313,0.6704401969909668,-0.38044944405555725,-0.041982829570770264,-0.09187281131744385,0.004274517297744751,0.8299846397583523,-0.4200523411347607,0.3651456048764355,0.03674392356346175
1729786940858958800,2.894958740234375,-0.363439679145813,-0.09994307905435562,-0.0812026634812355,0.6359186172485352,0.6726627945899963,-0.37832826375961304,-0.062020301818847656,-0.05126386880874634,0.022508561611175537,0.8293155136564307,-0.42199165181622356,0.36436096696439074,0.03741569952990955
1729786940868989700,2.90498974609375,-0.054289039224386215,-0.0483802855014801,-0.09876567870378494,0.6350480914115906,0.6740389466285706,-0.3773398697376251,-0.0298539400100708,0.020068049430847168,0.008641719818115234,0.8290090457974446,-0.4230352861442567,0.36382855455270363,0.03760176041919573
1729786940879021600,2.915021484375,0.13057787716388702,-0.028880778700113297,-0.09752438217401505,0.6342053413391113,0.6745088696479797,-0.37791693210601807,0.0006213188171386719,0.06729710102081299,-0.004803955554962158,0.8292032470993657,-0.42300627919982703,0.36346557091738313,0.037152710329523955
1729786940889052700,2.925052734375,0.15058541297912598,-0.01800975576043129,-0.0723218247294426,0.6335514783859253,0.6744673848152161,-0.3790862262248993,0.006478428840637207,0.07991194725036621,0.02900385856628418,0.8295811518509234,-0.4225276718498066,0.36321791389412156,0.0365822044901167
1729786940899083500,2.93508349609375,0.005041728727519512,0.0010493691079318523,-0.06652306020259857,0.6330474019050598,0.674583375453949,-0.37972137331962585,0.0051514506340026855,0.029731810092926025,0.07660549879074097,0.8297917076708383,-0.4222917999313325,0.36305503131976735,0.03614481916044554
1729786940909114600,2.945114501953125,-0.13849332928657532,-0.018244700506329536,-0.038976650685071945,0.6326802968978882,0.675205409526825,-0.3792271316051483,-0.001363217830657959,-0.03427529335021973,0.0894932746887207,0.8296451510193772,-0.4227106528280489,0.36290789887561115,0.03608940297365748
1729786940919145500,2.9551455078125,-0.13133050501346588,-0.035436417907476425,-0.053346533328294754,0.6322473883628845,0.676038384437561,-0.3784644305706024,0.010773241519927979,-0.048169732093811035,0.040314435958862305,0.8294099261657117,-0.423375802512533,0.3626578397131357,0.036212922468048775
1729786940929176600,2.965176513671875,-0.0916169062256813,-0.042833615094423294,-0.04608222842216492,0.6317317485809326,0.6768029928207397,-0.3779587149620056,-0.0005976557731628418,-0.011336684226989746,-0.02700960636138916,0.8292546003253799,-0.42393214247315075,0.3623564384338565,0.036279674776636885
1729786940939208700,2.975208740234375,-0.0941731408238411,-0.05726262181997299,-0.020125465467572212,0.6313198208808899,0.6773555278778076,-0.3776567876338959,-0.004595637321472168,0.04566687345504761,-0.02827271819114685,0.8291576976243104,-0.42435985339370336,0.36206396591966195,0.036412014000031724
1729786940949239800,2.98523974609375,-0.10390300303697586,-0.0724269300699234,-0.03218532353639603,0.6309093236923218,0.6778788566589355,-0.3774036765098572,0.018962383270263672,0.04962962865829468,-0.012153178453445435,0.8290717503998704,-0.42479973100852186,0.36172274679224514,0.03663034907597309
1729786940959270700,2.995270751953125,-0.10400859266519547,-0.0654459297657013,-0.028973020613193512,0.6303916573524475,0.6785292029380798,-0.37710028886795044,0.02262347936630249,0.018797457218170166,-0.0040337443351745605,0.8289716481709437,-0.42531169961667514,0.36133060696440145,0.036827080894869156
1729786940969301800,3.0053017578125,0.011805890128016472,-0.015083689242601395,-0.024713560938835144,0.630021333694458,0.6789897680282593,-0.37688979506492615,0.008162260055541992,0.013515114784240723,0.011090874671936035,0.828907042656868,-0.4256229917407169,0.3611096450016786,0.03685034164105866
1729786940979332600,3.01533251953125,0.125498428940773,-0.011077015660703182,-0.006191806867718697,0.6298861503601074,0.6789411902427673,-0.3772030770778656,0.00034755468368530273,0.01196146011352539,0.013052105903625488,0.8290099458005288,-0.42545692642344746,0.3610884547713941,0.03665977049224663
1729786940989363700,3.02536376953125,0.11628096550703049,0.012031232938170433,0.009075828827917576,0.6300126910209656,0.6784418821334839,-0.377889484167099,-0.013969659805297852,0.0039157867431640625,0.038137286901474,0.8292260329046348,-0.4249596826771899,0.36119873797640184,0.03645273032404951
1729786940999395600,3.0353955078125,0.04352274164557457,0.04511280357837677,0.03644859790802002,0.63042813539505,0.6779184341430664,-0.3781363070011139,-0.02889615297317505,-0.008576393127441406,0.08257359266281128,0.8293036272691809,-0.42458575012017336,0.3614675409753719,0.03638304432481872
1729786941009426700,3.0454267578125,-0.06505779922008514,0.029806021600961685,0.0560436025261879,0.6309080123901367,0.6775791049003601,-0.37794411182403564,-0.01797771453857422,-0.014889895915985107,0.09164345264434814,0.8292395072006323,-0.42448641586276076,0.36171705384901354,0.036523997733607205
1729786941019457500,3.05545751953125,-0.07669328153133392,-0.01812560483813286,0.04187718778848648,0.6311327815055847,0.6776427626609802,-0.377454549074173,0.024552643299102783,-0.01515185832977295,0.043485403060913086,0.8290789677736291,-0.42473696705936204,0.3617612891308013,0.03681741669959817
1729786941029488600,3.065488525390625,-0.023145101964473724,-0.030546586960554123,0.02838587760925293,0.6312069892883301,0.6776939630508423,-0.3772381544113159,0.03575468063354492,-0.0011955499649047852,-0.009602665901184082,0.8290015979322988,-0.42492206855835457,0.36169345984146795,0.0370869246570829
1729786941039519500,3.07551953125,0.0041258009150624275,-0.01834861747920513,0.045687902718782425,0.6313694715499878,0.6774947047233582,-0.37732425332069397,0.005318820476531982,0.025157272815704346,-0.019816219806671143,0.8290181627791569,-0.4248843250520721,0.36167828723098866,0.03729686150743985
1729786941049550600,3.085550537109375,-0.00007240637205541134,-0.039072006940841675,0.03848778083920479,0.6315584778785706,0.6772404909133911,-0.37746429443359375,-0.010632574558258057,0.029729723930358887,-0.00731658935546875,0.8290502366139394,-0.42481260906509677,0.3616657205373997,0.03752289662552231
1729786941059582700,3.095582763671875,-0.0430825911462307,-0.023802824318408966,0.027991998940706253,0.631617546081543,0.6771782040596008,-0.3774769902229309,-0.0033674240112304688,-0.0070427656173706055,-0.006617218255996704,0.8290436503638018,-0.42487363701582587,0.3615852493942572,0.037749603174638775
1729786941069613600,3.105613525390625,-0.05372777581214905,-0.014380027540028095,0.042911823838949203,0.6317883729934692,0.6772465109825134,-0.37706834077835083,-0.014814555644989014,-0.022781848907470703,-0.0004951059818267822,0.8289088605539484,-0.4250953594485519,0.3616071932514973,0.03800270292638301
1729786941079644700,3.115644775390625,-0.07333610206842422,-0.02790078893303871,0.03545364364981651,0.6320253610610962,0.6774210333824158,-0.3763570785522461,-0.011862397193908691,-0.018226146697998047,0.008620262145996094,0.8286810847825858,-0.4254469951975993,0.36168537637377013,0.03829114699206035
1729786941089675800,3.12567578125,-0.07991357892751694,-0.01562415063381195,0.02123395726084709,0.6322278380393982,0.6777226328849792,-0.37547317147254944,-0.0024823546409606934,-0.029330909252166748,0.004791438579559326,0.8284016417448835,-0.4258964757504755,0.3617673399575702,0.038566289213995165
1729786941099706600,3.13570654296875,-0.04564095661044121,0.005866174586117268,0.033407799899578094,0.6326311826705933,0.6777554750442505,-0.37473392486572266,-0.005845785140991211,-0.014333784580230713,-0.009390860795974731,0.8281644731779088,-0.42617845931337967,0.36194607410021484,0.03886799027004022
1729786941109738500,3.145738525390625,0.0409914068877697,0.006011849269270897,0.01586955413222313,0.6329780220985413,0.6774133443832397,-0.3747667074203491,-0.004727840423583984,0.018768906593322754,-0.007176071405410767,0.8281676003647932,-0.4260396514315851,0.36208681577361557,0.03901151225989369
1729786941119769600,3.15576953125,0.010290352627635002,0.012061912566423416,0.018689043819904327,0.6330063343048096,0.6772846579551697,-0.37495145201683044,-0.00553441047668457,0.021247446537017822,-0.00004857778549194336,0.8282249666827093,-0.42591801438425564,0.3621023672325251,0.03897686328562543
1729786941129800400,3.165800537109375,0.0003341245464980602,0.007582475431263447,0.02405983954668045,0.6330229043960571,0.6772676110267639,-0.37495437264442444,-0.010860979557037354,0.01474905014038086,0.011093288660049438,0.8282259453270893,-0.4259073504998046,0.36211287661605374,0.03897602547233401
1729786941139831600,3.17583154296875,-0.03447765111923218,0.0029161907732486725,0.023959971964359283,0.6331750750541687,0.6771642565727234,-0.3748839795589447,-0.008739650249481201,-0.008676767349243164,-0.0018554925918579102,0.8281992849906704,-0.4259106878489403,0.36215756109993497,0.039090128126025796
1729786941149862400,3.1858623046875,-0.045176900923252106,-0.012834809720516205,0.01834496110677719,0.6333021521568298,0.6771268248558044,-0.37473681569099426,-0.006654202938079834,-0.019656121730804443,0.00478750467300415,0.8281453621512004,-0.4260029131164966,0.3621506834076709,0.03929005570170243
1729786941159893500,3.1958935546875,-0.03753003478050232,-0.009082786738872528,0.02404732257127762,0.6334289908409119,0.6771232485771179,-0.3745288848876953,-0.0027527213096618652,-0.017104268074035645,-0.0022411346435546875,0.8280735153299591,-0.4261214002152908,0.362154812826625,0.03948100338629998
1729786941169925600,3.205925537109375,-0.02580813132226467,-0.011520644649863243,0.03795568272471428,0.6338310837745667,0.6767795085906982,-0.3744699954986572,-0.010021209716796875,-0.004553556442260742,-0.007884770631790161,0.8280410695496977,-0.42606986694672816,0.3622560849284161,0.039788392810587804
1729786941179956700,3.215956787109375,-0.023789118975400925,-0.012270858511328697,0.028048455715179443,0.634002149105072,0.6765114665031433,-0.374664843082428,-0.011260390281677246,-0.0018593072891235352,0.007675677537918091,0.8280880666077752,-0.42598944895424945,0.36221619434271907,0.040034234983885794
1729786941189987600,3.225987548828125,-0.04068980738520622,0.0009607914835214615,0.032267969101667404,0.6339162588119507,0.6766660213470459,-0.3745305836200714,-0.01587432622909546,-0.009292423725128174,0.013721257448196411,0.8280426033253973,-0.42614488496360525,0.36212600871175393,0.040132726998871035
1729786941200018700,3.236018798828125,-0.000620285514742136,-0.015943197533488274,0.02423720806837082,0.633853018283844,0.6768282055854797,-0.37434470653533936,-0.0034360885620117188,0.0026914477348327637,0.012192606925964355,0.8279821781485517,-0.42631014741517004,0.3620598045312839,0.04022290176056111
1729786941210049500,3.246049560546875,0.0070557440631091595,-0.010588645935058594,0.005734095349907875,0.6336628794670105,0.6770354509353638,-0.3742917776107788,0.011707544326782227,0.00039374828338623047,0.004968076944351196,0.8279674492026046,-0.42642643495562876,0.36195940697118556,0.04019646746786511
1729786941220080600,3.25608056640625,-0.013103919103741646,0.00448474008589983,0.014933186583220959,0.6336787939071655,0.6769464015960693,-0.3744257092475891,-0.006863057613372803,-0.004461109638214111,0.011586993932723999,0.8280055337889676,-0.4263723988268828,0.361930549792737,0.04024390543729858
1729786941230112500,3.266112548828125,-0.045536428689956665,0.00379391573369503,0.013755802996456623,0.6339071393013,0.6768546104431152,-0.374205082654953,-0.008083224296569824,-0.01111370325088501,0.01574566960334778,0.8279316145597295,-0.4264249035912978,0.36202107972672654,0.040393670789346164
1729786941240143600,3.2761435546875,-0.05848824605345726,-0.011529487557709217,0.0060909586027264595,0.6340376734733582,0.6768430471420288,-0.3740048110485077,0.00657200813293457,-0.01860940456390381,0.015926837921142578,0.8278621573799425,-0.42653490814257167,0.3620297810038834,0.04057836492431029
1729786941250174500,3.286174560546875,-0.045645151287317276,-0.007436474785208702,-0.009514632634818554,0.6338706612586975,0.6770612597465515,-0.373893141746521,0.009668707847595215,-0.019575297832489014,0.013297468423843384,0.8278238424272675,-0.4267208456713522,0.3618877471750849,0.040673037723408856
1729786941260205800,3.296205810546875,-0.02237717993557453,-0.007084883749485016,0.012804522179067135,0.6337900161743164,0.6772840619087219,-0.37362608313560486,-0.008942604064941406,0.0008317232131958008,-0.00782841444015503,0.827740678886048,-0.42691789080904785,0.36183984204367553,0.040723186220287394
1729786941270237000,3.30623681640625,0.029426097869873047,-0.02318236045539379,-0.001557373907417059,0.6337593793869019,0.6772922873497009,-0.37366312742233276,-0.01039212942123413,0.019912242889404297,-0.02945879101753235,0.8277501560003181,-0.4269311134226835,0.3617986375179286,0.040757906100945686
1729786941280268000,3.31626806640625,0.041498273611068726,-0.027017952874302864,-0.013355975970625877,0.63359534740448,0.6773074269294739,-0.3739137649536133,-0.003819406032562256,0.007156014442443848,-0.03714272379875183,0.8278295076760189,-0.4268621720224498,0.3617068005150289,0.04068319559463891
1729786941290300000,3.3262998046875,-0.0049440604634583,-0.016013236716389656,-0.011338897980749607,0.6335805058479309,0.6772226691246033,-0.3740924596786499,-0.012578368186950684,-0.009345531463623047,-0.01535758376121521,0.827883582847438,-0.4267810072427606,0.361679066576743,0.040681484367917
1729786941300330800,3.336330810546875,-0.02376275509595871,-0.019106607884168625,-0.015972265973687172,0.6334414482116699,0.6774323582649231,-0.37394827604293823,-0.009082317352294922,-0.01791703701019287,0.012559115886688232,0.8278400439118542,-0.42692668197329686,0.3616067878354493,0.040681786367391164
1729786941310361900,3.34636181640625,-0.05744375288486481,-0.014160583727061749,-0.028324540704488754,0.6332705020904541,0.6777547597885132,-0.37365368008613586,-0.011337459087371826,-0.033955931663513184,0.013179987668991089,0.827750102695587,-0.42717270384691214,0.3615199097131559,0.0407027689202913
1729786941320393000,3.35639306640625,-0.05567115545272827,0.0008520288392901421,-0.011879785917699337,0.6334266662597656,0.6779148578643799,-0.3730981945991516,-0.016620635986328125,-0.026196718215942383,0.007177174091339111,0.8275758036735008,-0.427421584162853,0.3616098707478378,0.04083498037476544
1729786941330423800,3.366423828125,-0.03272322565317154,-0.003398376516997814,-0.02474604919552803,0.6336141228675842,0.6779664158821106,-0.3726859986782074,-0.007820606231689453,-0.0004456043243408203,0.014623254537582397,0.8274457100171423,-0.4275745752851312,0.3617139426976501,0.04094822460032228
1729786941340455000,3.376454833984375,-0.039522744715213776,-0.002800123766064644,-0.016550704836845398,0.6333073973655701,0.6782921552658081,-0.372614324092865,0.0021295547485351562,0.006339132785797119,0.018091648817062378,0.8274264700303304,-0.4277509511717679,0.3615549262098531,0.04089666926567079
1729786941350487000,3.386487060546875,-0.0060414825566112995,0.012468577362596989,-0.017668966203927994,0.6328673362731934,0.678595244884491,-0.3728103041648865,0.00845956802368164,0.009820282459259033,0.029884278774261475,0.8274921840498086,-0.4278318273549718,0.3613236348020869,0.04076643453458503
1729786941360518000,3.396517822265625,-0.014981647953391075,0.0006341822445392609,-0.005620558746159077,0.6325919032096863,0.6786261200904846,-0.373221218585968,0.004432022571563721,0.007088601589202881,0.029120266437530518,0.8276195133652207,-0.4277469215839678,0.3611398090906277,0.04070070353005436
1729786941370549000,3.406549072265625,-0.021968983113765717,-0.013135958462953568,-0.007507674396038055,0.6324177980422974,0.6786493062973022,-0.3734741806983948,0.0004252195358276367,0.005524277687072754,0.018219053745269775,0.8276951923044903,-0.4277216452776514,0.3609946050263584,0.04071669850228875
1729786941380579800,3.416579833984375,-0.011424530297517776,-0.025299735367298126,0.005383090116083622,0.6324386596679688,0.6786617040634155,-0.3734159469604492,-0.00017559528350830078,-0.0038265585899353027,-0.007840126752853394,0.8276720331768552,-0.4277875046177192,0.36095689621613747,0.040827312003274135
1729786941390611000,3.42661083984375,-0.03757863864302635,-0.028899528086185455,0.012545662932097912,0.6326115727424622,0.6785115003585815,-0.3733964264392853,-0.008572816848754883,-0.012526392936706543,-0.010850459337234497,0.8276545209534641,-0.4278087491199195,0.3609452418397235,0.04106465438489497
1729786941400642800,3.436642822265625,-0.09423819184303284,-0.012753793969750404,0.013305728323757648,0.6326670050621033,0.678572952747345,-0.3731905221939087,-0.01720374822616577,-0.02114802598953247,0.008963227272033691,0.8275798310260227,-0.4279896191523443,0.36087342210813844,0.04131393866705136
1729786941410674000,3.446673828125,-0.08977579325437546,-0.011340456083416939,0.02418047934770584,0.6327604651451111,0.6789160370826721,-0.3724074363708496,-0.014611661434173584,-0.01360231637954712,0.03489828109741211,0.827330589325061,-0.42843720964919135,0.36088480906757886,0.04156776980951893
1729786941420704800,3.456704833984375,-0.04656819999217987,-0.0242566280066967,0.020601190626621246,0.6329168677330017,0.6791054606437683,-0.37179577350616455,0.007387638092041016,0.01361304521560669,0.02687084674835205,0.827132880173206,-0.428767182447288,0.36091663860016715,0.04182322529314907
1729786941430736000,3.46673583984375,-0.008998457342386246,-0.03130281716585159,-0.0005171429365873337,0.6329944133758545,0.6792795658111572,-0.37134531140327454,0.023759126663208008,0.024287879467010498,-0.0069353580474853516,0.8269889128890343,-0.4290148685415652,0.3609343329652592,0.041976462309854336
1729786941440766700,3.4767666015625,-0.005905395373702049,-0.025930477306246758,-0.008108749985694885,0.6329355239868164,0.6794707775115967,-0.37109580636024475,0.015532493591308594,0.02011418342590332,-0.02241307497024536,0.8269117539095467,-0.42918413051249527,0.36090590656301524,0.042010954998264544
1729786941450797800,3.4867978515625,-0.013555858284235,-0.017566820606589317,-0.004433054942637682,0.6328372359275818,0.6796704530715942,-0.37089791893959045,0.0006314516067504883,0.010026812553405762,-0.01589718461036682,0.8268510658873428,-0.42934157431336284,0.3608557336016727,0.04202873093090663
1729786941460830000,3.496829833984375,0.007158408872783184,-0.0147930309176445,-0.0014013126492500305,0.6327457427978516,0.6796330809593201,-0.37112218141555786,-0.0035800933837890625,-0.004095971584320068,-0.0032979846000671387,0.8269160390619531,-0.4293030899540502,0.3607461283929406,0.04208243007588468
1729786941470861000,3.506861083984375,-0.031007086858153343,-0.010076573118567467,-0.0072400267235934734,0.6326283812522888,0.6795725226402283,-0.37143316864967346,-0.002699732780456543,-0.03101295232772827,0.01222604513168335,0.8270078041443906,-0.4292317866827758,0.36061542207504566,0.04212738123667963
1729786941480892000,3.516891845703125,-0.08858529478311539,0.020301520824432373,-0.004740117583423853,0.6326271295547485,0.6797847747802734,-0.3710465729236603,-0.02055138349533081,-0.05209928750991821,0.03809979557991028,0.8268863153853665,-0.4294622498002932,0.3606090536669833,0.04221763123433499
1729786941490923000,3.526923095703125,-0.10203532129526138,0.03471294790506363,0.007149032317101955,0.6328197717666626,0.6802933216094971,-0.3697839081287384,-0.0414196252822876,-0.03354954719543457,0.02937561273574829,0.8264985381318671,-0.4300320458515472,0.3608053195868155,0.04233363566204799
1729786941500953900,3.536953857421875,0.007047687191516161,0.0001125214621424675,-0.00044736824929714203,0.6329911947250366,0.6805948615074158,-0.3689347803592682,-0.02625596523284912,0.02137047052383423,-0.021934330463409424,0.8262390773299261,-0.43038078202094715,0.3609778333196538,0.04238481570463516
1729786941510985000,3.54698486328125,0.05485542118549347,-0.03281506523489952,-0.01974436640739441,0.6328285336494446,0.6805557012557983,-0.36928558349609375,0.016997456550598145,0.049623072147369385,-0.07260891795158386,0.8263492974825829,-0.4302587817970775,0.3608803066558481,0.042302650688776235
1729786941521016800,3.557016845703125,0.035639919340610504,-0.0315675362944603,-0.01030079834163189,0.6325604319572449,0.6804531216621399,-0.3699333965778351,0.02576470375061035,0.03527557849884033,-0.04049751162528992,0.8265494092363892,-0.43004711705401694,0.36068376873796565,0.04222153690774492
1729786941531048000,3.5670478515625,-0.0008872009348124266,0.0039790053851902485,-0.013741867616772652,0.6323649287223816,0.6804807186126709,-0.37021687626838684,0.004781067371368408,-0.003661930561065674,0.012337267398834229,0.8266380558092024,-0.42998684405172805,0.3605591195053249,0.04216538673291874
1729786941541078800,3.577078857421875,0.012427473440766335,0.03019053116440773,-0.016512088477611542,0.6323180794715881,0.6805426478385925,-0.3701830208301544,-0.01595461368560791,-0.033753156661987305,0.035817235708236694,0.8266329936777207,-0.42998382130884716,0.36058619080468657,0.042063460680611335
1729786941551110000,3.58710986328125,0.05185503885149956,0.036105677485466,-0.006850406527519226,0.6324760317802429,0.6803940534591675,-0.3701862692832947,-0.019789934158325195,-0.030674874782562256,0.045937031507492065,0.8266409911082792,-0.4298380441030802,0.36075769728577556,0.04192490198918543
1729786941561140700,3.597140625,0.05477399751543999,0.04859882965683937,-0.002018366940319538,0.6327251195907593,0.6801494359970093,-0.3702101707458496,-0.017475485801696777,-0.018650472164154053,0.024858057498931885,0.8266573582655425,-0.42961559809073363,0.3610060189333428,0.04174492760792476
1729786941571172900,3.6071728515625,0.036519624292850494,0.048321597278118134,0.004073081538081169,0.6328895092010498,0.6800273656845093,-0.3701535165309906,-0.020355939865112305,-0.005909323692321777,0.004400372505187988,0.826650665779711,-0.4294657422919011,0.36122350064012804,0.041537920665365324
1729786941581204000,3.617203857421875,0.022536899894475937,0.03196787089109421,0.006900559179484844,0.6328611373901367,0.6800233721733093,-0.37020933628082275,-0.0034666061401367188,0.014785587787628174,-0.002456068992614746,0.8266775917497824,-0.42936576817734107,0.3613037121756221,0.04133745976602712
1729786941591234800,3.62723486328125,0.03379301726818085,0.00402784813195467,0.001971847377717495,0.6327819228172302,0.6798843741416931,-0.37059977650642395,0.014679014682769775,0.02449178695678711,-0.0029048919677734375,0.8267999986023057,-0.4291778118558894,0.3612568667380448,0.04125047162362832
1729786941601266000,3.637265869140625,0.026119116693735123,0.00040456373244524,-0.0004641460254788399,0.6327287554740906,0.6797484755516052,-0.37093958258628845,0.01573920249938965,0.009368896484375,-0.008470147848129272,0.826905835281848,-0.4290113880134314,0.36121937814476723,0.041187652973296476
1729786941611296800,3.647296875,0.08303725719451904,0.01442157942801714,-0.002490278799086809,0.6327758431434631,0.6795881390571594,-0.37115299701690674,0.0012573003768920898,-0.004752993583679199,-0.002992480993270874,0.8269751609999773,-0.4288390269318608,0.36127633902628375,0.04109084251897928
1729786941621328000,3.657327880859375,0.13685642182826996,0.03470810502767563,-0.004402162507176399,0.632939338684082,0.6791903376579285,-0.37160244584083557,-0.009022712707519531,-0.009268462657928467,0.01854461431503296,0.8271241190534531,-0.4284160851604471,0.36146706178710025,0.04082838247216825
1729786941631359700,3.66735986328125,0.15072962641716003,0.029514139518141747,0.006635840982198715,0.6331628561019897,0.6786745190620422,-0.37216365337371826,-0.013518691062927246,-0.0038545727729797363,0.02653682231903076,0.827309746580029,-0.427878239893742,0.3617158935025697,0.040502971268991377
1729786941641390800,3.677390869140625,0.13385070860385895,0.035639677196741104,0.024497397243976593,0.6334215998649597,0.678077757358551,-0.37281063199043274,-0.008391082286834717,-0.0024185776710510254,0.02564263343811035,0.827517907706858,-0.42730739261110096,0.36194348040106034,0.04024287846161054
1729786941651421700,3.687421630859375,0.14259439706802368,0.050684940069913864,0.01802884414792061,0.6336723566055298,0.6774869561195374,-0.3734581470489502,0.00666278600692749,-0.006756305694580078,0.028273791074752808,0.8277269821267214,-0.42673258564724637,0.36217431396532757,0.03996586998247349
1729786941661452800,3.697452880859375,0.13662518560886383,0.04832436516880989,0.009486221708357334,0.6338843107223511,0.6769580841064453,-0.37405669689178467,0.013500332832336426,-0.0005970001220703125,0.03488433361053467,0.8279240299322199,-0.4261742982707852,0.3624184378470533,0.03962516577941506
1729786941671484000,3.70748388671875,0.09829111397266388,0.04523749649524689,0.010338434018194675,0.6340767741203308,0.6766066551208496,-0.3743661046028137,0.009096384048461914,0.022261083126068115,0.03212675452232361,0.8280321611528186,-0.4257824932852328,0.362665433245533,0.0393152423459211
1729786941681515000,3.717514892578125,0.12388376146554947,0.026733584702014923,-0.0029067974537611008,0.6343015432357788,0.6761398911476135,-0.37482866644859314,0.009894073009490967,0.03816986083984375,0.01726946234703064,0.8281832159150402,-0.4253287347606084,0.36287894369838086,0.03907686264211196
1729786941691547000,3.727546875,0.1034272238612175,-0.0002458328381180763,-0.0071979486383497715,0.6343051791191101,0.6757394671440125,-0.3755438029766083,0.007647335529327393,0.01661282777786255,-0.007665455341339111,0.8284112460119168,-0.42485858342906346,0.36293703141617806,0.038816357212835155
1729786941701578000,3.737577880859375,0.03244159370660782,-0.017431851476430893,0.012033802457153797,0.634334146976471,0.675565242767334,-0.37580832839012146,-0.004436016082763672,-0.00953441858291626,-0.0005649328231811523,0.8284963102510394,-0.424663396791088,0.3629832422338482,0.03870543971615005
1729786941711608800,3.74760888671875,-0.05264320597052574,-0.02179304137825966,0.01451453659683466,0.6343409419059753,0.6757476329803467,-0.3754684627056122,-0.019549131393432617,-0.048001110553741455,0.01568150520324707,0.8283899814202427,-0.4248620431359595,0.3629848727161265,0.03878301267524199
1729786941721640000,3.757639892578125,-0.09801820665597916,-0.011985047720372677,0.010420725680887699,0.6343717575073242,0.6760500073432922,-0.37487170100212097,-0.038485586643218994,-0.07885158061981201,0.006570279598236084,0.8281996706752409,-0.42523677946340666,0.36295707162546664,0.039001708697420506
1729786941731670800,3.7676708984375,-0.07892973721027374,0.0026293154805898666,0.02141531929373741,0.6345525979995728,0.6763330101966858,-0.3740544319152832,-0.035568833351135254,-0.06181579828262329,0.011093616485595703,0.8279401527371599,-0.4256626773092824,0.36302076411461887,0.03927248943776763
1729786941741702000,3.777701904296875,0.007501357235014439,0.0010867593809962273,0.029126502573490143,0.6348474025726318,0.6763166189193726,-0.37358367443084717,-0.012487173080444336,0.003340423107147217,0.020113825798034668,0.8277894910798893,-0.425816157829705,0.3631649230610202,0.0394527085586958
1729786941751733800,3.787733642578125,0.05303715169429779,-0.017866158857941628,0.02682153880596161,0.6350268125534058,0.6761180758476257,-0.3736380636692047,0.013593792915344238,0.04832345247268677,-0.0033760666847229004,0.8278030596980677,-0.4257191972144401,0.3632411404751673,0.03951262196896632
1729786941761764900,3.797764892578125,0.04620115086436272,-0.023274295032024384,0.03397372364997864,0.6351073980331421,0.6758550405502319,-0.3739764988422394,0.02390432357788086,0.052172303199768066,-0.013550907373428345,0.8279033187472526,-0.42552514670765473,0.3632355887456644,0.03955056773597402
1729786941771796000,3.8077958984375,0.035291243344545364,-0.023961655795574188,0.03958367183804512,0.6352438926696777,0.6754916310310364,-0.37440112233161926,0.01189655065536499,0.023452401161193848,-0.005573242902755737,0.8280260687138552,-0.4252921119165388,0.36321627227447445,0.03966545854626257
1729786941781827000,3.8178271484375,0.027023127302527428,-0.013934213668107986,0.0379631370306015,0.6354441046714783,0.6751063466072083,-0.3747561573982239,-0.0045999884605407715,-0.005428612232208252,-0.005370795726776123,0.8281257910606039,-0.4250770340667954,0.36322368042154307,0.039821384732389956
1729786941791858000,3.82785791015625,0.092025026679039,-0.0007992377504706383,0.030631721019744873,0.635735809803009,0.6745957732200623,-0.37518078088760376,-0.014794647693634033,-0.01645362377166748,-0.018007755279541016,0.8282496559649645,-0.42474955346250437,0.36331449688565093,0.03991248128263442
1729786941801889000,3.837888916015625,0.15063880383968353,0.00879858061671257,0.02297886088490486,0.6359743475914001,0.6738467216491699,-0.3761211335659027,-0.012500226497650146,0.0013698935508728027,-0.023872792720794678,0.8285383077733128,-0.4241091933801059,0.36341549909643067,0.03980936276830005
1729786941811921000,3.8479208984375,0.16990944743156433,0.01818675547838211,0.02893821895122528,0.636239230632782,0.6729851961135864,-0.3772140145301819,-0.013360261917114258,0.024066805839538574,-0.03378140926361084,0.8288773175039994,-0.42333729959402777,0.3635636487668141,0.03961368544971387
1729786941821951700,3.85795166015625,0.13959847390651703,0.010111253708600998,0.02213117852807045,0.6364474296569824,0.6722986102104187,-0.3780861794948578,-0.005252420902252197,0.014636814594268799,-0.026149630546569824,0.8291513551168256,-0.4226893441949435,0.3637177954802209,0.03938258009918581
1729786941831982800,3.86798291015625,0.06821350753307343,0.0038373791612684727,0.009311784990131855,0.636510968208313,0.6719078421592712,-0.378673255443573,-0.0019590258598327637,-0.02687317132949829,-0.007602959871292114,0.8293370609791946,-0.4222818783542285,0.3637875518304467,0.03919891975194941
1729786941842014000,3.878013916015625,-0.029180824756622314,0.005988201126456261,0.01000340934842825,0.6365252137184143,0.6718708276748657,-0.37871551513671875,-0.009999275207519531,-0.06080210208892822,0.01662445068359375,0.8293513095236184,-0.42224074521205657,0.36380625912300296,0.03917054721623031
1729786941852044800,3.888044921875,-0.04263244941830635,0.014326558448374271,0.01755480095744133,0.6366314888000488,0.6719880104064941,-0.378328412771225,-0.023029804229736328,-0.052038729190826416,0.026796460151672363,0.8292303360340458,-0.42241416781717356,0.3638709426481316,0.0392574590486254
1729786941862077000,3.898076904296875,0.08900320529937744,0.015370942652225494,0.03049297258257866,0.636827290058136,0.6718157529830933,-0.37830477952957153,-0.014284014701843262,-0.009950578212738037,0.008004516363143921,0.8292199705466763,-0.4223500977322614,0.36396155066883057,0.03932627223504745
1729786941872108000,3.90810791015625,0.34021732211112976,0.047813840210437775,-0.0008822623640298843,0.6370288729667664,0.6708232164382935,-0.37972429394721985,0.009379208087921143,0.02654927968978882,-0.013891458511352539,0.829667990404404,-0.42134594226288885,0.3641503194201471,0.038900532837126016
1729786941882139000,3.918138916015625,0.39375877380371094,0.036361392587423325,0.03671544790267944,0.6372076869010925,0.6693437695503235,-0.3820279538631439,-0.0001685023307800293,0.047163188457489014,-0.05635708570480347,0.8303954904658468,-0.4197787844462352,0.3643786396239163,0.038176007979955344
1729786941892170000,3.928169921875,0.3819069266319275,0.011643529869616032,0.047502581030130386,0.6374570727348328,0.6675945520401001,-0.3846636414527893,-0.011739909648895264,0.0754474401473999,-0.03145879507064819,0.8312168140094247,-0.4180483447664575,0.3645596892122256,0.037556401596430415
1729786941902200800,3.938200927734375,0.3268035650253296,-0.004858587868511677,0.04074481129646301,0.637671172618866,0.6660041213035583,-0.3870581388473511,-0.0000826716423034668,0.02575308084487915,-0.020931363105773926,0.831959251288576,-0.41650428373904735,0.3646849471968895,0.037052585039880785
1729786941912232000,3.94823193359375,0.2291172444820404,-0.029508274048566818,0.035455238074064255,0.6378923058509827,0.6646016240119934,-0.3890988826751709,0.005113005638122559,-0.02860015630722046,0.003433018922805786,0.8325854179214373,-0.41522081784391757,0.36474955456763863,0.03675393079788858
1729786941922263800,3.958263916015625,0.12212134152650833,-0.025384636595845222,0.026227917522192,0.6381142139434814,0.6636183857917786,-0.3904110789299011,0.01162022352218628,-0.044355690479278564,0.019286811351776123,0.8329831673036697,-0.4143963861266899,0.3647877358152313,0.03666796487777576
1729786941932295000,3.968294921875,0.05015980452299118,-0.039542265236377716,0.021625176072120667,0.638211727142334,0.6631256937980652,-0.39108848571777344,-0.012906551361083984,-0.04003310203552246,0.026449203491210938,0.8331855508569904,-0.4140088260933537,0.3647635574725553,0.036690392016223476
1729786941942325800,3.97832568359375,0.018031496554613113,-0.03889261186122894,0.03084637224674225,0.6381884813308716,0.6629038453102112,-0.39150241017341614,-0.023060858249664307,-0.030137062072753906,0.00594329833984375,0.8333047947696478,-0.4138605690902693,0.36464807662563564,0.03680283490164836
1729786941952356900,3.98835693359375,0.025675034150481224,-0.03593943268060684,0.015916425734758377,0.6381694674491882,0.662739634513855,-0.3918112814426422,-0.009247958660125732,-0.01387488842010498,-0.0182991623878479,0.8333918274434184,-0.4137696114045523,0.36453953262571615,0.036929888627802686
1729786941962387700,3.9983876953125,0.04135459288954735,-0.023310460150241852,-0.003393357153981924,0.6379044651985168,0.6626570224761963,-0.392381876707077,-0.004100143909454346,-0.0056899189949035645,-0.027723103761672974,0.8335642282186385,-0.4136116059554189,0.36432746821219303,0.036899045128920935
1729786941972418800,4.008418701171875,-0.008679010905325413,-0.01691487804055214,-0.0013373964466154575,0.6375733017921448,0.6628073453903198,-0.3926660120487213,-0.01106274127960205,0.0008736848831176758,-0.011585056781768799,0.833654032872806,-0.4136036491475612,0.3641414761943385,0.03679525358685946
1729786941982451000,4.018450927734375,-0.11682432144880295,-0.044258616864681244,-0.012030521407723427,0.6373425722122192,0.6631433367729187,-0.392473429441452,-0.007444500923156738,0.0013921856880187988,0.02554529905319214,0.8335909950013557,-0.41388090665097,0.36395863178418825,0.03691556379749144
1729786941992482000,4.02848193359375,-0.2740491032600403,-0.08211944997310638,-0.04271972179412842,0.6369943022727966,0.6639987826347351,-0.39159148931503296,0.003447592258453369,-0.03277319669723511,0.03117889165878296,0.833307871716863,-0.41470217380376806,0.3636294284256504,0.03733252092692813
1729786942002513000,4.038512939453125,-0.368831604719162,-0.09044395387172699,-0.04061103239655495,0.6365339756011963,0.6654444336891174,-0.38988247513771057,0.008485615253448486,-0.07180118560791016,0.021001219749450684,0.8327650672781166,-0.41611009188835674,0.36319575857926617,0.03799531459294554
1729786942012544000,4.0485439453125,-0.21344919502735138,-0.06351406872272491,-0.05195849388837814,0.636043131351471,0.6668344140052795,-0.3883052170276642,-0.004085183143615723,-0.058237671852111816,0.014449626207351685,0.8322647777978214,-0.41742749842661425,0.36276945286000306,0.03857272300754829
1729786942022574800,4.058574951171875,0.03541947528719902,0.003609998617321253,-0.06752733886241913,0.6355343461036682,0.6675050258636475,-0.3879860043525696,-0.018026411533355713,-0.011743307113647461,-0.01556318998336792,0.8321706046598999,-0.4178496317898564,0.3625033513459611,0.03853668772278624
1729786942032606000,4.06860595703125,0.18711739778518677,0.010233812965452671,-0.01572086289525032,0.6352717280387878,0.6672651171684265,-0.3888278603553772,-0.027865111827850342,0.058839619159698486,-0.010815083980560303,0.832442366188215,-0.4173884381952174,0.36245408053922834,0.03812692491483745
