time,seconds_elapsed,rotationRateX,rotationRateY,rotationRateZ,gravityX,gravityY,gravityZ,accelerationX,accelerationY,accelerationZ,quaternionW,quaternionX,quaternionY,quaternionZ
1728329421067529200,0.101529296875,-0.22221440076828003,0.020772140473127365,-0.0026972582563757896,0.20771493017673492,-0.16582269966602325,-0.9640318155288696,-0.01379096508026123,-0.02388983964920044,0.012295365333557129,0.9909671991467637,0.08366709930824774,0.10480414346691541,1.4693027241044669e-18
1728329421077560000,0.11156005859375,-0.22689610719680786,0.025430329144001007,-0.0003123972564935684,0.20753656327724457,-0.16358864307403564,-0.9644518494606018,-0.015580981969833374,-0.017762064933776855,0.013951361179351807,0.9910731011116483,0.08251590776909416,0.10471490236259029,0.0001435169129494017
1728329421087591200,0.121591064453125,-0.20409731566905975,0.024341361597180367,-0.011425502598285675,0.20739243924617767,-0.16100198030471802,-0.9649180173873901,-0.01561996340751648,-0.009637072682380676,0.012159228324890137,0.9911906548578414,0.08119162031176223,0.10463710885658818,0.0002352611925647242
1728329421097622300,0.131622314453125,-0.1616264134645462,0.028128694742918015,-0.020452553406357765,0.20742842555046082,-0.15846365690231323,-0.9653303623199463,-0.01652570068836212,-0.006865337491035461,0.002439737319946289,0.9912946617162595,0.07990380962441684,0.10464319365727208,0.00022559647769764874
1728329421107653400,0.1416533203125,-0.10888811200857162,0.0352499894797802,-0.005978272762149572,0.20746412873268127,-0.1567370444536209,-0.9656045436859131,-0.01744641363620758,0.002699553966522217,-0.003130197525024414,0.9913637990669145,0.07902646834080991,0.1046544119136906,0.00023449562610392165
1728329421117684500,0.1516845703125,-0.04397249221801758,0.042183101177215576,0.00613245228305459,0.2074332982301712,-0.1564325988292694,-0.9656605124473572,-0.01698833703994751,0.01631113886833191,-0.004325389862060547,0.9913779731674314,0.07886175167443911,0.10464489688092611,0.00032966738056986226
1728329421127715300,0.16171533203125,0.0014479861129075289,0.05289353430271149,0.0055196587927639484,0.20757271349430084,-0.15721824765205383,-0.9655029773712158,-0.01578497886657715,0.02237631380558014,-0.00436091423034668,0.9913382238308587,0.07924865355445965,0.10472898647004367,0.0004478641563159529
1728329421137746400,0.171746337890625,0.0018174999859184027,0.055221088230609894,0.002533723134547472,0.20777647197246552,-0.15842550992965698,-0.9652617573738098,-0.013455778360366821,0.02054707705974579,-0.00945436954498291,0.9912773293029059,0.0798494896786575,0.10484830646160483,0.000570009337722707
1728329421147777300,0.18177734375,-0.01356731541454792,0.044288814067840576,0.0031198845244944096,0.20788870751857758,-0.15956173837184906,-0.965050458908081,-0.010867208242416382,0.013825029134750366,-0.005271196365356445,0.9912239886819885,0.08041642650470754,0.10491891088917107,0.0006688808423547886
1728329421157808400,0.191808349609375,-0.0673956573009491,0.03767016530036926,0.00028122076764702797,0.2078605443239212,-0.16000956296920776,-0.9649823307991028,-0.005330637097358704,-0.00017720460891723633,0.0009320974349975586,0.9912066675449203,0.08063200911080314,0.10491568837047671,0.0007796061167561111
1728329421167839200,0.201839111328125,-0.12437798082828522,0.04172588884830475,-0.0025172284804284573,0.20782548189163208,-0.15953987836837769,-0.9650676846504211,-0.005539700388908386,-0.01582939922809601,0.0036266446113586426,0.991228029163681,0.08038236717591334,0.10490397335272597,0.0008834918050670153
1728329421177870300,0.211870361328125,-0.1676073521375656,0.05045871436595917,-0.0002641943283379078,0.2077859789133072,-0.15834861993789673,-0.9652723670005798,-0.013190627098083496,-0.022300198674201965,0.003938138484954834,0.9912795287881806,0.07976495140367874,0.10488746972716587,0.001000546409664714
1728329421187901200,0.221901123046875,-0.2027091383934021,0.054230548441410065,0.008800139650702477,0.2077561616897583,-0.1564471423625946,-0.9655887484550476,-0.0158921480178833,-0.018876343965530396,-0.0005671977996826172,0.9913591586478397,0.07878332711519662,0.10487518442535948,0.0011537012173010767
1728329421197932300,0.231932373046875,-0.22176864743232727,0.04431283473968506,0.014754168689250946,0.20769301056861877,-0.15390066802501678,-0.9660114645957947,-0.00971020758152008,-0.01388499140739441,-0.0015330314636230469,0.9914655463811157,0.07747087142265516,0.10484521639926278,0.0013413354205621887
1728329421207963100,0.241963134765625,-0.20484931766986847,0.025080015882849693,-0.0027513201348483562,0.2075602114200592,-0.15125426650047302,-0.9664579033851624,0.0017140954732894897,-0.012960821390151978,-0.0018953680992126465,0.9915779055257733,0.07611262700317045,0.10477552502893406,0.0014844733988812722
1728329421217994200,0.251994140625,-0.14418084919452667,0.020790142938494682,-0.021519148722290993,0.20738740265369415,-0.14908647537231445,-0.9668318033218384,0.005167543888092041,-0.00987960398197174,-0.008006453514099121,0.9916720999895027,0.07500895886972492,0.10467935292798933,0.0015184090143930088
1728329421228025000,0.262025146484375,-0.0328090526163578,0.04118063673377037,-0.019909268245100975,0.20740918815135956,-0.1480766087770462,-0.9669823050498962,-0.0013392269611358643,0.013738229870796204,-0.0037665963172912598,0.9917100866526097,0.07450108451970379,0.10468259279147459,0.001479051195595433
1728329421238057500,0.272057373046875,0.051666080951690674,0.06813656538724899,-0.0038413521833717823,0.20785218477249146,-0.1485586017370224,-0.9668132066726685,-0.010052502155303955,0.0421132892370224,-0.011580288410186768,0.9916676018276591,0.07474880735091315,0.10490948978797247,0.0014615400912503828
1728329421248088300,0.28208837890625,0.07861727476119995,0.08895609527826309,-0.005324466619640589,0.2085404247045517,-0.14985400438308716,-0.9664650559425354,-0.014372318983078003,0.053143784403800964,-0.0187034010887146,0.9915796769220955,0.0754063364112818,0.10526807411820349,0.0014782516835237368
1728329421258119400,0.292119384765625,0.026376372203230858,0.0745825320482254,-0.008293358609080315,0.20909251272678375,-0.15104694664478302,-0.966159999370575,-0.010651931166648865,0.037674129009246826,-0.01588040590286255,0.9915027682761751,0.07601149953732939,0.10555687117683975,0.001495518696613191
1728329421268150300,0.302150390625,-0.07159839570522308,0.044178556650877,-0.009418278001248837,0.2093835175037384,-0.15133070945739746,-0.9660525918006897,-0.0039086490869522095,0.002633810043334961,-0.008617818355560303,0.9914756463737739,0.07615319040750139,0.10570908218150886,0.0015261140446728677
1728329421278181400,0.312181396484375,-0.1504012644290924,0.026448562741279602,-0.006236332934349775,0.209531769156456,-0.1505514532327652,-0.9661421775817871,0.0023365318775177,-0.027488112449645996,0.0025954246520996094,0.99149815662058,0.07575232076020343,0.10578515569676272,0.0015828073573280063
1728329421288212200,0.322212158203125,-0.1872391700744629,0.028284810483455658,-0.0006908327341079712,0.20977109670639038,-0.14912408590316772,-0.9663115739822388,0.004050329327583313,-0.03961189091205597,0.0034514665603637695,0.9915407408186034,0.07501770575055458,0.10590819414553945,0.0016894859149206006
1728329421298243300,0.332243408203125,-0.18771275877952576,0.03606614097952843,-0.003837091149762273,0.2100958675146103,-0.14741598069667816,-0.9665030837059021,0.0010857880115509033,-0.027205616235733032,0.005031585693359375,0.9915888297053854,0.07414010849193944,0.10607398035132798,0.001805214984690537
1728329421308274200,0.342274169921875,-0.127251535654068,0.040506698191165924,-0.005816352553665638,0.21040041744709015,-0.1456652730703354,-0.9667022824287415,-0.004452526569366455,0.0032244622707366943,0.003948986530303955,0.9916388794167375,0.07324583070051724,0.10622574486730313,0.0018754797721538899
1728329421318305300,0.35230517578125,-0.09814910590648651,0.04580681025981903,0.004983830731362104,0.21062250435352325,-0.14399980008602142,-0.9669033885002136,-0.0072228312492370605,0.02258560061454773,-0.008011102676391602,0.9916894665120322,0.07239851106999155,0.10633319257695677,0.0019096350249216654
1728329421328336100,0.362336181640625,-0.10998792946338654,0.04206400364637375,0.018860764801502228,0.2107742577791214,-0.14227643609046936,-0.9671254754066467,-0.004872128367424011,0.020602837204933167,-0.01613563299179077,0.9917452798340214,0.07151375324392137,0.1064098606075676,0.002018517514066638
1728329421338367200,0.3723671875,-0.06937311589717865,0.035860173404216766,0.015964044257998466,0.21090133488178253,-0.14091967046260834,-0.9672963619232178,-0.0004368424415588379,0.015324562788009644,0.0042531490325927734,0.9917880552579921,0.07081185700535307,0.10647767104141367,0.002155190060082494
1728329421348398300,0.3823984375,-0.03638028725981712,0.042054951190948486,0.01760029047727585,0.21115173399448395,-0.14059726893901825,-0.9672886729240417,0.0008081197738647461,0.0011624395847320557,-0.009502708911895752,0.9917858434560606,0.07063599069765143,0.10661250184532586,0.002277952757245151
1728329421358429200,0.39242919921875,-0.020311571657657623,0.03395547717809677,0.03932103514671326,0.21151456236839294,-0.1410415768623352,-0.9671447277069092,0.0065640658140182495,0.015248104929924011,-0.01134037971496582,0.9917490720774557,0.07083967584381401,0.10681474647158519,0.002486573201509419
1728329421368460300,0.402460205078125,0.04763312637805939,0.0175044946372509,0.049782197922468185,0.21172253787517548,-0.14212077856063843,-0.9669411778450012,0.020073741674423218,0.03790324926376343,-0.006233870983123779,0.9916970247166468,0.07135787480996655,0.10694607213020406,0.0027584010338100283
1728329421378491400,0.412491455078125,0.05593100190162659,0.017490912228822708,0.047369640320539474,0.21180811524391174,-0.14336103200912476,-0.9667393565177917,0.02429114282131195,0.033879220485687256,-0.019314110279083252,0.9916453867051646,0.07196044766312969,0.1070141590669044,0.003002155716644733
1728329421388522500,0.4225224609375,-0.0025259163230657578,0.014094582758843899,0.04136341065168381,0.21183332800865173,-0.14373242855072021,-0.9666786789894104,0.01900164783000946,0.010980948805809021,-0.0082206130027771,0.9916294377125522,0.07212576087566955,0.10704459693116747,0.0032153311318561845
1728329421398553300,0.43255322265625,-0.10262908041477203,-0.00012110453099012375,0.041760221123695374,0.21167868375778198,-0.14291824400424957,-0.966833233833313,0.014761775732040405,-0.014460906386375427,0.007177472114562988,0.9916677023074179,0.07168950285952183,0.10697661501106676,0.003430286038310468
1728329421408584400,0.44258447265625,-0.23338815569877625,-0.011799066327512264,0.05634129419922829,0.21138903498649597,-0.14099259674549103,-0.9671792984008789,0.011663958430290222,-0.040480196475982666,0.021882057189941406,0.991753850911663,0.0706797352422088,0.10683975467656076,0.0037382912675060064
1728329421418615300,0.452615234375,-0.3365212082862854,-0.016565591096878052,0.06583519279956818,0.21117942035198212,-0.13808442652225494,-0.9676445126533508,0.012087196111679077,-0.05428314208984375,0.03466111421585083,0.9918692720318911,0.06915735280579359,0.10674734047521024,0.0041889594276692775
1728329421428646400,0.462646484375,-0.3832053542137146,-0.01562416460365057,0.06591242551803589,0.21092121303081512,-0.13473635911941528,-0.9681726694107056,0.01127728819847107,-0.05351130664348602,0.029711425304412842,0.9920001484714682,0.06740547122696716,0.10663093400655274,0.004707317107113158
1728329421438677200,0.47267724609375,-0.38240933418273926,-0.01793498918414116,0.06928318738937378,0.21072813868522644,-0.13097675144672394,-0.9687305092811584,0.010860010981559753,-0.028569161891937256,0.03130680322647095,0.9921380928852012,0.06544647476707116,0.1065435046320433,0.0052225864682474135
1728329421448708400,0.482708251953125,-0.30971622467041016,0.0008269809186458588,0.08588826656341553,0.21082298457622528,-0.12731724977493286,-0.9691976308822632,0.011436551809310913,0.008573338389396667,0.036397337913513184,0.9922528529703555,0.06353637030935803,0.10660360024706327,0.005764172312242258
1728329421458739200,0.4927392578125,-0.24400565028190613,0.032039493322372437,0.10177002847194672,0.21117061376571655,-0.12456255406141281,-0.9694798588752747,0.011729791760444641,0.028874680399894714,0.030408203601837158,0.9923203248216163,0.062079060853835695,0.10680015745195316,0.006357340016346963
1728329421468770300,0.502770263671875,-0.24780625104904175,0.0653577670454979,0.1151534765958786,0.2117481529712677,-0.12257052958011627,-0.9696077704429626,0.008207306265830994,0.019680500030517578,0.037784039974212646,0.9923479688851433,0.060997843153164436,0.10712322792152532,0.007040282401686656
1728329421478801200,0.51280126953125,-0.3554658591747284,0.08005916327238083,0.13695918023586273,0.2125139832496643,-0.12047822773456573,-0.969702422618866,0.006022408604621887,-0.016255788505077362,0.06169766187667847,0.9923654759406206,0.05985003103670365,0.10754887632946497,0.00786627530380049
1728329421488832300,0.522832275390625,-0.505196213722229,0.07949590682983398,0.16914108395576477,0.21327190101146698,-0.11750635504722595,-0.9699006676673889,0.00720234215259552,-0.06508031487464905,0.09142172336578369,0.9924065276073929,0.05823162846611039,0.10797560655231767,0.008925452504985349
1728329421498863000,0.532863037109375,-0.7066742777824402,0.08570192754268646,0.19487839937210083,0.21400049328804016,-0.11282641440629959,-0.9702958464622498,0.010532602667808533,-0.1086243987083435,0.10368818044662476,0.9924937069562372,0.05572510306026996,0.10838265073176806,0.010208224653057466
1728329421508894200,0.542894287109375,-0.9476251006126404,0.09708613902330399,0.23045611381530762,0.2146824449300766,-0.10521915555000305,-0.9709996581077576,0.009225025773048401,-0.12782832980155945,0.12992000579833984,0.9926539184152426,0.051711917202444405,0.10874759407509428,0.011747766695359348
1728329421518925300,0.55292529296875,-1.1933276653289795,0.12508533895015717,0.2705153524875641,0.21552766859531403,-0.09531980752944946,-0.9718343019485474,0.007250651717185974,-0.13643068075180054,0.15602320432662964,0.9928404322300767,0.04650791820446515,0.10917807022002556,0.013601271078219535
1728329421528956200,0.5629560546875,-1.464083194732666,0.16504687070846558,0.3227998614311218,0.21669520437717438,-0.08299830555915833,-0.9727047085762024,0.0014597177505493164,-0.16178318858146667,0.1763179898262024,0.9930266046334105,0.04004157210788084,0.10974658890362889,0.015825615873795162
1728329421538987500,0.572987548828125,-1.7817424535751343,0.21621961891651154,0.3784245252609253,0.21830442547798157,-0.06795422732830048,-0.9735118746757507,-0.0009429752826690674,-0.20890124142169952,0.207871675491333,0.9931836149168299,0.032151534898946836,0.11050037075909681,0.018504340381251712
1728329421549018000,0.58301806640625,-2.184051036834717,0.277170330286026,0.4445902109146118,0.22050422430038452,-0.04953746125102043,-0.9741272926330566,-0.0037836283445358276,-0.26682302355766296,0.25363779067993164,0.9932742789844791,0.022502967474394415,0.11148982822340596,0.02168011317062605
1728329421559049200,0.59304931640625,-2.6640496253967285,0.32281771302223206,0.5212847590446472,0.22331318259239197,-0.026977403089404106,-0.9743733406066895,-0.0009163320064544678,-0.31433120369911194,0.31716209650039673,0.9932462683472137,0.010691191815251251,0.11268992576403374,0.02546559024664346
1728329421569080300,0.603080322265625,-3.1550405025482178,0.306349515914917,0.6114678978919983,0.22637423872947693,0.0002340022474527359,-0.9740403890609741,0.009740293025970459,-0.3239187002182007,0.3633989095687866,0.9930373650370724,-0.0035523979730643983,0.11387357714609035,0.029951309912400085
1728329421579111400,0.613111328125,-3.510577917098999,0.2684096395969391,0.7174039483070374,0.2293306291103363,0.031349290162324905,-0.972843587398529,0.02416364848613739,-0.3054276704788208,0.37167781591415405,0.9925654984213534,-0.019858431762472675,0.11482089305745147,0.03515169870165332
1728329421589142300,0.623142333984375,-3.7156295776367188,0.2230919450521469,0.8278079628944397,0.23212222754955292,0.06487513333559036,-0.9705207347869873,0.035669535398483276,-0.27181482315063477,0.3252265453338623,0.9917536744097641,-0.037486872546290406,0.1154745333288317,0.04104955790185416
1728329421599173400,0.63317333984375,-3.8407535552978516,0.22295677661895752,0.9336456656455994,0.23500268161296844,0.099553681910038,-0.9668830633163452,0.03794655203819275,-0.2311302125453949,0.2669624090194702,0.9905444176607671,-0.055820425675213066,0.11594206525476168,0.047573497727416196
1728329421609204200,0.643204345703125,-3.868896961212158,0.27474990487098694,1.0325459241867065,0.23856861889362335,0.13460567593574524,-0.9617516994476318,0.023684203624725342,-0.18441036343574524,0.22308897972106934,0.9888850651031614,-0.07449346423139512,0.11651126396587302,0.05460961336149747
1728329421619235300,0.6532353515625,-3.8362109661102295,0.3215809762477875,1.1523258686065674,0.24311628937721252,0.16895458102226257,-0.9551695585250854,0.01237688958644867,-0.15027782320976257,0.16441333293914795,0.986773383812772,-0.092999926498595,0.11732965754914748,0.062154480336441505
1728329421629266200,0.66326611328125,-3.8410720825195312,0.35588064789772034,1.2240368127822876,0.24861621856689453,0.20258663594722748,-0.9471793174743652,0.014246955513954163,-0.13927792012691498,0.11797094345092773,0.984210563519709,-0.111353567248263,0.11836691868982702,0.07013819865274362
1728329421639297300,0.67329736328125,-4.081780910491943,0.3187829554080963,1.3008068799972534,0.2546512186527252,0.23673787713050842,-0.9376075863838196,0.005633234977722168,-0.16595235466957092,0.13481217622756958,0.981141701128045,-0.1301954626036759,0.11935392357072051,0.0785165365538569
1728329421649328000,0.683328125,-4.447811603546143,0.23785561323165894,1.6296035051345825,0.2610028088092804,0.27288973331451416,-0.9259636998176575,0.018110990524291992,-0.20689547061920166,0.17634516954421997,0.9773743906609392,-0.15039218239824734,0.12000145785194917,0.08787056034090722
1728329421659359200,0.693359130859375,-4.94312047958374,0.017270509153604507,1.822943925857544,0.26724809408187866,0.31145066022872925,-0.9119083881378174,0.16204267740249634,-0.25223132967948914,0.18664294481277466,0.972675458422666,-0.17232677095958648,0.11978847783788438,0.09928072926072148
1728329421669390000,0.70339013671875,-5.278476238250732,-0.03336577117443085,1.4924360513687134,0.2727285325527191,0.3534315526485443,-0.8948214054107666,0.24404090642929077,-0.2386549413204193,0.1995089054107666,0.9670565418121151,-0.19628628785966387,0.11857909329760084,0.11050986766744708
1728329421679421200,0.713421142578125,-5.215667724609375,-0.05573408678174019,1.3042455911636353,0.27757588028907776,0.39639198780059814,-0.8751143217086792,-0.01951920986175537,-0.13629066944122314,0.1198805570602417,0.9607705464979157,-0.22091451102063453,0.11678881090527857,0.12032115296002902
1728329421689452300,0.723452392578125,-4.938304901123047,-0.20954015851020813,1.404829978942871,0.28214552998542786,0.43670687079429626,-0.8542137145996094,-0.04763317108154297,-0.049042075872421265,-0.019077301025390625,0.9540717138950862,-0.24445872794883552,0.11459966350090782,0.12982338876060834
1728329421699483100,0.733483154296875,-4.479023456573486,-0.34908586740493774,1.6775163412094116,0.2865031361579895,0.47227054834365845,-0.8335925340652466,0.0529744029045105,0.07234615087509155,-0.09508788585662842,0.9471644921068422,-0.26587467460309255,0.11186772145656407,0.14027075316522875
1728329421709514200,0.74351416015625,-4.004533290863037,-0.2329813539981842,1.823241949081421,0.29280292987823486,0.5021312832832336,-0.8137140870094299,0.10268962383270264,0.14194214344024658,-0.1706913709640503,0.9401914768857498,-0.2847228187375679,0.10989030528845736,0.1513174548992373
1728329421719545000,0.753545166015625,-3.7428016662597656,-0.2355688363313675,1.838181734085083,0.3004573881626129,0.5277906656265259,-0.7944572567939758,0.027316689491271973,0.11126267910003662,-0.19185560941696167,0.9331936453116452,-0.301667431681969,0.10848098770534528,0.1624136987945524
1728329421729576400,0.763576416015625,-3.6782121658325195,-0.25302955508232117,1.7891827821731567,0.3083936274051666,0.5513747334480286,-0.7751640677452087,0.018983691930770874,0.05687117576599121,-0.13253545761108398,0.926047298472564,-0.31773449255799635,0.10706421189759693,0.17325878926926674
1728329421739608300,0.7736083984375,-3.7474522590637207,-0.37076202034950256,1.7456384897232056,0.31605324149131775,0.5742971897125244,-0.7551775574684143,0.04432886838912964,0.016278982162475586,-0.08271300792694092,0.9185674788027411,-0.3336732735842407,0.1052300058333045,0.18390970761599568
1728329421749639200,0.78363916015625,-3.893906593322754,-0.4403797388076782,1.6600925922393799,0.32306045293807983,0.5973666906356812,-0.7340197563171387,0.049009859561920166,-0.029648184776306152,-0.011600971221923828,0.9106104009704663,-0.34992525305038646,0.10267639073001235,0.19441878298066712
1728329421759670300,0.793670166015625,-3.987973213195801,-0.5361081957817078,1.632496953010559,0.32954588532447815,0.6206059455871582,-0.7115108966827393,0.01841554045677185,-0.031097888946533203,0.011330902576446533,0.9021225969370402,-0.36654359482208093,0.09945013902134063,0.2047688819576534
1728329421769701000,0.803701171875,-4.0521240234375,-0.5861713886260986,1.6272971630096436,0.3359355628490448,0.6433805823326111,-0.6879016757011414,0.06134229898452759,-0.001092374324798584,-0.006006956100463867,0.8931222085256552,-0.38325062692899475,0.09575022619106233,0.21513631599205593
1728329421779732200,0.813732177734375,-4.108078479766846,-0.6260477900505066,1.5991302728652954,0.3424411416053772,0.6655219793319702,-0.6631852984428406,0.08738371729850769,0.03041619062423706,-0.0468367338180542,0.8836096187418264,-0.3999940322222984,0.09171765958163983,0.22544828103808678
1728329421789763300,0.823763427734375,-4.131587505340576,-0.6948468089103699,1.5749002695083618,0.34894421696662903,0.6869416236877441,-0.6374552249908447,0.07447192072868347,0.05947256088256836,-0.0569416880607605,0.873609858834618,-0.416713390662916,0.08730595770330203,0.23565540197287105
1728329421799794200,0.833794189453125,-4.015079498291016,-0.751042902469635,1.5555171966552734,0.3553871810436249,0.7069481015205383,-0.6114935874938965,0.08595806360244751,0.11005330085754395,-0.061800479888916016,0.8633312843638464,-0.4329375314806659,0.08257301706906546,0.2457761448106546
1728329421809825300,0.8438251953125,-3.7823565006256104,-0.8090300559997559,1.4702579975128174,0.361633837223053,0.7249387502670288,-0.5862463712692261,0.06899973750114441,0.11795681715011597,-0.10596859455108643,0.8531011753095649,-0.4481566843068298,0.07766858345406515,0.2556198673649376
1728329421819856100,0.853856201171875,-3.453435182571411,-0.8557649254798889,1.3924987316131592,0.3673098683357239,0.7406049966812134,-0.5626612305641174,0.04563876986503601,0.10465562343597412,-0.11838430166244507,0.8432855596738478,-0.4619436118812808,0.07264636100925055,0.2649529109865398
1728329421829887200,0.86388720703125,-3.191504955291748,-0.9026035666465759,1.2967450618743896,0.3725838363170624,0.753953218460083,-0.5410506129264832,0.04433208703994751,0.1277453899383545,-0.09832310676574707,0.8339771795812125,-0.4742356156115029,0.0676406905351255,0.27387467918845143
1728329421839918000,0.87391796875,-2.7655515670776367,-0.9103819131851196,1.182686448097229,0.3771379292011261,0.7652746438980103,-0.5216530561447144,0.023741066455841064,0.1524195671081543,-0.04775923490524292,0.825351180635227,-0.48502426318582964,0.06264939413866284,0.28217393720775913
1728329421849949400,0.883949462890625,-2.221999168395996,-0.880756676197052,1.2151950597763062,0.38175806403160095,0.7735756039619446,-0.5058079957962036,-0.0031722187995910645,0.19276350736618042,-0.05803477764129639,0.8177900336474654,-0.49365368222300804,0.058327148437747604,0.29004070983876934
1728329421859980300,0.893980224609375,-1.7778197526931763,-0.8333123922348022,1.244419813156128,0.3870624899864197,0.7788053750991821,-0.49360403418540955,0.01987418532371521,0.21449607610702515,-0.060320496559143066,0.8112470828256563,-0.5001778957712439,0.054955003156568684,0.29779235400501636
1728329421870011400,0.904011474609375,-1.4695618152618408,-0.7417497038841248,1.2648086547851562,0.39301469922065735,0.7818048596382141,-0.4840668737888336,0.008169412612915039,0.2094671130180359,0.003048837184906006,0.8055028143548273,-0.5051842999032264,0.052491750430260775,0.3052848036701648
1728329421880042200,0.914042236328125,-1.2725200653076172,-0.7108100652694702,1.3086597919464111,0.39969342947006226,0.783266544342041,-0.47617095708847046,-0.024403482675552368,0.19556957483291626,0.03404754400253296,0.8002075568359663,-0.5092513445407928,0.05076996162357053,0.3126554438629751
1728329421890073300,0.9240732421875,-1.2003787755966187,-0.6775482296943665,1.3070818185806274,0.4067052900791168,0.7837756872177124,-0.46934694051742554,-0.03158321976661682,0.13912171125411987,0.07142823934555054,0.7951599417761958,-0.5127236822729067,0.04940607901961453,0.319990906998174
1728329421900104200,0.934104248046875,-1.2618578672409058,-0.6356883645057678,1.2893712520599365,0.41386836767196655,0.7841490507125854,-0.46241042017936707,-0.024403005838394165,0.11824053525924683,0.09714555740356445,0.790047886262007,-0.5162119969184369,0.04816594414069209,0.32715392883591665
1728329421910135300,0.94413525390625,-1.3431410789489746,-0.6001796722412109,1.3067108392715454,0.42125993967056274,0.7847123742103577,-0.4547159969806671,-0.037653982639312744,0.10435628890991211,0.10229897499084473,0.7846469080989769,-0.5200366642377221,0.046945361664175754,0.33419651621537466
1728329421920166100,0.954166259765625,-1.472157597541809,-0.594304621219635,1.2866798639297485,0.42889174818992615,0.7854649424552917,-0.44620248675346375,-0.03999099135398865,0.06609755754470825,0.08311966061592102,0.7788945693793147,-0.5242258217095388,0.045673272638213754,0.34121021358730674
1728329421930197200,0.964197265625,-1.4893271923065186,-0.5974767208099365,1.1665815114974976,0.43591803312301636,0.7867580056190491,-0.4370209574699402,-0.07022586464881897,0.03770488500595093,0.07637947797775269,0.7729638435138867,-0.5287280112847464,0.044002424165315045,0.3479042627581655
1728329421940228000,0.97422802734375,-1.353469729423523,-0.6020911931991577,1.10141122341156,0.4422681927680969,0.7879440188407898,-0.4284192621707916,-0.14508801698684692,0.06616663932800293,0.010969370603561401,0.7673051107061836,-0.5329259290762016,0.04219391480597127,0.354192738147398
1728329421950259200,0.98425927734375,-1.1537808179855347,-0.5775099396705627,1.061748743057251,0.44832855463027954,0.7884401082992554,-0.42114561796188354,-0.17193084955215454,0.11861854791641235,-0.04024961590766907,0.7621220469215226,-0.5364508606598178,0.04059146330055377,0.3601981835190531
1728329421960290300,0.994290283203125,-1.1108862161636353,-0.5369793772697449,1.005088448524475,0.4541507363319397,0.7884912490844727,-0.4147634208202362,-0.1836124062538147,0.13527584075927734,-0.02391144633293152,0.757325305426593,-0.5395189039465409,0.03921286033805873,0.36584164179474765
1728329421970321200,1.004321044921875,-1.1294984817504883,-0.4996921718120575,1.027197241783142,0.4599577784538269,0.7884977459907532,-0.4083015024662018,-0.1822783350944519,0.13693249225616455,0.05347362160682678,0.7525256814665221,-0.5425985076988841,0.037896107817199105,0.37128944156174776
1728329421980352300,1.014352294921875,-1.2940402030944824,-0.47349807620048523,1.0543233156204224,0.4663240313529968,0.7884801626205444,-0.40104997158050537,-0.16014117002487183,0.09099066257476807,0.14331382513046265,0.7473491603007878,-0.5460124368068834,0.036680105485092145,0.37682140957805244
1728329421990383000,1.024383056640625,-1.3891099691390991,-0.4488238990306854,1.0189474821090698,0.4727053642272949,0.7889370918273926,-0.3925912082195282,-0.15878629684448242,0.020556926727294922,0.19752287864685059,0.74177415569856,-0.5499638960457579,0.03527192640787649,0.3821866879421592
1728329422000414200,1.034414306640625,-1.3780007362365723,-0.4702005684375763,0.9880093336105347,0.47893497347831726,0.7895639538764954,-0.3836795389652252,-0.17716193199157715,-0.0025461912155151367,0.20580792427062988,0.7360254950427235,-0.5540991254351012,0.03368076733589608,0.3874353458416118
1728329422010445300,1.0444453125,-1.1920344829559326,-0.4827541708946228,0.9259110689163208,0.48473241925239563,0.7898427844047546,-0.37574324011802673,-0.16043737530708313,0.023099780082702637,0.17748582363128662,0.7306261053692658,-0.557762300171576,0.032087332928809185,0.3925012023531417
1728329422020476400,1.054476318359375,-0.8937657475471497,-0.45235857367515564,0.8893812894821167,0.49017804861068726,0.7893248200416565,-0.36971867084503174,-0.16927042603492737,0.1096314787864685,0.13194096088409424,0.7259593637561538,-0.5605256101705954,0.03084971679100144,0.3972938599655115
1728329422030507300,1.06450732421875,-0.4845990240573883,-0.406537801027298,0.9010952115058899,0.49565598368644714,0.7874418497085571,-0.3664156198501587,-0.17973804473876953,0.2006409764289856,0.07218042016029358,0.7222990055491222,-0.5620201485121924,0.03042266649872531,0.40186056904013095
1728329422040538400,1.074538330078125,-0.23900629580020905,-0.3568224012851715,0.9107555747032166,0.5014005303382874,0.7841695547103882,-0.3656168580055237,-0.19224220514297485,0.2138621211051941,0.013886570930480957,0.7195513500589028,-0.5623492304115161,0.03090166068303283,0.4062687876231503
1728329422050569200,1.0845693359375,-0.2537088096141815,-0.35969221591949463,0.8815444111824036,0.5072157382965088,0.7804328203201294,-0.36559098958969116,-0.19366294145584106,0.16489487886428833,0.042821913957595825,0.7170956811932834,-0.5623159134495717,0.03170673797094877,0.41057190170121993
1728329422060600300,1.094600341796875,-0.476645290851593,-0.3668021857738495,0.7853062748908997,0.5123888254165649,0.7774925827980042,-0.3646406829357147,-0.16824209690093994,0.0726354718208313,0.11087176203727722,0.7144224688233861,-0.5627208527665901,0.032014120275166015,0.414633299505033
1728329422070631200,1.104631103515625,-0.682940661907196,-0.3829033672809601,0.7427316904067993,0.5169822573661804,0.7756678462028503,-0.3620343804359436,-0.16441267728805542,0.016538023948669434,0.15160048007965088,0.7112342338521827,-0.5639001416704019,0.03161381554775629,0.4185249875851383
1728329422080662300,1.114662353515625,-0.8395988345146179,-0.39556461572647095,0.7277790904045105,0.5213014483451843,0.7745772004127502,-0.35815516114234924,-0.15261858701705933,0.010426521301269531,0.15472501516342163,0.70758801721294,-0.5656671736173184,0.030709350144938516,0.42237055726140776
1728329422090693000,1.124693115234375,-1.0086157321929932,-0.4439947307109833,0.7038295269012451,0.5254388451576233,0.7740806937217712,-0.35314762592315674,-0.1320214867591858,0.02700573205947876,0.15118229389190674,0.703485528622319,-0.5679486926699817,0.02933388077702654,0.4262417941880334
1728329422100724200,1.13472412109375,-1.1244513988494873,-0.540178120136261,0.6525189280509949,0.5289531946182251,0.7742831110954285,-0.347410649061203,-0.0923534631729126,0.04918789863586426,0.1449112594127655,0.6990351995742817,-0.570573205047533,0.02721929466677317,0.43018027837866984
1728329422110755300,1.14475537109375,-1.0756412744522095,-0.5650680065155029,0.7062056064605713,0.5322985053062439,0.7745054960250854,-0.34175947308540344,-0.061702191829681396,0.10304266214370728,0.12049183249473572,0.6944526003785896,-0.5731533083803887,0.024810267645945346,0.43429862673629527
1728329422120786200,1.1547861328125,-0.9896376132965088,-0.5771304965019226,0.7397510409355164,0.5360152721405029,0.7741073966026306,-0.3368164896965027,-0.04359889030456543,0.11044460535049438,0.05906081199645996,0.6899612228253288,-0.5753933900484559,0.022675879317958912,0.43859064676429615
1728329422130817300,1.1648173828125,-0.8900404572486877,-0.6049360632896423,0.7027496099472046,0.5396623611450195,0.7733579277992249,-0.33268898725509644,-0.03154474496841431,0.06346452236175537,0.04963847994804382,0.6856909669422083,-0.5772602241995713,0.020643179360101852,0.44291348503918193
1728329422140848000,1.17484814453125,-0.7251649498939514,-0.5605332255363464,0.6645026206970215,0.5429832339286804,0.7723588347434998,-0.32959234714508057,-0.04392927885055542,0.07050615549087524,0.04106399416923523,0.681889049339044,-0.5786625558768295,0.018800781736883595,0.44701625216549334
1728329422150879200,1.184879150390625,-0.570602536201477,-0.5161678791046143,0.6764429211616516,0.5464023947715759,0.770805835723877,-0.3275708258152008,-0.0550541877746582,0.12944740056991577,0.001505821943283081,0.6785626292694464,-0.5795769903531324,0.01746690242021796,0.4509302887560165
1728329422160910000,1.19491015625,-0.667280912399292,-0.4304293990135193,0.7065688967704773,0.5502181649208069,0.7689612507820129,-0.32551276683807373,-0.019334375858306885,0.16571587324142456,0.02238166332244873,0.6752808789616824,-0.5804916165870463,0.016525748951099397,0.45470005337260955
1728329422170941400,1.20494140625,-0.9930374026298523,-0.4873350262641907,0.6709173917770386,0.5541040301322937,0.7677583694458008,-0.3217388689517975,0.011859655380249023,0.12213420867919922,0.08730283379554749,0.6713510209314307,-0.5821518596120707,0.015158426015022073,0.4584291795419462
1728329422180972300,1.21497216796875,-1.3403302431106567,-0.4814584255218506,0.6264375448226929,0.557517945766449,0.7679154872894287,-0.31540390849113464,0.0541001558303833,0.05804276466369629,0.14839649200439453,0.666443347042131,-0.5849249168617834,0.012684055044590855,0.4621204402248642
1728329422191004200,1.225004150390625,-1.521327257156372,-0.4619819223880768,0.5991806387901306,0.5608096718788147,0.7689409255981445,-0.3069566488265991,0.0589718222618103,0.03266423940658569,0.145259290933609,0.6608098409534606,-0.5885826126407644,0.009601491731588415,0.4656272019905694
1728329422201035300,1.23503515625,-1.5950039625167847,-0.45176056027412415,0.5357020497322083,0.5638530254364014,0.7704421281814575,-0.29747048020362854,0.05899542570114136,0.01570594310760498,0.11312904953956604,0.6548495872926072,-0.5926442950681788,0.00612402077671947,0.4689426688406628
1728329422211066400,1.24506640625,-1.5512317419052124,-0.41885241866111755,0.4217514991760254,0.5663086771965027,0.7723355889320374,-0.28773656487464905,0.06720572710037231,0.062198102474212646,0.10925456881523132,0.649014634025321,-0.5967628380979085,0.0024160473254414253,0.47185625571410295
1728329422221097200,1.25509716796875,-1.4099124670028687,-0.44191181659698486,0.380168616771698,0.5680915117263794,0.7743913531303406,-0.2785501182079315,0.04543393850326538,0.14784985780715942,0.047532081604003906,0.6436042018077728,-0.6006022690809962,-0.001360758154913058,0.4743930333161625
1728329422231128300,1.26512841796875,-1.334274411201477,-0.42553284764289856,0.4180440902709961,0.5701465606689453,0.7757715582847595,-0.2703914940357208,0.06634336709976196,0.22335869073867798,-0.002878129482269287,0.638478601314734,-0.6039716453254196,-0.004743703499803342,0.4770124964839157
1728329422241159200,1.2751591796875,-1.2961008548736572,-0.38751479983329773,0.3838818669319153,0.5721364617347717,0.7769827842712402,-0.26259803771972656,0.12084144353866577,0.15004968643188477,-0.0029048919677734375,0.6335593904671345,-0.6071551947668291,-0.007972235085208217,0.4794805687290153
1728329422251190300,1.285190185546875,-1.3394156694412231,-0.38971614837646484,0.3364003598690033,0.5740188360214233,0.7782770395278931,-0.2545333802700043,0.09250032901763916,0.037259459495544434,0.03141942620277405,0.6286079363398888,-0.6104149646950092,-0.011263934807952262,0.48178703981388976
1728329422261221000,1.29522119140625,-1.3576580286026,-0.33532044291496277,0.37081027030944824,0.5757926106452942,0.7796919345855713,-0.24605567753314972,0.13314592838287354,0.007859945297241211,0.033928051590919495,0.6235984878896041,-0.6138063620387846,-0.014625614506191691,0.48389336555769213
1728329422271252200,1.305252197265625,-1.407867193222046,-0.32237908244132996,0.36631539463996887,0.5779634118080139,0.7808571457862854,-0.23710858821868896,0.11800521612167358,0.0579184889793396,0.033190131187438965,0.6184069116905113,-0.6173562539206826,-0.01780341973265115,0.4859292525507641
1728329422281283000,1.315282958984375,-1.3945982456207275,-0.3068246841430664,0.32016441226005554,0.5799557566642761,0.7821360230445862,-0.22784848511219025,0.10873448848724365,0.07575905323028564,0.00561949610710144,0.6131342057145556,-0.6209898825168143,-0.0211499601890683,0.4878431287091504
1728329422291314200,1.325314208984375,-1.288619875907898,-0.3452397286891937,0.2871326804161072,0.5816516280174255,0.783332884311676,-0.21925139427185059,0.05402952432632446,0.028022706508636475,-0.056108713150024414,0.6081510432473226,-0.6243197709029962,-0.02447709506306766,0.48967148862212123
1728329422301345300,1.33534521484375,-1.194356918334961,-0.3336680829524994,0.20365911722183228,0.5828745365142822,0.7845370769500732,-0.2115633636713028,0.03179532289505005,-0.04494351148605347,-0.0482785701751709,0.6036211670206966,-0.6272536332656394,-0.027770435510656687,0.4913484215998361
1728329422311376400,1.34537646484375,-1.1016322374343872,-0.32482585310935974,0.13395380973815918,0.5835670828819275,0.7859371900558472,-0.20433369278907776,0.04948955774307251,-0.04600799083709717,-0.06330542266368866,0.5995022578652831,-0.6299756228226456,-0.03104617782017732,0.49271078865912854
1728329422321407200,1.3554072265625,-0.993604302406311,-0.30014219880104065,0.07644602656364441,0.5837445855140686,0.7874382734298706,-0.19794803857803345,0.03422117233276367,-0.04325181245803833,-0.10550343990325928,0.5958995215455283,-0.6323398962643779,-0.034237978826989646,0.4938399114626679
1728329422331438300,1.365438232421875,-0.9132328033447266,-0.24568505585193634,0.0741405263543129,0.5838430523872375,0.7888350486755371,-0.1920069009065628,0.04922884702682495,-0.04545736312866211,-0.09436999261379242,0.5926205991013386,-0.6345197958868928,-0.037164236135275655,0.49477703513179816
1728329422341469200,1.37546923828125,-0.6313461661338806,-0.16949425637722015,0.037133246660232544,0.583910346031189,0.7899951338768005,-0.186966210603714,0.06193310022354126,-0.03865236043930054,-0.01852385699748993,0.5899116249028165,-0.636358078184027,-0.03956376209015684,0.49546681289719985
1728329422351500300,1.385500244140625,-0.16382817924022675,-0.09967150539159775,0.03947310149669647,0.5839989185333252,0.7904917001724243,-0.1845761239528656,0.021729230880737305,-0.02933746576309204,-0.10776704549789429,0.5884974449683605,-0.637217013559889,-0.04082178234473616,0.4959424412720145
1728329422361531100,1.39553125,0.35023945569992065,-0.06108618527650833,0.022920753806829453,0.5841299295425415,0.7901180982589722,-0.1857575923204422,-0.010460495948791504,0.03445166349411011,-0.20746135711669922,0.5887031489161569,-0.636761581087173,-0.040692627186032164,0.4962938059935334
1728329422371562200,1.405562255859375,0.8000409603118896,-0.01243076752871275,-0.004455476999282837,0.5841408967971802,0.7889646887779236,-0.19056273996829987,-0.013416409492492676,0.07231765985488892,-0.20969057083129883,0.5905119990674844,-0.6349578145889073,-0.039334509782047625,0.49656517417876295
1728329422381593300,1.41559326171875,1.077789545059204,0.06477054208517075,-0.04268674924969673,0.5840365290641785,0.7872246503829956,-0.19793616235256195,-0.013403594493865967,0.049048542976379395,-0.16386491060256958,0.5936062366430191,-0.6321931351210457,-0.036929074483467966,0.49658810082375027
1728329422391624200,1.425624267578125,1.0978517532348633,0.08186963945627213,-0.12984348833560944,0.5835930705070496,0.7854279279708862,-0.2062089890241623,-0.03810662031173706,-0.05379951000213623,-0.12457102537155151,0.5973059572947681,-0.6290681361055679,-0.03418749064019308,0.49631657217853975
1728329422401655300,1.4356552734375,1.0276210308074951,0.07149044424295425,-0.24757491052150726,0.5822364091873169,0.7843409776687622,-0.2140328586101532,-0.02336806058883667,-0.1523066759109497,-0.032655999064445496,0.6011187930072869,-0.6260701439164258,-0.03193349090120225,0.49565378354729217
1728329422411686100,1.44568603515625,1.2805920839309692,0.07066939026117325,-0.235993891954422,0.5805383920669556,0.7832154035568237,-0.22259578108787537,0.012235045433044434,-0.08421021699905396,0.043869614601135254,0.6052785229230568,-0.6227549900612317,-0.029636645743702592,0.494909928339507
1728329422421717200,1.45571728515625,1.6005512475967407,0.20613938570022583,-0.1292133927345276,0.5793887972831726,0.7809752821922302,-0.23320917785167694,0.04313939809799194,0.003952205181121826,0.021249324083328247,0.6102988846647348,-0.618635670213571,-0.026178600790714115,0.4941052976753839
1728329422431748000,1.465748046875,1.4669047594070435,0.2067955881357193,-0.27197906374931335,0.5786954164505005,0.7781500220298767,-0.24411939084529877,0.003290116786956787,-0.03083556890487671,0.04641127586364746,0.6155431695680997,-0.6143707482690919,-0.022110884290072845,0.4931190156489411
1728329422441779200,1.475779296875,1.5568289756774902,0.1370479315519333,-0.5168085098266602,0.5759248733520508,0.7768374681472778,-0.2546256184577942,-0.018338143825531006,-0.13309961557388306,0.08648908138275146,0.6210959832726726,-0.6101789419759653,-0.019205340712502048,0.4914800743074575
1728329422451810300,1.485810302734375,1.9587721824645996,0.18837212026119232,-0.5476630926132202,0.5721935033798218,0.7752938866615295,-0.26742103695869446,-0.05279958248138428,-0.13942962884902954,0.06377729773521423,0.627775794361852,-0.6050066574357346,-0.01601313989973079,0.4894977741055111
1728329422461841400,1.49584130859375,2.311554193496704,0.25516536831855774,-0.6474200487136841,0.5682395100593567,0.7727899551391602,-0.28266507387161255,0.06998986005783081,-0.08400821685791016,-0.04399508237838745,0.6356836102104549,-0.5987715252177931,-0.011837567271279225,0.48707178184499644
1728329422471872300,1.505872314453125,2.7859060764312744,0.191563218832016,-0.7399694323539734,0.5635303258895874,0.7692354321479797,-0.30118200182914734,0.05539673566818237,-0.018075764179229736,-0.10590726137161255,0.6449994158797807,-0.591067092561855,-0.0069784250614215535,0.48432104954971983
1728329422481903400,1.5159033203125,2.841780662536621,0.1947096884250641,-0.7772312760353088,0.5583156943321228,0.7646233439445496,-0.3219233453273773,0.05194425582885742,-0.058843374252319336,-0.1147373616695404,0.6552056653793742,-0.5822675606504615,-0.001675972632814912,0.4813181638270843
1728329422491934200,1.525934326171875,2.6586248874664307,0.3013114929199219,-0.7984175682067871,0.5530580878257751,0.7598540782928467,-0.3416847288608551,0.10708284378051758,-0.050991833209991455,-0.026357203722000122,0.6651034203732584,-0.5737122160332474,0.003453817154603269,0.4779955874628159
1728329422501965300,1.53596533203125,2.3616912364959717,0.3507799804210663,-0.48130592703819275,0.5493149757385254,0.7546411752700806,-0.35884514451026917,0.10817104578018188,-0.0031152963638305664,0.10316890478134155,0.6738622199198498,-0.5661273744845396,0.00878728201213809,0.47469187358719495
1728329422511996200,1.54599609375,1.883699893951416,0.2580074369907379,-0.23377840220928192,0.5478547811508179,0.7486491799354553,-0.3733356297016144,0.21958595514297485,-0.04740101099014282,0.16721996665000916,0.6806853799914694,-0.5595877090732709,0.013920477809482442,0.4725835181440707
1728329422522027300,1.55602734375,1.0511325597763062,0.1727772206068039,-0.16966013610363007,0.5472670793533325,0.7440505623817444,-0.3832589089870453,0.2916916012763977,-0.19099575281143188,0.15782561898231506,0.6852798785102697,-0.5550300312587348,0.017669354885789575,0.47119088341427723
1728329422532058000,1.56605810546875,0.16883772611618042,0.0647764578461647,-0.11306078732013702,0.5466262698173523,0.7424988150596619,-0.3871632218360901,0.2178848385810852,-0.3180297613143921,0.18632709980010986,0.6872971430676607,-0.5532214586248002,0.01908924822397984,0.47032367864805574
1728329422542088700,1.576088623046875,-0.4536588788032532,0.0357806496322155,0.024385226890444756,0.5464349985122681,0.7434107065200806,-0.3856806457042694,0.17400884628295898,-0.4113793969154358,0.21653693914413452,0.68693990101161,-0.5539040644792426,0.018707178311101455,0.47005754116739684
1728329422552119800,1.586119873046875,-0.6040478348731995,0.012587180361151695,0.16856877505779266,0.5473641157150269,0.7448909878730774,-0.38148394227027893,0.16992104053497314,-0.3961055278778076,0.16473287343978882,0.685166482962426,-0.5558238895225587,0.01782774590043044,0.4704135464384861
1728329422562150700,1.596150634765625,-0.608350396156311,0.005190783180296421,0.11503230035305023,0.548568844795227,0.7463787198066711,-0.376816987991333,0.15054303407669067,-0.20333367586135864,0.10234197974205017,0.6830524658670019,-0.5579504876562325,0.016815237785478887,0.4710072588236257
1728329422572181800,1.606181640625,-0.28056344389915466,0.047373659908771515,-0.03945420682430267,0.5489082932472229,0.7479142546653748,-0.37326109409332275,0.06797397136688232,0.022242605686187744,0.06309571862220764,0.6816914288446722,-0.5595679552951625,0.015911041911072423,0.4710915293816267
1728329422582212600,1.616212646484375,-0.07166630774736404,0.10962355881929398,-0.1439414620399475,0.5485835671424866,0.749089241027832,-0.37137776613235474,-0.017470896244049072,0.13675981760025024,-0.02126133441925049,0.6813529995302554,-0.5604199509310102,0.015511013608351512,0.4705816056745074
1728329422592243700,1.62624365234375,0.6498897671699524,0.19137194752693176,-0.24752405285835266,0.5475783348083496,0.7491377592086792,-0.3727608621120453,-0.02748250961303711,0.2495347261428833,0.0296822190284729,0.6826172427688253,-0.5597864652983169,0.01608367715410812,0.4694829221439623
1728329422602274600,1.636274658203125,0.6158877611160278,0.17608918249607086,-0.2437777817249298,0.5466508269309998,0.7476182579994202,-0.3771471381187439,-0.021428048610687256,0.22319167852401733,-0.0888257622718811,0.6851925074025985,-0.5577693414629776,0.017882642293976014,0.4680651197866014
1728329422612305700,1.6463056640625,0.2791203558444977,-0.1603333055973053,-0.24662522971630096,0.5446574687957764,0.7474940419197083,-0.38026440143585205,0.021687805652618408,0.09762924909591675,-0.18447864055633545,0.6870291317490558,-0.5563608612894854,0.018176519864288324,0.4670366745912599
1728329422622336500,1.65633642578125,-0.36514124274253845,-0.4312596023082733,0.11498463153839111,0.5429725050926208,0.748013973236084,-0.38164931535720825,0.13369381427764893,-0.38284051418304443,-0.4058873653411865,0.6870620904011169,-0.5557820431552425,0.016782788686656853,0.467729105034756
1728329422632367900,1.666367919921875,-0.4291790723800659,-0.3273007273674011,0.26732754707336426,0.5430558919906616,0.7485628724098206,-0.3804522752761841,0.2986494302749634,-0.46407800912857056,-0.33591729402542114,0.6853853066217771,-0.5563709295102066,0.015008174654304313,0.46954569395001333
1728329422642398700,1.676398681640625,-0.04391789808869362,-0.1868978589773178,0.14413879811763763,0.5437939763069153,0.7483183145523071,-0.3798786997795105,0.11384451389312744,-0.09185469150543213,-0.12672826647758484,0.6841285375723626,-0.5566512845587726,0.01414200676705288,0.47107057619743703
1728329422652429800,1.686429931640625,0.6022722721099854,-0.23643425107002258,-0.14016883075237274,0.5431095361709595,0.747209906578064,-0.3830266296863556,-0.13151895999908447,0.20196306705474854,-0.16018620133399963,0.6849331800478721,-0.5552343747912704,0.014194019372887905,0.47157167795263805
1728329422662461000,1.6964609375,0.9408817291259766,-0.31353288888931274,-0.19279395043849945,0.540606677532196,0.7450546026229858,-0.3906893730163574,-0.19131773710250854,0.23755037784576416,-0.3695797324180603,0.6876178688468731,-0.5517634504860908,0.014574323617175158,0.4717271090056158
1728329422672492800,1.706492919921875,0.8676690459251404,-0.2829616665840149,-0.0881676897406578,0.5383287668228149,0.7422255277633667,-0.39912861585617065,0.003632962703704834,0.09732836484909058,-0.2593644857406616,0.6905026503049813,-0.5479067406903058,0.015293450235132174,0.4719858221221241
1728329422682523600,1.716523681640625,0.4145260453224182,-0.07963383197784424,0.01562955044209957,0.5374264121055603,0.7396748065948486,-0.40503594279289246,0.12031900882720947,-0.17638134956359863,-0.06003671884536743,0.6923795824023556,-0.545179653245967,0.016160936626059975,0.47236482022155707
1728329422692554800,1.7265546875,0.14583837985992432,0.1338379681110382,-0.03739025816321373,0.537519097328186,0.7386763691902161,-0.40673142671585083,0.07197797298431396,-0.25640708208084106,0.16399461030960083,0.6930879620541871,-0.5443801750215171,0.016867336342718326,0.4722233175933719
1728329422702585600,1.736585693359375,0.128371924161911,0.1505250185728073,-0.055404409766197205,0.5377963185310364,0.7383902072906494,-0.4068848192691803,-0.0336153507232666,-0.18116968870162964,0.16832894086837769,0.6935477313443704,-0.5442869915735834,0.01758566651101572,0.47162922749852
1728329422712616700,1.74661669921875,0.26358672976493835,0.1897144913673401,-0.09683627635240555,0.537956714630127,0.7380369901657104,-0.40731340646743774,-0.03710216283798218,-0.016296207904815674,0.11431413888931274,0.6941927827762341,-0.5440630641485338,0.018403136341277423,0.4709068619150566
1728329422722647600,1.7566474609375,0.6123380661010742,0.1994400918483734,-0.16215695440769196,0.5378749370574951,0.7369309663772583,-0.40941816568374634,-0.03546404838562012,0.1171950101852417,0.1263067126274109,0.6956474444800574,-0.5430459609190453,0.019798947355740833,0.46987619047296
1728329422732678700,1.7666787109375,0.9533329010009766,0.2037416398525238,-0.15470942854881287,0.5375228524208069,0.7345216870307922,-0.4141826629638672,-0.01674032211303711,0.12865281105041504,0.07439988851547241,0.698160688055936,-0.5407656913732106,0.021934889573363092,0.46868237589149914
1728329422742709800,1.776709716796875,1.070515751838684,0.2004765421152115,-0.08922283351421356,0.5375040173530579,0.7308066487312317,-0.42072680592536926,0.04010218381881714,0.035184502601623535,0.06588372588157654,0.7012068685431475,-0.5376096916881961,0.0247469831945385,0.4676240879066168
1728329422752740900,1.786740966796875,0.9890685677528381,0.2689807713031769,-0.15736804902553558,0.5376911759376526,0.7270247936248779,-0.4269932210445404,0.06977653503417969,-0.0007979869842529297,0.1921147108078003,0.7042149431711744,-0.5345428934482473,0.027699883814875422,0.46645257463429896
1728329422762772000,1.79677197265625,0.9634939432144165,0.3413386046886444,-0.23252218961715698,0.5375416874885559,0.7239161133766174,-0.4324285387992859,0.020624816417694092,0.03851979970932007,0.28545594215393066,0.7072182941538967,-0.5318423817515353,0.03048628314303469,0.46481887783488224
1728329422772802800,1.806802734375,1.097508192062378,0.3848724961280823,-0.22680838406085968,0.5375218987464905,0.720663845539093,-0.4378513991832733,0.0032343268394470215,0.03501242399215698,0.24214214086532593,0.7104210260935765,-0.529098720171506,0.03359837706463781,0.46284740466589763
1728329422782834000,1.816833984375,0.9971868991851807,0.372433066368103,-0.2728504538536072,0.5374095439910889,0.7172034382820129,-0.44363316893577576,0.03207898139953613,0.004171133041381836,0.15544039011001587,0.7137915050487124,-0.5261456103755935,0.03679966673046702,0.4607802094849915
1728329422792864800,1.82686474609375,0.4379790425300598,0.31905001401901245,-0.2953339219093323,0.5368773937225342,0.7155164480209351,-0.4469888508319855,0.02308964729309082,-0.02755868434906006,0.21475005149841309,0.7162992129420794,-0.5243937430951947,0.03894575419897324,0.45870471206936786
1728329422802896000,1.836895751953125,-0.08047264814376831,0.29656973481178284,-0.2451743334531784,0.5363931655883789,0.7161984443664551,-0.4464775025844574,0.04560750722885132,-0.10349702835083008,0.2946220338344574,0.7172835116197518,-0.5245756418313197,0.039769908785022685,0.4568841390778257
1728329422812926700,1.8469267578125,-0.33208829164505005,0.2462664097547531,-0.25237128138542175,0.5358728170394897,0.7184643745422363,-0.4434516131877899,0.08433592319488525,-0.14053767919540405,0.2336280345916748,0.7172048646694071,-0.5260276314567683,0.039612226871751983,0.4553493418159305
1728329422822957800,1.856957763671875,-0.505016028881073,0.20468658208847046,-0.24265845119953156,0.5351508259773254,0.7215985059738159,-0.43921414017677307,0.07665026187896729,-0.1077374815940857,0.10826629400253296,0.7166334288705164,-0.5280919907831866,0.03888154181359333,0.45392014656689067
1728329422832988700,1.86698876953125,-0.6875211000442505,0.23736757040023804,-0.21907536685466766,0.5343909859657288,0.725511372089386,-0.4336581826210022,0.057970404624938965,-0.03747737407684326,0.045428842306137085,0.7155119696831965,-0.5308044908072631,0.03764966139624447,0.45262751722235467
1728329422843019800,1.877019775390625,-0.6404134035110474,0.24738909304141998,-0.224376380443573,0.533886194229126,0.7295739650726318,-0.4274194538593292,0.028308570384979248,0.040643930435180664,0.023946613073349,0.7141466994389133,-0.5338198980868267,0.03642242110870808,0.451336016796341
1728329422853050600,1.887050537109375,-0.5014653205871582,0.16718240082263947,-0.18761996924877167,0.5332863926887512,0.7331587076187134,-0.42200011014938354,0.0017020106315612793,0.1466783881187439,-0.00413203239440918,0.7130455558319644,-0.536422969533246,0.03536014491940302,0.45007358612390386
1728329422863081700,1.897081787109375,-0.42865052819252014,0.048844680190086365,-0.07188592106103897,0.532801628112793,0.7357496619224548,-0.418084979057312,0.03497791290283203,0.19976675510406494,-0.005727887153625488,0.712088905453877,-0.5383083454172767,0.03437500481200373,0.4494129791502275
1728329422873112600,1.907112548828125,-0.7091975212097168,-0.036239854991436005,-0.09767384082078934,0.5322557091712952,0.7384339570999146,-0.4140278697013855,0.09834420680999756,0.10740643739700317,-0.048893243074417114,0.7107760642188636,-0.5402783530511743,0.03294483453177242,0.4492341048256606
1728329422883143700,1.917143798828125,-0.9321131706237793,-0.0566902682185173,-0.14621500670909882,0.5312064290046692,0.7425299286842346,-0.40800634026527405,0.08576750755310059,-0.014044761657714844,-0.11871188879013062,0.7087689740772422,-0.5431954411294448,0.030586739627733853,0.44905437642368107
1728329422893174500,1.927174560546875,-0.8354181051254272,-0.030767058953642845,-0.1359567791223526,0.5299394130706787,0.7469478845596313,-0.40153875946998596,0.04870450496673584,-0.018645763397216797,-0.18467342853546143,0.7066227266767019,-0.546303898359759,0.027976384890247737,0.4488361606506964
1728329422903205600,1.93720556640625,-0.36894041299819946,0.11808591336011887,-0.10713685303926468,0.5292612910270691,0.7500709295272827,-0.39658084511756897,-0.001429140567779541,0.1439264416694641,-0.23755919933319092,0.7051640943909785,-0.5486448507488624,0.02642734479656994,0.44836841169774233
1728329422913236700,1.94723681640625,0.02827460691332817,0.0963960587978363,-0.03653032332658768,0.5291500687599182,0.7510159611701965,-0.39493709802627563,-0.09476286172866821,0.27216213941574097,-0.27103275060653687,0.7049327787450381,-0.5493990426830515,0.02630864002677863,0.44781515808795197
1728329422923267800,1.957267822265625,0.1131327748298645,0.04977044835686684,0.007461103145033121,0.5293747186660767,0.7507174015045166,-0.39520353078842163,-0.09498745203018188,0.2268369197845459,-0.1941213607788086,0.7051669592023091,-0.5492579249048872,0.026720196223510597,0.4475950916034274
1728329422933299000,1.967298828125,0.13476057350635529,0.060168761759996414,-0.0638522282242775,0.5294103026390076,0.7503194212913513,-0.39591124653816223,-0.014990627765655518,0.07261770963668823,-0.16709232330322266,0.7055621811296485,-0.5489158823388749,0.027124394480199838,0.4473676175159951
1728329422943329800,1.977329833984375,0.17991580069065094,0.11762523651123047,-0.0894840881228447,0.5292014479637146,0.7501422166824341,-0.39652571082115173,0.0003395676612854004,0.011225581169128418,-0.12888014316558838,0.7061333171885606,-0.5486132439709652,0.027579931458562357,0.44680953803283674
1728329422953361000,1.98736083984375,0.23193585872650146,0.0927630290389061,-0.07483323663473129,0.5290415287017822,0.7497130632400513,-0.3975493907928467,-0.0006144046783447266,0.078396737575531,-0.02402043342590332,0.7068811652457891,-0.5481136465325361,0.028226613069454478,0.4461992826415068
1728329422963391700,1.997391845703125,0.1789541393518448,0.0502995103597641,-0.059988509863615036,0.528843879699707,0.7491970062255859,-0.3987830579280853,0.014323234558105469,0.06272310018539429,0.026270300149917603,0.7076067579310702,-0.5475215054119,0.02878675172601348,0.4457399926398096
1728329422973422800,2.0074228515625,0.14547953009605408,0.05260767042636871,-0.030130481347441673,0.5287483334541321,0.748809814453125,-0.3996361494064331,0.03292769193649292,-0.038055419921875,-0.011130452156066895,0.7081024362352173,-0.5471101214585493,0.029196660322996584,0.4454312590061858
1728329422983453700,2.01745361328125,0.19503942131996155,0.06387774646282196,-0.049986209720373154,0.528759777545929,0.7482883334159851,-0.4005967378616333,0.04686284065246582,-0.07981604337692261,-0.0447615385055542,0.7086493203810909,-0.5466421834976977,0.029731327720890866,0.44510065348358874
1728329422993484800,2.02748486328125,0.05610497295856476,0.06002414971590042,-0.03366795554757118,0.5286981463432312,0.7479748129844666,-0.4012628197669983,0.016345739364624023,-0.04083681106567383,0.02681216597557068,0.709088380110818,-0.5463159121225986,0.03012499793397553,0.4447752447788933
1728329423003515600,2.037515625,0.12740086019039154,0.053116071969270706,-0.015327565371990204,0.5287978053092957,0.7477892637252808,-0.4014773368835449,0.03499913215637207,0.008985638618469238,0.11090424656867981,0.709317254100613,-0.5461999170164845,0.030446487938861098,0.4445308002083443
1728329423013546800,2.047546630859375,0.2779077887535095,0.021570395678281784,-0.05912378057837486,0.528723955154419,0.7470534443855286,-0.40294191241264343,0.054711103439331055,0.025804221630096436,-0.03565669059753418,0.7099860592972681,-0.5454984051212608,0.03099244153625795,0.4442868531843065
1728329423023577600,2.05757763671875,0.153312087059021,0.04225575178861618,-0.06511669605970383,0.5283661484718323,0.7465029358863831,-0.4044288098812103,0.027282655239105225,0.04349035024642944,0.0074713826179504395,0.7107260546755517,-0.5447923073433971,0.03141550357039107,0.44394031788735505
1728329423033608700,2.067608642578125,0.043655626475811005,0.06564177572727203,-0.042770907282829285,0.5282453894615173,0.7463539242744446,-0.4048612713813782,0.043669283390045166,-0.02233964204788208,0.09315472841262817,0.7111028471568739,-0.5445758895879216,0.03172481407259556,0.44358019882198074
1728329423043639600,2.0776396484375,-0.21750520169734955,0.04410063102841377,-0.04741652309894562,0.5281728506088257,0.7468670606613159,-0.4040088355541229,0.08434545993804932,-0.16604119539260864,0.028856217861175537,0.7109857326292348,-0.5449710318029212,0.03165691134200518,0.4432874538886359
1728329423053670700,2.087670654296875,-0.4001370668411255,-0.033331044018268585,-0.033156365156173706,0.5279085040092468,0.7483848929405212,-0.40153807401657104,0.09036237001419067,-0.18858569860458374,0.09884947538375854,0.7101897406132626,-0.5461488234112666,0.030861357038792253,0.44317013048850007
1728329423063701500,2.097701416015625,-0.5902881622314453,-0.07763751596212387,0.011432409286499023,0.5275949239730835,0.7504343390464783,-0.3981103003025055,0.1181570291519165,-0.18041175603866577,0.13172239065170288,0.7088372365050647,-0.5477910041701394,0.02949354208909436,0.44340149916070987
1728329423073732900,2.10773291015625,-0.614216148853302,-0.06960009783506393,0.019213100895285606,0.5274947881698608,0.7526969909667969,-0.39394980669021606,0.10028231143951416,-0.16268539428710938,0.06278836727142334,0.7071473727575476,-0.5497655359707468,0.027981174486610604,0.44375388952025313
1728329423083763700,2.117763671875,-0.737504243850708,-0.07069290429353714,0.006198498886078596,0.5275105237960815,0.7553420662879944,-0.38883277773857117,0.012024998664855957,-0.10768288373947144,0.00864487886428833,0.7051450086361201,-0.5521691583157836,0.026321583480701943,0.4440572562164705
1728329423093794800,2.127794921875,-0.681688129901886,-0.049476832151412964,-0.03137470781803131,0.5272519588470459,0.7581927180290222,-0.38360050320625305,-0.06086701154708862,-0.01959097385406494,0.06098395586013794,0.7031328966795402,-0.55461770971521,0.024473454725745147,0.4443022272954715
1728329423103826000,2.137825927734375,-0.4606592059135437,-0.030884556472301483,-0.09320345520973206,0.5266554951667786,0.7606953978538513,-0.37944260239601135,-0.08122086524963379,0.029832065105438232,-0.00018090009689331055,0.7016889785103106,-0.5565550356069946,0.02291713958414971,0.4442454706252232
1728329423113856800,2.147856689453125,-0.34109845757484436,-0.01905958727002144,-0.045603178441524506,0.5259208679199219,0.7626492977142334,-0.37652787566185,-0.07694631814956665,0.06544512510299683,-0.04905495047569275,0.7007530752599306,-0.5579116906300211,0.02169345827397618,0.4440822379412628
1728329423123887900,2.157887939453125,-0.20909087359905243,-0.07784657925367355,-0.06688396632671356,0.5254335403442383,0.763976514339447,-0.37451210618019104,-0.030972540378570557,0.05363506078720093,-0.017013102769851685,0.7000237113081899,-0.5588496655977483,0.0207606336335956,0.44409769092910184
1728329423133918700,2.167918701171875,-0.15896832942962646,-0.1044054850935936,-0.03583071008324623,0.524636447429657,0.7649081349372864,-0.37372729182243347,-0.005334138870239258,-0.06683379411697388,-0.04886481165885925,0.6996984857802659,-0.5592318651138983,0.019901531407492578,0.44416846487867073
1728329423143949800,2.17794970703125,-0.12011107057332993,-0.06285569816827774,0.07849559932947159,0.524614691734314,0.7652978897094727,-0.3729590177536011,-0.01756519079208374,-0.06380563974380493,-0.03457269072532654,0.6991997382875303,-0.5595932363856018,0.019388240363117926,0.44452127999719787
1728329423153980700,2.187980712890625,0.025523893535137177,-0.14804835617542267,0.03740968182682991,0.5246890187263489,0.7650876641273499,-0.37328585982322693,0.007659614086151123,0.014560163021087646,-0.05811062455177307,0.698967969446648,-0.5594572659513546,0.019095633795599212,0.4450693376886773
1728329423164012500,2.198012451171875,0.11677251011133194,-0.1287039965391159,0.048447951674461365,0.5245062112808228,0.764616847038269,-0.3745054304599762,0.0029137730598449707,0.03285318613052368,-0.06008008122444153,0.6990545682275479,-0.5589198199820038,0.018866005146831014,0.4456180137368173
1728329423174043600,2.208043701171875,0.3521003723144531,-0.1359930783510208,0.02423555590212345,0.5243850946426392,0.7634741067886353,-0.3769981265068054,0.00843656063079834,0.05100947618484497,-0.05287244915962219,0.6996197811594951,-0.5577967365053329,0.019072007974193866,0.44612914694653244
1728329423184074800,2.21807470703125,0.6375899910926819,0.024121437221765518,0.008374832570552826,0.524233877658844,0.7615607380867004,-0.38105645775794983,0.0009126067161560059,0.045034050941467285,-0.009797334671020508,0.7009543548828661,-0.5559434896929037,0.019965216210254013,0.4463083603252811
1728329423194105600,2.228105712890625,0.9579980969429016,0.07964834570884705,-0.02859516814351082,0.5245103240013123,0.7584346532821655,-0.38686689734458923,0.0029402971267700195,0.08784830570220947,0.029322922229766846,0.7031774955879095,-0.5532472612067212,0.02200053210602471,0.44606614324776533
1728329423204137000,2.238136962890625,1.0454939603805542,0.08163468539714813,-0.10370802879333496,0.5243416428565979,0.7547957897186279,-0.3941437602043152,-0.0005074143409729004,0.15185099840164185,0.08861708641052246,0.7061288147318289,-0.5498483258897273,0.024391255704547397,0.44548188344574446
1728329423214167800,2.248167724609375,1.0220892429351807,0.009689928032457829,-0.12584581971168518,0.5236972570419312,0.7512315511703491,-0.4017365574836731,-0.0006259679794311523,0.14448988437652588,0.15977802872657776,0.7092229761695011,-0.5462833746623709,0.026574275302845257,0.44482688911485857
1728329423224199000,2.258198974609375,0.9368228316307068,-0.0313442163169384,-0.1870575100183487,0.5225170254707336,0.7479872703552246,-0.4092565178871155,0.05687439441680908,0.012892186641693115,0.07811030745506287,0.7122709361358991,-0.5427420148253367,0.028334544575890304,0.4441827620542794
1728329423234229800,2.268229736328125,0.41705262660980225,0.007789868861436844,-0.17342159152030945,0.5210403203964233,0.746048629283905,-0.41464248299598694,0.05973970890045166,-0.12338322401046753,0.0019228458404541016,0.714610176105787,-0.5402019290571046,0.02933658166844525,0.44345627654037006
1728329423244260900,2.2782607421875,-0.010270321741700172,0.05722447484731674,-0.0994376540184021,0.5202416777610779,0.7460110783576965,-0.415711373090744,0.010107994079589844,-0.11777627468109131,0.1106882393360138,0.7153487330124957,-0.5396978677062991,0.029504628230719893,0.4428676915788792
1728329423254291700,2.288291748046875,-0.024188000708818436,0.012286296114325523,-0.10283850878477097,0.5197002291679382,0.7466471195220947,-0.41524672508239746,-0.04689139127731323,-0.08292031288146973,0.08127760887145996,0.7154667438951305,-0.5399229071094843,0.02932386817615963,0.4424147461327463
1728329423264322800,2.29832275390625,0.15285742282867432,-0.06728799641132355,-0.12126705050468445,0.5187774896621704,0.7469617128372192,-0.4158342480659485,-0.07108467817306519,0.0013598203659057617,-0.056348949670791626,0.7158709393950199,-0.5396647973636588,0.02906517886388383,0.44209264872514614
1728329423274353700,2.308353759765625,0.28593501448631287,-0.05336206406354904,-0.09206708520650864,0.5177068710327148,0.7466089725494385,-0.4177975356578827,-0.07507991790771484,0.14343619346618652,-0.07245206832885742,0.716706787674108,-0.5387565461497557,0.029027971811711194,0.44184873363323773
1728329423284384800,2.318384765625,0.5010737180709839,0.034145042300224304,-0.07781411707401276,0.5170844197273254,0.7453360557556152,-0.420830100774765,-0.06601935625076294,0.15438324213027954,-0.0673900842666626,0.7179678420749931,-0.5373118266869104,0.029680839676630627,0.4415170424271586
1728329423294415600,2.32841552734375,0.5262610912322998,0.02834894135594368,-0.08413965255022049,0.5166793465614319,0.7434887886047363,-0.42457863688468933,-0.03726339340209961,0.04674869775772095,-0.05624103546142578,0.7195489351340879,-0.5355028057688063,0.03078020353984409,0.4410654747510825
1728329423304446700,2.33844677734375,0.4654833674430847,-0.01408240757882595,-0.05906013026833534,0.5162103176116943,0.7417514324188232,-0.4281725287437439,-0.006093800067901611,-0.0001285076141357422,0.009379833936691284,0.7210199330202236,-0.5337670808076501,0.03172452799635563,0.44070000467653425
1728329423314477600,2.3484775390625,0.4206136465072632,-0.08989594131708145,-0.0693412646651268,0.5156500935554504,0.7400714159011841,-0.4317399263381958,0.025426626205444336,-0.06197082996368408,-0.0365370512008667,0.722350182667238,-0.5320504905580928,0.032439445462294395,0.4405454015020808
1728329423324508700,2.3585087890625,0.09488725662231445,-0.1439645141363144,-0.08032148331403732,0.5145542025566101,0.7392856478691101,-0.4343854784965515,0.024767696857452393,-0.1260806918144226,-0.062028706073760986,0.7232626814853124,-0.5308086925449301,0.0323942882782479,0.4405495212791128
1728329423334539800,2.368539794921875,-0.2608918845653534,-0.14190508425235748,-0.06673137098550797,0.5133991241455078,0.7399823069572449,-0.43456578254699707,-0.0005360245704650879,-0.14539307355880737,-0.013661086559295654,0.7232357983983568,-0.5307770644668817,0.03150887433250743,0.4406957997381619
1728329423344570600,2.378570556640625,-0.6144787073135376,-0.16402481496334076,-0.0781688466668129,0.512280285358429,0.7422652244567871,-0.43198519945144653,-0.014187633991241455,-0.1835494041442871,-0.008474946022033691,0.7221964470210077,-0.5320895286518873,0.02980150590386246,0.44093631382662896
1728329423354602000,2.38860205078125,-0.7281256318092346,-0.18678365647792816,-0.09240930527448654,0.5108867287635803,0.7456502914428711,-0.42778533697128296,-0.007835030555725098,-0.1653432846069336,-0.008661717176437378,0.7205791683419059,-0.5341866329779651,0.02742203139381523,0.4412009116271589
1728329423364632800,2.3986328125,-0.7127180099487305,-0.2230576127767563,-0.11112839728593826,0.5092563033103943,0.7492758631706238,-0.42337194085121155,0.015722334384918213,-0.075081467628479,-0.039076149463653564,0.7188784275628881,-0.5363755464508988,0.02480524372542143,0.44147463078976296
1728329423374664000,2.408663818359375,-0.7048752903938293,-0.16550351679325104,-0.14965766668319702,0.5075286030769348,0.7528640627861023,-0.41905903816223145,0.02272963523864746,0.03097999095916748,-0.03579014539718628,0.7172109960658511,-0.5384977847818364,0.022149718341399224,0.441744188519419
1728329423384694800,2.41869482421875,-0.5615552663803101,-0.3302994966506958,-0.07955076545476913,0.5056940913200378,0.7560621500015259,-0.41550412774086,-0.005221009254455566,-0.014957904815673828,-0.0588153600692749,0.7158288057051766,-0.5402419636983448,0.01966104530199919,0.4419743790057338
1728329423394726000,2.428725830078125,-0.34118932485580444,-0.2937726378440857,-0.08078194409608841,0.5036227703094482,0.7584294676780701,-0.41370144486427307,0.022851228713989258,-0.05867666006088257,-0.04032379388809204,0.7146656300114963,-0.5411650157323227,0.01702050918922519,0.44283613718377013
1728329423404756700,2.4387568359375,-0.44898831844329834,-0.16392947733402252,-0.138265460729599,0.5017398595809937,0.7607564926147461,-0.41171202063560486,-0.001632988452911377,0.041962623596191406,-0.019974350929260254,0.7137106952829674,-0.5421485325431159,0.014797326945610789,0.44325289473609464
1728329423414787800,2.448787841796875,-0.24761736392974854,-0.19539712369441986,-0.10448966920375824,0.5001251101493835,0.7628545761108398,-0.4097900986671448,-0.08156120777130127,0.08562564849853516,0.02163708209991455,0.7129922283167147,-0.5430789477259496,0.013046362822735852,0.44332520564050426
1728329423424818700,2.458818603515625,-0.06052310764789581,-0.13695016503334045,-0.11492180079221725,0.49864402413368225,0.7638848423957825,-0.4096757471561432,-0.08781635761260986,0.10369938611984253,0.011848628520965576,0.7128573032100081,-0.5431591416457175,0.011843968082539263,0.4434776723478481
1728329423434849800,2.468849853515625,-0.13297119736671448,0.026174042373895645,-0.15456348657608032,0.49739065766334534,0.7649871110916138,-0.4091421663761139,-0.13156118988990784,0.13723456859588623,0.04763096570968628,0.7128655538216488,-0.5434215743568642,0.011040970065069848,0.44316350261551446
1728329423444880600,2.478880615234375,0.06068933755159378,0.04734622687101364,-0.11434682458639145,0.496541291475296,0.765798032283783,-0.40865641832351685,-0.16893509030342102,0.14437341690063477,0.05279096961021423,0.71307912364348,-0.5436504196760396,0.010771201481202227,0.4425452683238219
1728329423454911700,2.488911865234375,0.16200077533721924,0.055455282330513,-0.09016745537519455,0.49605369567871094,0.7657542824745178,-0.4093300998210907,-0.11050984263420105,0.08480113744735718,-0.020815134048461914,0.7136166983632457,-0.5433362184724952,0.01098642659910339,0.44205914342712027
1728329423464942600,2.498942626953125,0.22809697687625885,0.022961311042308807,-0.11419928818941116,0.49540525674819946,0.7654633522033691,-0.4106571674346924,-0.02895936369895935,0.04754006862640381,-0.005572021007537842,0.7143602653348053,-0.5427199656119163,0.011245019901384637,0.441608286743887
1728329423474973700,2.5089736328125,0.2954954504966736,0.01647198759019375,-0.1510651558637619,0.49448856711387634,0.7650319933891296,-0.4125615358352661,0.03035271167755127,0.005857229232788086,0.014108806848526001,0.7153477224636711,-0.5418360659451419,0.011528752792217859,0.44108769600739883
1728329423485004500,2.519004638671875,0.4736444354057312,0.09580324590206146,-0.25448423624038696,0.49317434430122375,0.7644575238227844,-0.4151914119720459,0.08009839057922363,-0.026069462299346924,0.0046536922454833984,0.7167885512887453,-0.540611414551431,0.011982835085407007,0.44023859550910044
1728329423495035600,2.52903564453125,0.38976791501045227,0.21930493414402008,-0.2552725076675415,0.49181169271469116,0.7639018893241882,-0.4178221821784973,0.048639386892318726,0.03251540660858154,0.08888846635818481,0.7185850365626639,-0.5393737125303957,0.0128416560998813,0.43880155253791436
1728329423505066800,2.539066650390625,0.5486748814582825,0.11365233361721039,-0.22685711085796356,0.4908367693424225,0.7630491852760315,-0.4205179214477539,0.024406790733337402,0.13941669464111328,0.16809183359146118,0.7203390899576092,-0.5380961084589867,0.013914620533475133,0.4374592875964125
1728329423515097900,2.549097900390625,0.3914250433444977,0.07119835168123245,-0.21085818111896515,0.4895060360431671,0.7620754241943359,-0.42382171750068665,0.046642005443573,0.018167436122894287,-0.020361602306365967,0.7221358284261882,-0.5365379777933975,0.01470171060788258,0.4363836289942454
1728329423525129000,2.55912890625,0.2957243025302887,0.050128273665905,-0.21691234409809113,0.48820576071739197,0.7616849541664124,-0.4260179400444031,0.02674788236618042,-0.14663362503051758,-0.07190686464309692,0.723450604132768,-0.5355030996394801,0.015081810460427843,0.4354632676319992
1728329423535159800,2.569159912109375,0.23482047021389008,0.04293001443147659,-0.2819283604621887,0.48648813366889954,0.7617418766021729,-0.42787685990333557,0.0013811290264129639,-0.24474364519119263,-0.04938754439353943,0.7247313436278864,-0.5346318280363576,0.015178440102317755,0.4343994575785191
1728329423545191700,2.579191650390625,0.32590553164482117,0.05878668650984764,-0.27723267674446106,0.48458850383758545,0.7619231343269348,-0.4297056496143341,-0.017150789499282837,-0.11403501033782959,-0.025463968515396118,0.7260526521333158,-0.5337752243515038,0.015204698854610208,0.43324386308155205
1728329423555222800,2.589222900390625,0.409185528755188,0.03761109337210655,-0.32966554164886475,0.4825093746185303,0.7617412209510803,-0.43235981464385986,-0.010646611452102661,0.026329398155212402,-0.013761371374130249,0.7277162426162734,-0.5325248012233065,0.015408788848817022,0.43198263228979844
1728329423565254000,2.59925390625,0.3938145041465759,0.05374574661254883,-0.3447888195514679,0.480141282081604,0.7616304159164429,-0.4351821839809418,-0.033440202474594116,0.05221235752105713,0.03222811222076416,0.7295070175565246,-0.5311941138650204,0.015547441811671087,0.4305933858385486
1728329423575285000,2.609284912109375,0.46412912011146545,0.09824636578559875,-0.3663143515586853,0.47780662775039673,0.7614565491676331,-0.4380464553833008,-0.014671862125396729,0.05798619985580444,0.07165247201919556,0.7313743528127814,-0.5298368010789497,0.015802832521119043,0.42908595758089874
1728329423585315800,2.61931591796875,0.5099543929100037,0.09201681613922119,-0.4116682708263397,0.4752958416938782,0.7611098885536194,-0.4413680136203766,-0.012313634157180786,0.05378580093383789,0.051734864711761475,0.7335128917003568,-0.5282549471526014,0.016208261664914677,0.4273674130547638
1728329423595347000,2.629346923828125,0.5087197422981262,0.03603503480553627,-0.40157222747802734,0.47250646352767944,0.7607121467590332,-0.44503355026245117,-0.017718225717544556,0.06793171167373657,0.04769468307495117,0.7357626344538438,-0.5265078691698619,0.016513329051086597,0.42564100919907927
1728329423605377800,2.639377685546875,0.28083109855651855,0.037480972707271576,-0.361365407705307,0.4697832763195038,0.7606743574142456,-0.4479714035987854,0.023716509342193604,0.01886671781539917,0.0449715256690979,0.7376366800371615,-0.525111023216381,0.016514151036464374,0.424120191521218
1728329423615409000,2.649408935546875,0.014851342886686325,0.011928740888834,-0.33300885558128357,0.4673229157924652,0.7615950107574463,-0.44897928833961487,0.03128856420516968,-0.10479569435119629,0.07761093974113464,0.7387640661733283,-0.5246449103868575,0.016064601489010965,0.42274974134288484
1728329423625440000,2.65943994140625,-0.24029885232448578,-0.04170764237642288,-0.28817349672317505,0.4648849666118622,0.7635859251022339,-0.448127806186676,0.004734784364700317,-0.2115687131881714,0.07749190926551819,0.7390905603941612,-0.5250842363968539,0.014921122607589444,0.4216741036564412
1728329423635470800,2.669470947265625,-0.3166085481643677,-0.046114642173051834,-0.24088531732559204,0.46267980337142944,0.7660983800888062,-0.44611719250679016,-0.013613641262054443,-0.18678325414657593,0.047389835119247437,0.7388882378344781,-0.5260800150489021,0.013461637840768011,0.42083570952542126
1728329423645502000,2.679501953125,-0.26050299406051636,-0.032146092504262924,-0.21525691449642181,0.4607992470264435,0.7683939933776855,-0.4441112279891968,-0.04730132222175598,-0.04871314764022827,0.016468405723571777,0.7386191139644938,-0.5270643714742174,0.012146254449326259,0.42011598899180036
1728329423655532800,2.68953271484375,-0.14951789379119873,-0.033294983208179474,-0.23161564767360687,0.4589823782444,0.7703328728675842,-0.44263124465942383,-0.06451219320297241,0.07730811834335327,-0.026164501905441284,0.7385253385492458,-0.5277906834929523,0.011016617214918109,0.41939948858047393
1728329423665564000,2.69956396484375,-0.059838272631168365,-0.06686727702617645,-0.23480771481990814,0.45692723989486694,0.7718109488487244,-0.4421825408935547,-0.05234044790267944,0.13117367029190063,-0.05494880676269531,0.7387715667116705,-0.5280235838395911,0.009991282710843588,0.41869787106526773
1728329423675595800,2.709595703125,-0.023093044757843018,-0.06225467845797539,-0.23916251957416534,0.4548738896846771,0.7730908393859863,-0.4420638382434845,-0.030557483434677124,0.15250736474990845,-0.05370950698852539,0.7391332736169971,-0.5280965289822639,0.00906317321684357,0.4179880765037634
1728329423685627000,2.719626953125,0.09526076912879944,-0.09277253597974777,-0.24963779747486115,0.4526354968547821,0.7740314602851868,-0.442715048789978,-0.01844656467437744,0.12945681810379028,-0.04779398441314697,0.7397453642820893,-0.5278022011913198,0.008204030292300995,0.41729430893078717
1728329423695658000,2.729657958984375,0.14545708894729614,-0.06801791489124298,-0.25603124499320984,0.4503132998943329,0.7745832204818726,-0.4441157281398773,-0.004237860441207886,0.03974783420562744,-0.06272020936012268,0.7406112302164957,-0.5271489581150807,0.007491277198460047,0.41659670806606286
1728329423705688800,2.739688720703125,0.1693909764289856,0.10785937309265137,-0.26975053548812866,0.44837290048599243,0.7750841975212097,-0.4452035129070282,-0.005959570407867432,-0.004881620407104492,-0.06886503100395203,0.7415467325581079,-0.5266371482391492,0.007180146034034865,0.41558411288658376
1728329423715720000,2.749719970703125,0.19854380190372467,0.16822656989097595,-0.30866438150405884,0.4468202292919159,0.7754874229431152,-0.4460616111755371,-0.03040790557861328,0.020853519439697266,-0.0859207808971405,0.74265282161402,-0.5262267514208279,0.007389295449381601,0.4141226870218631
1728329423725751000,2.7597509765625,0.18204452097415924,0.1289614588022232,-0.33516204357147217,0.44505536556243896,0.7760211229324341,-0.44689708948135376,-0.03735575079917908,0.09260070323944092,-0.06817853450775146,0.7438361052545798,-0.5258272400865949,0.00756053859627151,0.41250027127198746
1728329423735782000,2.769781982421875,0.233260840177536,0.019152671098709106,-0.28984302282333374,0.4429222643375397,0.7765330672264099,-0.4481253921985626,0.0006507337093353271,0.1262837052345276,-0.09704059362411499,0.7450094702175403,-0.5252450920687298,0.007409016895480826,0.4111249233096505
1728329423745813000,2.77981298828125,0.18358662724494934,-0.0018648356199264526,-0.2842666208744049,0.4408206641674042,0.7766869068145752,-0.44992727041244507,0.04692655801773071,0.02749699354171753,-0.13242438435554504,0.7461761542029308,-0.5243899706041241,0.007178282476744993,0.41010331191302446
1728329423755843800,2.78984375,0.31804484128952026,0.0803498774766922,-0.3925073444843292,0.43843382596969604,0.7771583795547485,-0.4514429271221161,0.057675182819366455,-0.04285961389541626,-0.03703665733337402,0.7474349236236598,-0.5236703092911954,0.006924561035566187,0.4087328500680634
1728329423765875000,2.799875,0.31517288088798523,0.10752099007368088,-0.3668493926525116,0.43573132157325745,0.7773260474205017,-0.4537646472454071,-0.027406126260757446,0.010454654693603516,0.032347410917282104,0.7491291182163337,-0.522561257385261,0.006885724682319173,0.4070477186079538
1728329423775905800,2.80990576171875,0.32313546538352966,0.15967421233654022,-0.283100426197052,0.433799684047699,0.7772377729415894,-0.4557623267173767,-0.07199853658676147,0.11822426319122314,0.04736083745956421,0.7506294089603375,-0.5216007427993162,0.0071761103750056145,0.40550793197071333
1728329423785937000,2.81993701171875,0.1596478819847107,0.16687491536140442,-0.24093937873840332,0.4325789511203766,0.777101457118988,-0.4571528434753418,-0.07183066010475159,0.05132865905761719,0.055007487535476685,0.7518616738859059,-0.5209262913197781,0.0077058527498213856,0.40407970573961205
1728329423795967700,2.8299677734375,-0.20758552849292755,0.05292251333594322,-0.243034228682518,0.43118903040885925,0.7782511711120605,-0.45650964975357056,0.006005793809890747,-0.07285267114639282,0.09298428893089294,0.7522847133626884,-0.5212388445567802,0.007432296953975359,0.4028926771182361
1728329423805998800,2.839998779296875,-0.4680298864841461,-0.018036508932709694,-0.22869576513767242,0.42946329712867737,0.7808769941329956,-0.45364364981651306,0.08262169361114502,-0.1569298505783081,0.12083417177200317,0.7518173094087091,-0.5226280170359021,0.0061750633730346385,0.40198595515047486
1728329423816029700,2.85002978515625,-0.6508060693740845,-0.045406877994537354,-0.2559835910797119,0.4273717701435089,0.7844554781913757,-0.44942528009414673,0.06452584266662598,-0.20106613636016846,0.098641037940979,0.7508299362861698,-0.52466115947967,0.004246136494431458,0.4012070477478423
1728329423826060800,2.860060791015625,-0.5179544687271118,0.04518720507621765,-0.20160448551177979,0.4256584048271179,0.7881364822387695,-0.4445849061012268,-0.03367537260055542,-0.11444568634033203,0.13559448719024658,0.7496747365910845,-0.5269738285862791,0.0024746447739010745,0.40035010276962724
1728329423836091600,2.870091552734375,-0.2528439462184906,0.06749889999628067,-0.2153320163488388,0.424336314201355,0.7906909584999084,-0.4413010776042938,-0.0691421627998352,0.008060991764068604,0.07737892866134644,0.7490627948486684,-0.5285333440477828,0.0013998891382331054,0.3994441424250365
1728329423846123000,2.880123046875,-0.0960635244846344,0.021704085171222687,-0.24828438460826874,0.42274975776672363,0.7923997640609741,-0.439755916595459,-0.030308961868286133,0.07100355625152588,0.018170922994613647,0.7490753834592587,-0.5292651672956609,0.0006516180651227775,0.398451997492309
1728329423856153900,2.89015380859375,-0.09257238358259201,0.06839729100465775,-0.2646321952342987,0.42085105180740356,0.7938543558120728,-0.43895280361175537,0.043550193309783936,0.06530696153640747,0.04558125138282776,0.74937088505222,-0.5296447737992476,-0.00006745368956373065,0.3973910274528471
1728329423866185000,2.90018505859375,-0.175127312541008,0.05875925347208977,-0.2466188371181488,0.4191897511482239,0.7954620122909546,-0.4376299977302551,0.08627289533615112,-0.0015167593955993652,0.06969484686851501,0.7495341971119838,-0.5302683445297356,-0.0006984417248648695,0.396249163040195
1728329423876215800,2.9102158203125,-0.45714011788368225,-0.08685466647148132,-0.3203013241291046,0.41697821021080017,0.7979200482368469,-0.4352618455886841,0.10105770826339722,-0.13095831871032715,0.04034912586212158,0.7492844296012212,-0.531380215868852,-0.002037060660393916,0.3952262979878362
1728329423886247000,2.920246826171875,-1.1057254076004028,-0.09850237518548965,-0.28699102997779846,0.4139643907546997,0.8025475740432739,-0.42959386110305786,0.06095016002655029,-0.2571221590042114,0.061063677072525024,0.7478780303744788,-0.5340225547203873,-0.0047933745823600295,0.39430367964422164
1728329423896278000,2.930278076171875,-1.2997039556503296,-0.025161318480968475,-0.1437707543373108,0.41206279397010803,0.8087604641914368,-0.4196554720401764,0.0023659169673919678,-0.25482064485549927,0.10048744082450867,0.7449062127843714,-0.5386165166197638,-0.00803155614896864,0.39362727061308184
1728329423906308900,2.940308837890625,-1.3327686786651611,-0.25584298372268677,-0.09729620069265366,0.41063737869262695,0.8145504593849182,-0.4097370207309723,-0.03154802322387695,-0.2880306839942932,-0.11487534642219543,0.7416511246280945,-0.5431421537978459,-0.011317733963586107,0.39347433526421993
1728329423916340000,2.950340087890625,-1.8892542123794556,-0.490666925907135,-0.04633767902851105,0.4084862768650055,0.8213605284690857,-0.398127943277359,0.021002858877182007,-0.3191022276878357,-0.13046705722808838,0.737377250624688,-0.5483399564239543,-0.016103459268558704,0.39413044203712827
1728329423926370800,2.960370849609375,-2.2817254066467285,-0.5287690758705139,0.021928193047642708,0.4063573479652405,0.8296117782592773,-0.38290759921073914,0.09608414769172668,-0.2769535779953003,0.005221962928771973,0.7315445372545272,-0.5550251883264372,-0.022209151281354363,0.3953436071485112
1728329423936402000,2.97040185546875,-2.3690719604492188,-0.4136616587638855,0.061761628836393356,0.4050154685974121,0.8382028341293335,-0.3652101755142212,0.077879399061203,-0.2515634298324585,0.03212609887123108,0.7248069394754248,-0.5626593306047557,-0.02844971903621273,0.3965601969553409
1728329423946432800,2.980432861328125,-2.0036346912384033,-0.26243138313293457,-0.03884833678603172,0.40400072932243347,0.8460508584976196,-0.3478240370750427,0.03230908513069153,-0.13352638483047485,0.033737123012542725,0.7183903965499352,-0.5700254645632733,-0.034043434487485286,0.3972749669466287
1728329423956463900,2.9904638671875,-1.408771276473999,-0.042915813624858856,-0.17513081431388855,0.40259766578674316,0.8522840738296509,-0.33395689725875854,-0.015039682388305664,0.033564984798431396,-0.00619196891784668,0.7137091611067348,-0.5758119840484978,-0.038237477953703636,0.3969859576027115
1728329423966494700,3.00049462890625,-0.7804851531982422,0.10690058022737503,-0.28108280897140503,0.40079012513160706,0.8568025231361389,-0.3244328796863556,-0.05136388540267944,0.2723936438560486,0.09462031722068787,0.7109733828821547,-0.5797461172333297,-0.04096330510354368,0.3958955110443227
1728329423976525800,3.01052587890625,-0.24088987708091736,0.12340445816516876,-0.40675899386405945,0.3982224762439728,0.8598048686981201,-0.3196159601211548,-0.08311325311660767,0.4849521517753601,0.11209645867347717,0.7102275037187363,-0.5817086258341111,-0.04251000191393454,0.39418876850384993
1728329423986556700,3.020556640625,0.02649920992553234,0.10161180794239044,-0.500006377696991,0.39468106627464294,0.8618863821029663,-0.3184002935886383,-0.16648587584495544,0.5039125680923462,0.06209847331047058,0.7108932256428543,-0.5821511067062247,-0.043588313108563446,0.3922128977082868
1728329423996587800,3.030587890625,0.06295681744813919,0.2985709309577942,-0.47669094800949097,0.3910526931285858,0.8637349605560303,-0.3178674280643463,-0.2366490364074707,0.4085428714752197,0.1266901195049286,0.7119785401461184,-0.5823281712343651,-0.04427395387888355,0.38989775802039794
1728329424006619000,3.040618896484375,0.3418614864349365,0.2805136442184448,-0.40440502762794495,0.38823041319847107,0.8647912740707397,-0.3184548318386078,-0.2047128677368164,0.3556067943572998,0.11737450957298279,0.7135078397135591,-0.582093006477643,-0.04404897331311112,0.38747156866812577
1728329424016650000,3.05064990234375,0.5120060443878174,0.0015986580401659012,-0.4830598831176758,0.38505351543426514,0.8650687336921692,-0.3215430676937103,-0.08485206961631775,0.1760231852531433,-0.033773064613342285,0.7156002295936792,-0.5807757921137344,-0.043908323389034914,0.3856007139740533
1728329424026680800,3.060680908203125,-0.19552232325077057,0.006167205050587654,-0.39009585976600647,0.3809310793876648,0.8662490248680115,-0.3232712745666504,0.015629619359970093,-0.0301131010055542,-0.040788114070892334,0.7170607259569,-0.5799508978110666,-0.044959049308637256,0.38400476649757126
1728329424036712000,3.0707119140625,0.05302276462316513,-0.08665088564157486,-0.023213718086481094,0.3792298436164856,0.8674377799034119,-0.3220813572406769,0.06574699282646179,-0.007009923458099365,0.10551339387893677,0.7169885897638157,-0.5803924974230169,-0.0458678943809299,0.3833641482524689
1728329424046743000,3.080742919921875,0.07392264902591705,-0.296739399433136,-0.07540768384933472,0.378282368183136,0.8670771718025208,-0.32415997982025146,0.08431833982467651,-0.25098830461502075,-0.21250689029693604,0.717442555302119,-0.579453601575624,-0.04640611513167694,0.3838700983358997
1728329424056774000,3.09077392578125,-0.7194234132766724,-0.2513924241065979,-0.08743984252214432,0.3766111731529236,0.8684554100036621,-0.32241159677505493,-0.007394254207611084,-0.4007124900817871,-0.20545095205307007,0.7165951496501572,-0.5800522657999834,-0.048307041880576204,0.38431395969856263
1728329424066805000,3.100804931640625,-0.956132173538208,-0.1400793343782425,-0.10502523183822632,0.37525245547294617,0.8716164827346802,-0.3153894543647766,-0.00870579481124878,-0.2427254319190979,0.10416209697723389,0.71410844619288,-0.5828434457401751,-0.050978391035106194,0.3843747831313924
1728329424076835800,3.1108359375,-0.6119007468223572,0.006063767708837986,-0.2243414968252182,0.37363821268081665,0.8747710585594177,-0.30849671363830566,0.04668042063713074,-0.031402528285980225,-0.006322622299194336,0.7120187964977414,-0.5855907850960461,-0.053245454943958666,0.3837677792319756
1728329424086867000,3.120866943359375,0.37986665964126587,0.033612996339797974,-0.3598748445510864,0.3711983263492584,0.8762757182121277,-0.30716878175735474,0.06816324591636658,0.2741454243659973,-0.10227030515670776,0.7121628354176991,-0.5860635353736615,-0.054269141624936595,0.3826336604429142
1728329424096897800,3.130897705078125,1.1051791906356812,0.07251112908124924,-0.4989736080169678,0.36754852533340454,0.875411331653595,-0.31394779682159424,0.08144137263298035,0.38134831190109253,-0.19185054302215576,0.7153357936889976,-0.583204954461924,-0.05383382915851846,0.38114134916099157
1728329424106929000,3.140928955078125,1.1753090620040894,0.17297041416168213,-0.553887128829956,0.36332347989082336,0.8736438751220703,-0.32363954186439514,0.06497547030448914,0.3031597137451172,-0.11688172817230225,0.7197392990213461,-0.5791374430474483,-0.05272622886234658,0.37920339542179554
1728329424116959700,3.150959716796875,1.0793471336364746,0.3046570420265198,-0.6294106841087341,0.3590179979801178,0.8719900250434875,-0.33277571201324463,0.05679929256439209,0.08833718299865723,0.043362319469451904,0.7242194881696904,-0.5753030258762094,-0.051366981510059924,0.3766883798630313
1728329424126990800,3.160990966796875,0.8766725659370422,0.2716918885707855,-0.6381242871284485,0.35436299443244934,0.8709977269172668,-0.3402790129184723,0.04370829463005066,-0.10637980699539185,0.028114765882492065,0.7283199664468892,-0.5721259744098501,-0.05032254654288573,0.37375058578822035
1728329424137021700,3.171021728515625,0.5931969285011292,0.20251040160655975,-0.5505984425544739,0.35002732276916504,0.8705341219902039,-0.34590625762939453,0.07264113426208496,-0.14810681343078613,-0.03980538249015808,0.7316120626634441,-0.5697126457190325,-0.04974308364036265,0.3710753058633993
1728329424147052800,3.181052734375,0.4696018099784851,0.12518765032291412,-0.45807090401649475,0.3462226688861847,0.8704906702041626,-0.34982284903526306,0.0627434253692627,-0.11962085962295532,-0.08569347858428955,0.7340450172496814,-0.5680017873583418,-0.04962401083381168,0.3689030394316903
1728329424157083600,3.191083740234375,0.6983513236045837,0.07279768586158752,-0.48958730697631836,0.3425512909889221,0.8700893521308899,-0.35440531373023987,-0.027899831533432007,-0.08279687166213989,-0.10607436299324036,0.7365223928912012,-0.565989515242305,-0.04952983985432193,0.3670659555355247
1728329424167115000,3.201114990234375,1.405905842781067,0.17853716015815735,-0.5542200803756714,0.3383677303791046,0.8681402206420898,-0.363097608089447,-0.11925148963928223,0.053719520568847656,-0.10099846124649048,0.7404606394057074,-0.5622101129713296,-0.048692766863508215,0.365057373778683
1728329424177145900,3.211145751953125,1.7462633848190308,0.30343541502952576,-0.46741726994514465,0.3348197937011719,0.8639258146286011,-0.3762022852897644,-0.17614364624023438,0.2956506609916687,-0.034991562366485596,0.7459757076077382,-0.5565599115777714,-0.04625929355695181,0.3627968929776645
1728329424187177000,3.221177001953125,1.909110188484192,0.30988001823425293,-0.44866567850112915,0.33219239115715027,0.8583990931510925,-0.3908955156803131,-0.15609070658683777,0.39250123500823975,0.008815407752990723,0.75190926540347,-0.5501842523052172,-0.04300621829961546,0.3606663838852887
1728329424197207800,3.231207763671875,2.0610275268554688,0.29848912358283997,-0.5064429640769958,0.32935065031051636,0.8519852757453918,-0.4070003926753998,-0.06425967812538147,0.17393946647644043,-0.009732365608215332,0.7582993404221628,-0.5430799455901619,-0.03954720341221101,0.3584443595897905
1728329424207239000,3.241239013671875,2.131939649581909,0.3360007107257843,-0.5175797343254089,0.3262891173362732,0.8449299335479736,-0.4238264262676239,0.007161200046539307,0.05672717094421387,0.014829874038696289,0.7649532239004581,-0.5355299389766999,-0.03597871595867555,0.3560334919332277
1728329424217270000,3.25127001953125,2.2976748943328857,0.3706361651420593,-0.4916866719722748,0.3236323595046997,0.8369165062904358,-0.4413987100124359,0.03571215271949768,0.1723608374595642,0.0364915132522583,0.7718202264115622,-0.5275203595187459,-0.03198300544632872,0.3535433323982915
1728329424227300900,3.26130078125,2.243290662765503,0.3618444502353668,-0.4805477261543274,0.3212626874446869,0.8282076120376587,-0.4591977000236511,0.02027478814125061,0.1705564260482788,-0.018478691577911377,0.7787105450878121,-0.5192584253793712,-0.02778203793759107,0.35101118635314205
1728329424237332000,3.27133203125,2.1099610328674316,0.33185672760009766,-0.4098533093929291,0.3192024827003479,0.8193516135215759,-0.4762066602706909,0.0006369948387145996,0.007628977298736572,-0.03207886219024658,0.7851984537816686,-0.5112075958550352,-0.0237374417021683,0.34866432134568
1728329424247362800,3.28136279296875,1.8720741271972656,0.32097020745277405,-0.32549235224723816,0.31781473755836487,0.8109362125396729,-0.4913005828857422,0.0073348283767700195,-0.12133049964904785,-0.006578385829925537,0.7908948695051605,-0.5039371147125794,-0.019927059411396397,0.3466058990750816
1728329424257394000,3.291393798828125,2.146050214767456,0.38284024596214294,-0.3026472330093384,0.31712624430656433,0.8019683361053467,-0.5062388777732849,-0.009066522121429443,-0.1175047755241394,0.03930473327636719,0.7964318198794862,-0.49661804434113505,-0.01584506069196663,0.34469676020964135
1728329424267424800,3.3014248046875,2.4477529525756836,0.4682479500770569,-0.34507617354393005,0.31666693091392517,0.7910634875297546,-0.5233932733535767,-0.06561407446861267,0.007749319076538086,-0.02912735939025879,0.8027325127494904,-0.48803935710453317,-0.01099712845827836,0.3425158541594907
1728329424277456000,3.311455810546875,2.764904022216797,0.6295473575592041,-0.3191218078136444,0.31710562109947205,0.7783600687980652,-0.5418483018875122,-0.13783010840415955,0.26013779640197754,0.03725546598434448,0.8095693150569198,-0.4785917356923222,-0.005080725272850511,0.33988469504600566
1728329424287488000,3.321488037109375,2.977696180343628,0.6794050335884094,-0.29643407464027405,0.31842103600502014,0.7631088495254517,-0.5623815655708313,-0.11468568444252014,0.33497464656829834,0.0370824933052063,0.817026138649023,-0.46776682881985326,0.001848819821584621,0.3371337606113969
1728329424297518800,3.331518798828125,2.717038631439209,0.6519284248352051,-0.2839348018169403,0.3201221525669098,0.7477262020111084,-0.5817451477050781,-0.0509265661239624,0.19993621110916138,0.022022247314453125,0.824085170883972,-0.4572207673088902,0.008751916794839837,0.33429966475834816
1728329424307550000,3.341550048828125,2.768277168273926,0.5712981820106506,-0.32893529534339905,0.32150179147720337,0.732498288154602,-0.6000691652297974,-0.011458426713943481,0.012832581996917725,0.12245380878448486,0.8307361678080858,-0.4469182949895959,0.015148130932631282,0.33152993709567863
1728329424317581000,3.3515810546875,2.7167482376098633,0.5980355143547058,-0.36600783467292786,0.32245638966560364,0.7167834639549255,-0.6182583570480347,0.007926911115646362,-0.10190004110336304,0.012453913688659668,0.8373803850352404,-0.4363658854079399,0.02134593133578461,0.32851682977794094
1728329424327612000,3.36161181640625,2.7810165882110596,0.6596834063529968,-0.31428098678588867,0.32403600215911865,0.7007461190223694,-0.635574996471405,-0.0025027692317962646,0.021330296993255615,0.10105961561203003,0.8437501043527242,-0.42596029276427416,0.02775500147436766,0.3253817588392921
1728329424337643000,3.37164306640625,2.855508327484131,0.6939582824707031,-0.3283190429210663,0.3261757791042328,0.6834733486175537,-0.6530493497848511,0.007015109062194824,0.10813730955123901,0.17279428243637085,0.8501353683322602,-0.4150689502012692,0.03454097350590608,0.32217151352415246
1728329424347673900,3.381673828125,2.815946578979492,0.7996077537536621,-0.29159191250801086,0.3291513919830322,0.6658082008361816,-0.6695960760116577,-0.02391454577445984,0.09041738510131836,0.22637403011322021,0.8562728546059142,-0.40430555883667546,0.04170102135439247,0.31873971100807175
1728329424357705000,3.391705078125,2.8260409832000732,0.8018311858177185,-0.2747865617275238,0.3327096700668335,0.6473236680030823,-0.6857669949531555,-0.029700636863708496,0.030822694301605225,0.2323826551437378,0.8622429318152032,-0.39332662385480177,0.049098462551530664,0.31531056442176003
1728329424367735800,3.40173583984375,2.337378978729248,0.7569774985313416,-0.19666220247745514,0.3367787301540375,0.6301551461219788,-0.6996317505836487,-0.023195326328277588,-0.04629284143447876,0.16806131601333618,0.8674374416598599,-0.3834408112246348,0.05618965965906186,0.3120386364271244
1728329424377767000,3.411766845703125,2.063045024871826,0.5738455057144165,-0.14654949307441711,0.3403685986995697,0.6152803301811218,-0.7110410928726196,-0.011083900928497314,-0.15936297178268433,0.23618757724761963,0.8716517718042538,-0.37499313198948714,0.062125701424695735,0.30942519094432924
1728329424387797800,3.4217978515625,1.660413146018982,0.6160908341407776,-0.13355380296707153,0.3437027335166931,0.6022557616233826,-0.7205252051353455,-0.024595677852630615,-0.32366079092025757,0.09604400396347046,0.8751817259964674,-0.3677013373268765,0.06732858764065475,0.3071150510857188
1728329424397828900,3.431828857421875,1.5998858213424683,0.667382001876831,-0.025043576955795288,0.3479056656360626,0.5910413265228271,-0.7277580499649048,-0.11278295516967773,-0.19113898277282715,0.11801683902740479,0.8779895537235385,-0.3617593896043247,0.07246453265723647,0.30498095625891175
1728329424407859700,3.441859619140625,1.8809051513671875,0.7272125482559204,0.1297987401485443,0.3533439040184021,0.578015148639679,-0.7355586886405945,-0.1260031759738922,0.060855090618133545,0.10605740547180176,0.8807777149460347,-0.35509208770255396,0.0782959350252956,0.3033315491967779
1728329424417890800,3.451890869140625,1.9029371738433838,0.8122928738594055,0.14784298837184906,0.35993170738220215,0.5634093880653381,-0.7436525225639343,-0.07245615124702454,0.1846374273300171,0.13270586729049683,0.883588018265599,-0.3478091242858911,0.08486792589566353,0.30182524317640663
1728329424427921700,3.461921630859375,1.9446438550949097,0.7965216636657715,0.16056516766548157,0.36696991324424744,0.5483967661857605,-0.7513948082923889,-0.004863560199737549,0.2316020131111145,0.24391800165176392,0.8862987217743798,-0.3404369135026012,0.09168044457643333,0.3002867392227763
1728329424437952800,3.471952880859375,1.8891222476959229,0.5619733333587646,0.015007436275482178,0.372670978307724,0.5332848429679871,-0.7594232559204102,0.1271001696586609,0.09035718441009521,0.19727420806884766,0.8891053878659255,-0.3327520617313307,0.09779801733832617,0.29866905411942585
1728329424447983900,3.48198388671875,1.5301544666290283,0.42826077342033386,-0.1277419924736023,0.3761274814605713,0.5204322934150696,-0.7666018605232239,0.1621110439300537,-0.13549882173538208,0.10542327165603638,0.8917901098498805,-0.32588043812846895,0.10247441613365062,0.2966673183094341
1728329424458015000,3.492014892578125,1.0721783638000488,0.3371447026729584,-0.05063895136117935,0.3786642253398895,0.510664165019989,-0.7719038128852844,0.11157014966011047,-0.2738630175590515,0.034751713275909424,0.8938391860067024,-0.3206402781023081,0.10600897468190874,0.2949633856992234
1728329424468045800,3.5020458984375,0.7646585702896118,0.3516184091567993,-0.011989027261734009,0.3811321556568146,0.503989577293396,-0.7750695943832397,0.06706428527832031,-0.23572474718093872,0.014983534812927246,0.8951172951799483,-0.3172237965560985,0.10878541568563535,0.293768531377501
1728329424478077000,3.512076904296875,1.0145189762115479,0.3650662899017334,0.017344892024993896,0.383879154920578,0.4971795380115509,-0.7781062126159668,-0.020704716444015503,-0.0482354462146759,-0.029114186763763428,0.8962869188819504,-0.31382233240614305,0.11163522876575786,0.29278469750287106
1728329424488108000,3.52210791015625,1.483332633972168,0.45048651099205017,0.023955924436450005,0.3872033655643463,0.4874504506587982,-0.7826018333435059,-0.059307217597961426,0.10991588234901428,-0.11609506607055664,0.8979503705944862,-0.30886609169550905,0.11532923393072544,0.29152358048606697
1728329424498139000,3.532138916015625,1.7748737335205078,0.5847985148429871,0.051754798740148544,0.39149633049964905,0.4742094874382019,-0.788578450679779,-0.07023778557777405,0.2191498875617981,-0.07137632369995117,0.9001251445390438,-0.3021156280155353,0.12015368956778982,0.2899380458942369
1728329424508170000,3.542169921875,1.7914525270462036,0.6070083379745483,0.05010603740811348,0.3965548276901245,0.45975807309150696,-0.7945859432220459,-0.043054431676864624,0.14497825503349304,0.007949590682983398,0.9023617871026742,-0.2948531792574031,0.12557317089513392,0.2881603036735561
1728329424518200800,3.552200927734375,1.4523093700408936,0.5032933950424194,-0.01452196016907692,0.40108105540275574,0.44655582308769226,-0.7998262047767639,-0.0008887946605682373,-0.05757877230644226,-0.059915006160736084,0.9043787770534973,-0.2882035322489022,0.13048229904205835,0.28637786626656775
1728329424528232000,3.56223193359375,1.1080236434936523,0.41773974895477295,-0.0322604775428772,0.40465018153190613,0.4365083575248718,-0.8035662174224854,0.06817394495010376,-0.17123430967330933,-0.06522345542907715,0.9059180742059457,-0.2831469027574046,0.13433060924281692,0.28477288789124683
1728329424538262800,3.5722626953125,1.0634500980377197,0.3871922194957733,-0.13340173661708832,0.4075890779495239,0.4281056225299835,-0.8065958023071289,0.09939944744110107,-0.12653088569641113,-0.029677391052246094,0.9072677016558355,-0.27887121293811673,0.13759705742617417,0.2831313226335556
1728329424548293400,3.58229345703125,0.9173511862754822,0.3500058948993683,-0.21016335487365723,0.40989094972610474,0.4207732379436493,-0.8092831969261169,0.037176311016082764,-0.026287764310836792,-0.05013751983642578,0.9086451665851958,-0.2749958897987353,0.14048363345804155,0.281079494465127
1728329424558324200,3.59232421875,0.8615204095840454,0.34248805046081543,-0.1169266328215599,0.41194990277290344,0.4144674837589264,-0.8114888072013855,-0.04915693402290344,0.04758387804031372,0.060863196849823,0.909831629857041,-0.2716609184201977,0.14302431942679658,0.27919694750375634
1728329424568355300,3.602355224609375,0.871868908405304,0.38210514187812805,-0.008029173128306866,0.4146537780761719,0.4075296223163605,-0.8136227130889893,-0.09475323557853699,-0.039838552474975586,0.023598909378051758,0.9108420061662819,-0.2681869322871198,0.14582326400041518,0.2778097032055208
1728329424578386400,3.612386474609375,0.9016326665878296,0.3811333477497101,0.002976872492581606,0.41783851385116577,0.4003860652446747,-0.8155378103256226,-0.09029334783554077,-0.03704380989074707,0.06268447637557983,0.9117155759146944,-0.2647367498970606,0.1488137549854167,0.27666516692791837
1728329424588417300,3.622417236328125,0.8282337188720703,0.43945983052253723,-0.04519438371062279,0.421065092086792,0.3931584060192108,-0.8173925876617432,-0.04913210868835449,0.0856776237487793,0.21908026933670044,0.9126167133041452,-0.26122610873005875,0.15187042854677948,0.2753669924845191
1728329424598448400,3.632448486328125,0.7526580095291138,0.43592900037765503,0.007623556535691023,0.4246254563331604,0.3868635594844818,-0.8185535073280334,-0.06789019703865051,0.08721175789833069,0.25321537256240845,0.9133225876630904,-0.25828858579907776,0.15495244648785184,0.2740777680378786
1728329424608479200,3.642479248046875,0.38583454489707947,0.410410612821579,0.01778458058834076,0.4281977117061615,0.381829172372818,-0.8190562725067139,-0.07285100221633911,0.025061696767807007,0.16395068168640137,0.9137340691268192,-0.25609885630732815,0.15775052603256445,0.273163361797921
1728329424618510300,3.65251025390625,0.20896895229816437,0.2364012598991394,-0.021587857976555824,0.43084266781806946,0.3794774115085602,-0.8187621831893921,-0.04166725277900696,0.01009473204612732,0.1623290777206421,0.9138350688309257,-0.255233154404997,0.15960871165062293,0.27255589323236595
1728329424628541200,3.662541259765625,0.08768260478973389,0.21534445881843567,-0.04118312895298004,0.43256983160972595,0.3785540759563446,-0.8182787895202637,0.043061912059783936,-0.08196896314620972,-0.014439105987548828,0.913886630263402,-0.2549597725001144,0.16079840241788806,0.2719386066291604
1728329424638572300,3.672572265625,0.22824718058109283,0.15678393840789795,-0.007670711260288954,0.4340458810329437,0.3774018883705139,-0.8180293440818787,0.005666643381118774,-0.005880862474441528,-0.04607588052749634,0.9139499075655593,-0.2545438918857661,0.1618417160808174,0.2714962916185641
1728329424648603100,3.68260302734375,0.321726530790329,0.11487158387899399,0.016619713976979256,0.4352172613143921,0.3750659227371216,-0.8184812068939209,-0.01039731502532959,0.07615172863006592,0.0295255184173584,0.9141862288213054,-0.2534393493817371,0.16287383293851368,0.27111662273125764
1728329424658634200,3.69263427734375,0.3028329908847809,0.20074866712093353,-0.10834086686372757,0.43633678555488586,0.37258026003837585,-0.8190202116966248,0.009113073348999023,0.027032166719436646,0.10013294219970703,0.9145207761784094,-0.2521988054216769,0.16396842353156632,0.2704844601897148
1728329424668665000,3.7026650390625,0.3159235715866089,0.19512636959552765,-0.1160736232995987,0.4375494718551636,0.3707503080368042,-0.8192036747932434,-0.054538577795028687,-0.0084761381149292,0.17526757717132568,0.9148928623877647,-0.25124722249974624,0.16514533369635875,0.26939380758445014
1728329424678696200,3.7126962890625,0.11851648986339569,0.10956272482872009,0.10505636781454086,0.4388101100921631,0.36874258518218994,-0.8194355368614197,-0.0723855197429657,0.11105477809906006,0.21219682693481445,0.9150725742597082,-0.25033329986391445,0.16617900488666082,0.2689981666502596
1728329424688727000,3.72272705078125,0.02906210534274578,0.14214341342449188,-0.10647691786289215,0.43990275263786316,0.36829236149787903,-0.8190520405769348,0.012154161930084229,0.03945299983024597,0.03461301326751709,0.9150220272810518,-0.25026630397322946,0.16685545520278547,0.26881346773658193
1728329424698758100,3.732758056640625,-0.04495380073785782,-0.006059632636606693,0.1252194344997406,0.44050002098083496,0.36833763122558594,-0.8187106251716614,-0.03797316551208496,-0.08495140075683594,-0.09892237186431885,0.9149571245213072,-0.2503878061157666,0.16718440144617427,0.26871699381455194
1728329424708789200,3.742789306640625,-0.057916201651096344,0.07978752255439758,0.015999997034668922,0.44106775522232056,0.3684201240539551,-0.8183677792549133,0.06535619497299194,-0.04050874710083008,-0.1115332841873169,0.9147443296365572,-0.2506155907292217,0.16735567875485202,0.2691222182887817
1728329424718820400,3.7528203125,0.2432074099779129,0.057001251727342606,0.064596027135849,0.4418182671070099,0.3676634728908539,-0.8183032274246216,-0.006256133317947388,-0.03126823902130127,-0.14347344636917114,0.9147335048949146,-0.2503470726011966,0.16785330660275619,0.269098767879524
1728329424728851200,3.762851318359375,0.39380189776420593,0.09897730499505997,0.05751947686076164,0.44264838099479675,0.36456820368766785,-0.8192389011383057,0.004495143890380859,0.030008792877197266,-0.15370720624923706,0.9150122427993256,-0.24882156057451407,0.1687257173791657,0.26902049965674124
1728329424738882300,3.77288232421875,0.4557241201400757,0.20865559577941895,-0.04983733966946602,0.4439781606197357,0.36114099621772766,-0.8200369477272034,0.01589125394821167,-0.013972997665405273,-0.10609525442123413,0.9153779456126845,-0.2471358854470364,0.17001583584383856,0.2685176068506499
1728329424748913400,3.782913330078125,0.593308687210083,0.2827613651752472,-0.10753073543310165,0.44565442204475403,0.35712921619415283,-0.8208842277526855,-0.02004098892211914,-0.03463470935821533,-0.025124073028564453,0.9159522199439574,-0.24507713253918065,0.17174134995178122,0.26734580787441
1728329424758944300,3.7929443359375,0.5329939723014832,0.31076130270957947,-0.03154967725276947,0.44786137342453003,0.35277050733566284,-0.8215675354003906,-0.04234379529953003,0.06864672899246216,0.014636993408203125,0.9164909158701972,-0.24292421126678335,0.17379317504980507,0.26613578435102136
1728329424768975400,3.802975341796875,0.3570649325847626,0.2372336983680725,0.06271423399448395,0.4502798020839691,0.34889480471611023,-0.8219006061553955,-0.02759605646133423,0.16369369626045227,0.04856991767883301,0.9167684513798185,-0.24117748391488775,0.17573595869839792,0.2654920895279221
1728329424779006200,3.813006103515625,0.06562111526727676,0.11248885095119476,0.037252556532621384,0.45191967487335205,0.34688788652420044,-0.8218500018119812,-0.02536022663116455,0.05049675703048706,-0.005847752094268799,0.9167877170797539,-0.2403885956955196,0.17688504154760804,0.2653778555654648
1728329424789037300,3.823037353515625,-0.10665052384138107,0.09427420794963837,-0.07614751160144806,0.4526655375957489,0.34724682569503784,-0.8212877511978149,0.005815327167510986,-0.18615978956222534,0.014708161354064941,0.916681670345272,-0.2406913256634546,0.17726762001907123,0.2652143248369062
1728329424799068200,3.833068115234375,-0.0030460981652140617,0.026471465826034546,-0.07637334614992142,0.4528677463531494,0.34825584292411804,-0.8207488656044006,0.0019815266132354736,-0.23848408460617065,-0.040762364864349365,0.9166492473671054,-0.2411952484167073,0.17734268429428565,0.26481795722630624
1728329424809099300,3.843099365234375,0.11065436899662018,-0.00707887951284647,-0.040070727467536926,0.4528038799762726,0.3479457199573517,-0.8209155797958374,0.027664870023727417,-0.08854630589485168,-0.13385730981826782,0.9167876056353935,-0.24095418811202168,0.17743527979049245,0.26449621836943193
1728329424819130000,3.853130126953125,0.10544149577617645,-0.030767962336540222,-0.08524619787931442,0.4524654448032379,0.34732499718666077,-0.8213649988174438,0.043353646993637085,-0.014988541603088379,-0.12686192989349365,0.917017058864149,-0.24048479514553128,0.17743894163227034,0.26412560642234656
1728329424829161200,3.8631611328125,-0.00030783587135374546,-0.08332879841327667,-0.07645297050476074,0.45173442363739014,0.3471396863460541,-0.821845531463623,0.03436481952667236,-0.02188330888748169,-0.06696367263793945,0.9172474199642546,-0.2401804030530663,0.17717391656430945,0.26378047028900214
1728329424839192000,3.873192138671875,-0.22666721045970917,-0.15849493443965912,-0.09018369764089584,0.45026007294654846,0.34895163774490356,-0.8218872547149658,0.037471890449523926,-0.025022804737091064,-0.06441950798034668,0.9173326395151832,-0.2408264844886662,0.17623559502962025,0.2635232280537231
1728329424849223200,3.88322314453125,-0.31975632905960083,-0.1726473867893219,-0.10339085012674332,0.44847649335861206,0.3517214059829712,-0.8216817378997803,0.04957041144371033,-0.01669943332672119,-0.04346108436584473,0.917253854870333,-0.241994699152864,0.1749219407525922,0.2636025463582658
1728329424859254300,3.893254150390625,-0.19903337955474854,-0.20417869091033936,-0.11441580206155777,0.44658687710762024,0.354388028383255,-0.8215651512145996,0.08339667320251465,-0.015810728073120117,-0.06550455093383789,0.9172514457831865,-0.24305397142214408,0.17361506536401355,0.2635001655991397
1728329424869285400,3.903285400390625,-0.19647401571273804,-0.2299146205186844,-0.09758089482784271,0.44438695907592773,0.3564557433128357,-0.8218634724617004,0.053369998931884766,0.010289281606674194,-0.09990471601486206,0.9173468068017849,-0.24374376695741984,0.17221278141690147,0.2634514109272623
1728329424879316200,3.913316162109375,-0.22697333991527557,-0.2363927662372589,-0.08825743198394775,0.44220516085624695,0.35854780673980713,-0.8221301436424255,0.04561835527420044,-0.007824540138244629,-0.03866386413574219,0.9174033817055175,-0.2444705996543119,0.1707894599932879,0.263507170628992
1728329424889347300,3.923347412109375,-0.35560303926467896,-0.21915608644485474,-0.0773046538233757,0.4400041401386261,0.3613084852695465,-0.8221025466918945,-0.004823446273803711,-0.06437242031097412,0.03723621368408203,0.9173682115521588,-0.2455622476937886,0.16925694641697966,0.2636037265940372
1728329424899379200,3.933379150390625,-0.547775149345398,-0.25577160716056824,-0.042581554502248764,0.4378649890422821,0.3652646839618683,-0.8214962482452393,-0.029738128185272217,-0.08993509411811829,0.08225369453430176,0.9170900203093814,-0.24736552186394717,0.16751771536722396,0.26399663203505563
1728329424909409300,3.9434091796875,-0.7422401905059814,-0.2953643798828125,-0.0029635741375386715,0.43557649850845337,0.37072432041168213,-0.8202661871910095,-0.02625948190689087,-0.09713423252105713,0.0828242301940918,0.9165343281511453,-0.25002104527799357,0.16539765227349018,0.26476020791365035
1728329424919441200,3.953441162109375,-0.8223792314529419,-0.30817097425460815,0.00456518167629838,0.43309688568115234,0.3772168457508087,-0.8186174631118774,-0.012747734785079956,-0.10641911625862122,0.02693045139312744,0.9157639045129912,-0.25326255903895445,0.1629396834430153,0.2658670236371377
1728329424929472300,3.96347216796875,-0.7064545750617981,-0.28982511162757874,0.020417913794517517,0.43066656589508057,0.3835815191268921,-0.8169403672218323,0.0027440786361694336,-0.0873168408870697,-0.019668519496917725,0.9150175048843325,-0.2564259280508376,0.16054768493644891,0.26685814227582877
1728329424939503000,3.973503173828125,-0.5665584206581116,-0.3069108724594116,0.08824196457862854,0.42838847637176514,0.3884466886520386,-0.8158385157585144,0.02209678292274475,0.024852901697158813,0.011868178844451904,0.9143601798265377,-0.2588450631429912,0.1583665650815993,0.2680760392879946
1728329424949534200,3.9835341796875,-0.5262519717216492,-0.2656361758708954,0.047968316823244095,0.4263789653778076,0.3925406336784363,-0.8149312138557434,0.05207565426826477,0.04759913682937622,0.009099304676055908,0.9137902032423022,-0.26087418252684774,0.15645783717735115,0.26917127979084554
1728329424959565000,3.99356494140625,-0.617425799369812,-0.25893354415893555,0.08090948313474655,0.4244953989982605,0.39694735407829285,-0.8137791156768799,0.005543053150177002,0.02747589349746704,0.011914491653442383,0.9131630528383425,-0.2630904274416844,0.15457638370669258,0.2702274730034123
1728329424969596200,4.00359619140625,-0.7388908267021179,-0.2809605896472931,0.030109157785773277,0.42244642972946167,0.40217751264572144,-0.8122760057449341,0.0008781850337982178,0.027296364307403564,0.03528320789337158,0.9124104541099026,-0.2657393350956835,0.15246179058074472,0.27137676579402015
1728329424979627000,4.013626953125,-0.9210622310638428,-0.336670458316803,0.055016908794641495,0.42024609446525574,0.40876343846321106,-0.8101269602775574,0.0012321770191192627,0.008778095245361328,0.04235047101974487,0.9114582257691527,-0.26911220908503247,0.1500504874400472,0.2725937378676266
1728329424989658400,4.023658447265625,-1.0858234167099,-0.3762109875679016,0.032710000872612,0.41753873229026794,0.41660505533218384,-0.8075280785560608,0.019991755485534668,-0.040552228689193726,0.08537542819976807,0.9103017813972246,-0.27311963519238036,0.14711091235781182,0.27407053205580983
1728329424999689200,4.033689208984375,-1.1943472623825073,-0.2834523022174835,-0.054751135408878326,0.4148505628108978,0.42606446146965027,-0.803970217704773,0.04971855878829956,-0.14986512064933777,0.12329089641571045,0.9089427938501108,-0.27799248910435376,0.14399677249398216,0.2753327929815376
1728329425009720300,4.04372021484375,-0.8192960023880005,-0.2635417878627777,-0.09038982540369034,0.41231590509414673,0.4346635043621063,-0.8006643056869507,0.02246806025505066,-0.09761211276054382,0.15884912014007568,0.9078130609136328,-0.28234914889404467,0.14123320028108,0.2760575207298097
1728329425019751400,4.05375146484375,-0.5467433333396912,-0.21327807009220123,0.1052774116396904,0.41035476326942444,0.44006383419036865,-0.7987194657325745,0.04911792278289795,0.05563318729400635,0.07174503803253174,0.9070303555760781,-0.28507236342917985,0.1391905261958369,0.27686775331803415
1728329425029782300,4.0637822265625,-0.4832741618156433,-0.2843224108219147,0.17959265410900116,0.40902554988861084,0.4434339702129364,-0.7975364327430725,0.05450591444969177,0.11921858787536621,-0.06862866878509521,0.9062799582843183,-0.2868859790195956,0.13757984437887988,0.27825314409349045
1728329425039813400,4.0738134765625,-0.5890821218490601,-0.3522346019744873,0.016386954113841057,0.4071060121059418,0.4472368359565735,-0.7963943481445312,-0.009950220584869385,0.0829450786113739,-0.08573150634765625,0.9055530689490395,-0.28881165195253083,0.1356121928956542,0.2795903929280424
1728329425049844200,4.08384423828125,-0.9639062285423279,-0.4854383170604706,-0.010102709755301476,0.4036646783351898,0.45314979553222656,-0.7948018908500671,-0.09995374083518982,0.06662562489509583,-0.053510427474975586,0.9048066232915892,-0.2915495759483376,0.13265702072777857,0.2805814212816365
1728329425059875300,4.093875244140625,-1.4030710458755493,-0.4030768573284149,-0.003953204955905676,0.4003341794013977,0.4626750946044922,-0.7909894585609436,-0.10103300213813782,-0.0084056556224823,-0.02396714687347412,0.9032982314863144,-0.29639715617419293,0.12905033175747205,0.2820410156666072
1728329425069906200,4.10390625,-1.8817720413208008,-0.42560306191444397,0.040758341550827026,0.39700236916542053,0.47562599182128906,-0.784964382648468,-0.10687175393104553,-0.08886143565177917,-0.03200644254684448,0.9010893146444877,-0.30321907369066775,0.12480382783675063,0.2837611461842919
1728329425079937300,4.113937255859375,-1.874786376953125,-0.2727844715118408,-0.05605369061231613,0.3943626582622528,0.4906008541584015,-0.7770385146141052,-0.08720323443412781,-0.05619841814041138,0.0892791748046875,0.8983274718816004,-0.31137329765287075,0.12052970666071731,0.2855292263119316
1728329425089968000,4.123968017578125,-1.3227791786193848,-0.19664640724658966,-0.06443838775157928,0.39221927523612976,0.5035693049430847,-0.7697935104370117,-0.07186096906661987,-0.004713714122772217,0.06393718719482422,0.8959909327255511,-0.31844080056022767,0.11704145484802762,0.2865259489251953
1728329425099999200,4.133999267578125,-0.5759832262992859,-0.2472563236951828,0.034189920872449875,0.39035388827323914,0.5108230113983154,-0.7659528255462646,-0.07950183749198914,0.11905980110168457,-0.03562188148498535,0.8946478013031606,-0.32230918761257205,0.11463145967903472,0.28737053961708825
