time,seconds_elapsed,rotationRateX,rotationRateY,rotationRateZ,gravityX,gravityY,gravityZ,accelerationX,accelerationY,accelerationZ,quaternionW,quaternionX,quaternionY,quaternionZ
1728064357358260500,0.107260498046875,-0.06350595504045486,-0.0006583575159311295,0.017722807824611664,0.15334272384643555,-0.04968348890542984,-0.9869232773780823,0.00440254807472229,0.02072233334183693,-0.034866273403167725,0.9967254165963833,0.02492335813860035,0.07692325075343757,7.156382848004571e-18
1728064357368291300,0.117291259765625,-0.06307699531316757,0.016353115439414978,0.012422852218151093,0.15437965095043182,-0.05006369203329086,-0.986742377281189,-0.004431620240211487,0.009353265166282654,-0.021772027015686035,0.9966800478959407,0.025105591003701303,0.07745006725691608,0.0001240061131847019
1728064357378321000,0.12732080078125,-0.06084539368748665,0.035863060504198074,0.018405642360448837,0.1548299938440323,-0.05054448917508125,-0.9866473078727722,-0.015227407217025757,0.0031202025711536407,-0.018204987049102783,0.9966561684147559,0.025336045212474213,0.07768157642093097,0.0002692975640911628
1728064357388352000,0.13735205078125,-0.035255078226327896,0.03992677852511406,0.019958265125751495,0.15496006608009338,-0.050332147628068924,-0.9866377711296082,-0.020759105682373047,-0.0015629641711711884,-0.01812303066253662,0.9966537389374857,0.025218328422091853,0.07775063091117511,0.0004132824754013013
1728064357398381800,0.1473818359375,-0.028103960677981377,0.049881353974342346,0.01999075710773468,0.1551976352930069,-0.04958884045481682,-0.986638069152832,-0.02117978036403656,-0.0007651373744010925,-0.01710033416748047,0.9966537401325146,0.024837167237378957,0.07787227453251179,0.0005183353107586189
1728064357408412000,0.157411865234375,-0.03538557514548302,0.05320364609360695,0.02444596029818058,0.1556469202041626,-0.04876559600234032,-0.9866083264350891,-0.017753347754478455,-0.0023360587656497955,-0.02549189329147339,0.9966461887684837,0.024415098372218256,0.07810089643748895,0.0006348640617176997
1728064357418443000,0.167443115234375,-0.03039328008890152,0.031254567205905914,0.01733878068625927,0.15612685680389404,-0.04791528359055519,-0.986574113368988,-0.011626213788986206,-0.0002872049808502197,-0.025953292846679688,0.9966375453346749,0.023980688226271408,0.07834448212051194,0.0007350612081679077
1728064357428473000,0.17747314453125,-0.03974071145057678,0.013864126056432724,0.005539911333471537,0.1562218964099884,-0.04698216915130615,-0.9866039752960205,-0.0028406232595443726,0.0010532401502132416,-0.020201444625854492,0.9966450398603776,0.023508516909798778,0.07839237378556342,0.0007837139292928576
1728064357438504000,0.18750390625,-0.054849687963724136,-0.004259058274328709,0.007659255061298609,0.1561574935913086,-0.04600797966122627,-0.9866600632667542,0.006867334246635437,-0.0021945051848888397,-0.02043527364730835,0.9966591393343334,0.02301740844955621,0.07835917897566162,0.0008101190591525804
1728064357448534000,0.197533935546875,-0.062307339161634445,-0.010989665053784847,0.01066409982740879,0.15584799647331238,-0.04529813304543495,-0.986741840839386,0.010152280330657959,-0.0027517639100551605,-0.009321391582489014,0.9966795091349079,0.022655717015660146,0.0782035426025776,0.0008769111600686371
1728064357458564000,0.207564208984375,-0.06976418942213058,-0.012059297412633896,-0.00570528581738472,0.15531441569328308,-0.04465937241911888,-0.9868550896644592,0.00827498733997345,-0.008593779057264328,-0.0017160773277282715,0.9967078721560949,0.022331302229712812,0.0779343777203067,0.000922596093465549
1728064357468595000,0.217594970703125,-0.05696024000644684,-0.00686480151489377,-0.02272608131170273,0.1547267585992813,-0.044127456843853,-0.9869713187217712,0.004758015275001526,-0.009797073900699615,0.0008720755577087402,0.9967370580742154,0.022067168061501063,0.07763619161737621,0.0008831533287464597
1728064357478625000,0.227625,-0.03766157850623131,-0.00923304446041584,-0.02188345603644848,0.15415214002132416,-0.04375799000263214,-0.9870777130126953,-0.004844978451728821,-0.00529899075627327,0.004289567470550537,0.9967639140084407,0.02188849917824358,0.07734371740185134,0.0007929346002890512
1728064357488656100,0.23765625,-0.04231678694486618,-0.0009860335849225521,-0.01756727136671543,0.1536407470703125,-0.043493133038282394,-0.9871691465377808,-0.008560284972190857,0.002218138426542282,-0.004057049751281738,0.9967868004670366,0.02176041766710565,0.07708388576851961,0.0007273728144069192
1728064357498686000,0.24768603515625,-0.06045624241232872,0.0023597492836415768,-0.03134327009320259,0.15334144234657288,-0.04305221512913704,-0.9872350096702576,0.001123189926147461,0.011664912104606628,-0.010445713996887207,0.9968033982442686,0.02154625902767834,0.07693028331254284,0.0006333400927491787
1728064357508716000,0.257716064453125,-0.07625091820955276,0.008333751931786537,-0.03845737501978874,0.153305321931839,-0.042366690933704376,-0.9872702360153198,0.0016933679580688477,0.010399553924798965,-0.004215359687805176,0.9968123220172264,0.021213261425983867,0.07690822241009902,0.0004902640762357437
1728064357518747100,0.2677470703125,-0.06294269859790802,-0.14242146909236908,-0.2005157768726349,0.15328602492809296,-0.04166829586029053,-0.9873029589653015,-0.0018273591995239258,0.004787825047969818,0.0013715624809265137,0.9968207055617776,0.02089123022255078,0.07689000479814256,0.00012144211264616504
1728064357528777000,0.27777685546875,-0.053481556475162506,-0.004136819392442703,-0.11477318406105042,0.15311358869075775,-0.04106306657195091,-0.9873550534248352,-0.0005562901496887207,0.006685037165880203,0.004261791706085205,0.9968335103192325,0.020651997617420807,0.07678511937612152,-0.0007172055975712549
1728064357538808000,0.28780810546875,-0.056097112596035004,0.06355386972427368,-0.0372280590236187,0.1537361890077591,-0.0408666618168354,-0.987266480922699,-0.022037655115127563,0.0019567757844924927,0.0025863051414489746,0.9968109312054598,0.020581780343578823,0.07709183813896926,-0.0010742046164415272
1728064357548838000,0.297837890625,-0.045512113720178604,0.05650820583105087,-0.009362339042127132,0.15460889041423798,-0.040842387825250626,-0.9871311783790588,-0.033591508865356445,-0.004537228494882584,-0.010808885097503662,0.9967769113957304,0.02057546636839379,0.07753099313570566,-0.0011344554627212653
1728064357558868000,0.307867919921875,-0.031068656593561172,0.011393457651138306,-0.023597201332449913,0.1547633707523346,-0.04073019698262215,-0.9871116280555725,0.028921842575073242,0.036167845129966736,-0.02057880163192749,0.9967719853525627,0.020525612725363653,0.07760727627088057,-0.001214535135924478
1728064357568898800,0.31789892578125,-0.03075893223285675,0.011623822152614594,-0.022825948894023895,0.15449075400829315,-0.040423400700092316,-0.9871669411659241,0.02736341953277588,0.032321006059646606,-0.014358937740325928,0.9967856671639047,0.020379423271476557,0.0774674897811671,-0.0013194856328027017
1728064357578929000,0.327928955078125,-0.04168102145195007,0.03643367066979408,-0.020552143454551697,0.15469279885292053,-0.03968792036175728,-0.9871651530265808,0.0169074684381485,0.016479332000017166,-0.0065024495124816895,0.9967851072363395,0.020018601569013764,0.07756730562228285,-0.0014217755867528923
1728064357588960000,0.3379599609375,-0.06802527606487274,0.0519401878118515,-0.028891831636428833,0.15515504777431488,-0.0388479121029377,-0.9871259927749634,0.0050774067640304565,0.013274207711219788,0.003422379493713379,0.9967751664516884,0.01960609467665071,0.07779844678856158,-0.0015284646355895402
1728064357598990000,0.347989990234375,-0.09342963248491287,0.02871449664235115,-0.04266463592648506,0.15546154975891113,-0.03793525695800781,-0.9871132969856262,0.002176910638809204,0.0079059898853302,0.01268702745437622,0.9967716325496176,0.019160244540542867,0.0779502835458351,-0.0016774685724351226
1728064357609021000,0.35802099609375,-0.12518730759620667,0.009239333681762218,-0.06081141531467438,0.15557369589805603,-0.03666278347373009,-0.9871436953544617,0.006978094577789307,0.003139246255159378,0.02567213773727417,0.9967789298325691,0.018539292360326136,0.07800288356069685,-0.0018997390628267374
1728064357619051000,0.368051025390625,-0.17048253118991852,0.010478129610419273,-0.06333182752132416,0.15490587055683136,-0.035195235162973404,-0.9873021245002747,0.011369079351425171,-0.002951711416244507,0.03829699754714966,0.9968181532793181,0.017821161344812677,0.07766175593259331,-0.0021482842137707813
1728064357629081000,0.3780810546875,-0.20007558166980743,0.0015219193883240223,-0.07035379111766815,0.1538359373807907,-0.0335695818066597,-0.987525999546051,0.012027010321617126,-0.006774634122848511,0.044380247592926025,0.9968737529211276,0.017021180198228788,0.07711863086447933,-0.0023752683722918053
1728064357639112000,0.38811181640625,-0.1992480754852295,-0.020675262436270714,-0.07680556178092957,0.15454867482185364,-0.03058784268796444,-0.9875115752220154,0.013114824891090393,-0.00714712031185627,0.05265134572982788,0.996869413851413,0.015551760108441498,0.07747489377815955,-0.0026996235568598386
1728064357649142000,0.39814208984375,-0.22942622005939484,-0.016362538561224937,-0.0949089303612709,0.15494181215763092,-0.02780563198029995,-0.9875321984291077,0.011928215622901917,-0.01047864556312561,0.055128633975982666,0.9968734238751304,0.014186488489102533,0.07767003848586401,-0.003081208759108503
1728064357659173000,0.408173095703125,-0.2525789439678192,0.007762397639453411,-0.09448655694723129,0.1552727371454239,-0.025136277079582214,-0.9875518083572388,0.0006872713565826416,-0.012858083471655846,0.04700005054473877,0.9968769868725794,0.012879029058075645,0.07783466171336195,-0.0034774843953204113
1728064357669203000,0.418202880859375,-0.28483355045318604,0.032911159098148346,-0.08669867366552353,0.15560434758663177,-0.022343525663018227,-0.9875667095184326,-0.009013235569000244,-0.011683549731969833,0.05105853080749512,0.9968795510393996,0.01150585998336663,0.07800158585841523,-0.0038229234162319215
1728064357679233000,0.42823291015625,-0.3385990560054779,0.06215288117527962,-0.07221933454275131,0.15614382922649384,-0.01924501359462738,-0.9875468015670776,-0.010880246758460999,-0.01984798163175583,0.05676066875457764,0.9968733812618371,0.009974650609599515,0.07827575445899505,-0.004100330600495402
1728064357689264000,0.43826416015625,-0.385184645652771,0.09966004639863968,-0.042565565556287766,0.15707479417324066,-0.01574471779167652,-0.9874612092971802,-0.009491875767707825,-0.02968067117035389,0.061237454414367676,0.9968513041818781,0.00823246016496273,0.07875042473261973,-0.004243523821521033
1728064357699294200,0.448294189453125,-0.437519907951355,0.1502179652452469,-0.035994481295347214,0.15844516456127167,-0.011836707592010498,-0.9872968196868896,-0.017179369926452637,-0.03169659152626991,0.07453131675720215,0.9968100500601016,0.006276743439357377,0.07944928753031892,-0.004258905501908903
1728064357709325000,0.458324951171875,-0.5155534744262695,0.18326327204704285,-0.038413964211940765,0.1602046638727188,-0.00729436194524169,-0.9870568513870239,-0.01765713095664978,-0.04205253720283508,0.08460628986358643,0.9967499109328268,0.004001041866937408,0.08034648791039559,-0.004242339121577696
1728064357719355100,0.468355224609375,-0.5818929076194763,0.20345109701156616,-0.05593596771359444,0.16196918487548828,-0.0018816218944266438,-0.9867939949035645,-0.02528102695941925,-0.05900092422962189,0.09647417068481445,0.9966835886369436,0.0012977782282181803,0.081248411724792,-0.0043405563191374645
1728064357729385000,0.478385009765625,-0.6055856943130493,0.2597593665122986,0.013231121003627777,0.16430993378162384,0.0038614855147898197,-0.9864012002944946,-0.03532746434211731,-0.06776527315378189,0.12057173252105713,0.9965857579537606,-0.0015918256252553968,0.08244309484719455,-0.004176844907062013
1728064357739415800,0.488415771484375,-0.6759233474731445,0.31224948167800903,0.06958919763565063,0.1671682894229889,0.0100925387814641,-0.985876739025116,-0.04390786588191986,-0.07869603484869003,0.1375948190689087,0.9964560514669123,-0.004752544101783735,0.08389906779770774,-0.003701686368676692
1728064357749446000,0.49844580078125,-0.7789048552513123,0.3316703140735626,0.12473208457231522,0.17039021849632263,0.017109090462327003,-0.9852281212806702,-0.016078174114227295,-0.09166350960731506,0.14086776971817017,0.9962959758859582,-0.008336503691279985,0.08553620084769595,-0.0029101195177343737
1728064357759477000,0.50847705078125,-0.8624351620674133,0.3539780378341675,0.23134508728981018,0.17379696667194366,0.02493465691804886,-0.9844657778739929,-0.009627729654312134,-0.11033807694911957,0.16374129056930542,0.9961073493980923,-0.012364744903740132,0.08725951059914891,-0.0017272042840836537
1728064357769506800,0.5185068359375,-0.9739625453948975,0.3345036506652832,0.3070549964904785,0.17728258669376373,0.033510565757751465,-0.9835892915725708,-0.006384238600730896,-0.13409647345542908,0.1789017915725708,0.9958888536230758,-0.016820981725674696,0.08900787305184339,-0.00003880326269421068
1728064357779538000,0.528537841796875,-1.0933338403701782,0.12211976200342178,0.5501323938369751,0.17987394332885742,0.04296127334237099,-0.9827510714530945,0.03210107982158661,-0.1175156980752945,0.16368979215621948,0.9956752156400752,-0.021804548197876642,0.09027191442045766,0.002543564471752498
1728064357789568000,0.538568115234375,-1.2014023065567017,0.16041627526283264,0.720416247844696,0.18147313594818115,0.05327020585536957,-0.9819520115852356,0.12199357151985168,-0.10914786905050278,0.1638520359992981,0.9954583093396511,-0.027326661982572237,0.0909793308090985,0.006237119534347182
1728064357799598000,0.54859814453125,-1.3048686981201172,0.2866502106189728,0.9136216640472412,0.1840885728597641,0.06404263526201248,-0.9808210730552673,0.12683966755867004,-0.12626796960830688,0.16484206914901733,0.9951349388137285,-0.03317933790064367,0.09213362269962158,0.01081688948044388
1728064357809629000,0.55862890625,-1.368017554283142,0.5472222566604614,1.328978419303894,0.18879666924476624,0.07527945935726166,-0.9791265726089478,-0.00004553794860839844,-0.16646595299243927,0.12687742710113525,0.9946243725948023,-0.0394445553714762,0.09423824537604224,0.016901718726634592
1728064357819659000,0.568658935546875,-1.3594166040420532,0.9122975468635559,1.3811981678009033,0.1971619874238968,0.08606691658496857,-0.9765856862068176,-0.05804768204689026,-0.16040772199630737,0.11910277605056763,0.9938322818543996,-0.04569826712560396,0.09807555664421502,0.024297113802469905
1728064357829689900,0.57868994140625,-0.6565130949020386,0.8811303377151489,1.1685245037078857,0.20740486681461334,0.0941966325044632,-0.9737095236778259,-0.118278369307518,-0.185322105884552,0.06929057836532593,0.9929142268379306,-0.050670646720800336,0.10284808325517397,0.031243056670036014
1728064357839720000,0.588719970703125,-0.7144965529441833,0.8200443387031555,0.913351833820343,0.21637091040611267,0.09764669835567474,-0.9714158177375793,-0.17717117071151733,-0.24938008189201355,0.047404587268829346,0.9921561900852535,-0.05315134012102042,0.10708413278537704,0.03652343306943385
1728064357849750000,0.59875,-1.012584924697876,0.9483975172042847,0.9289204478263855,0.2261582314968109,0.1044132336974144,-0.9684783816337585,-0.13365955650806427,-0.2178317904472351,0.029360949993133545,0.991231566765981,-0.0573131526241819,0.11169613284322005,0.04121889054341574
1728064357859781000,0.608781005859375,-1.1203194856643677,0.7704859375953674,1.138669490814209,0.23544104397296906,0.11225365847349167,-0.9653841853141785,-0.030439287424087524,-0.18671652674674988,0.14099758863449097,0.9902100076599857,-0.062144673745253974,0.11595664538428625,0.04665062753065476
1728064357869811000,0.61881103515625,-1.5604678392410278,0.8318901658058167,1.7162216901779175,0.24542450904846191,0.12164684385061264,-0.9617530107498169,0.05575340986251831,-0.32539743185043335,0.0880042314529419,0.9889002711558975,-0.06811907279052717,0.12034652169218946,0.054339325971958743
1728064357879842000,0.628842041015625,-1.8638334274291992,0.42592838406562805,1.6569254398345947,0.25351157784461975,0.13404852151870728,-0.9579994082450867,0.14385771751403809,-0.3145447075366974,0.08492201566696167,0.9873930295858613,-0.07584334740425704,0.12348312692904197,0.06367614371341154
1728064357889872100,0.6388720703125,-1.8963098526000977,0.23279140889644623,1.50387704372406,0.2588335871696472,0.1481175273656845,-0.9544979929924011,0.21778985857963562,-0.2875828444957733,0.14689606428146362,0.9858973256502166,-0.08431453223311432,0.1250682823189435,0.07249406105543768
1728064357899902200,0.648902099609375,-1.9057817459106445,0.16487446427345276,1.437473177909851,0.2629307806491852,0.16248297691345215,-0.9510345458984375,0.061486244201660156,-0.29183173179626465,0.019012451171875,0.9843701363914322,-0.09287103864131743,0.12592738425331856,0.08082425440773862
1728064357909933000,0.65893310546875,-1.8275455236434937,0.22408053278923035,1.538132667541504,0.26723355054855347,0.17636993527412415,-0.9473541378974915,0.04392358660697937,-0.20580410957336426,-0.06505125761032104,0.9827098603689336,-0.10124522657522056,0.12677670732921428,0.08920975003565705
1728064357919963000,0.668962890625,-1.780568242073059,0.35912618041038513,1.6949832439422607,0.27279147505760193,0.18908829987049103,-0.9433082342147827,0.052159637212753296,-0.13131847977638245,-0.07625353336334229,0.9808278942570232,-0.10921264389864696,0.12813461391121417,0.09813633064955113
1728064357929994000,0.678993896484375,-1.8143384456634521,0.46301689743995667,1.8345720767974854,0.2802346646785736,0.2011210322380066,-0.9386260509490967,0.048668473958969116,-0.08089698851108551,-0.10451054573059082,0.9786219213428747,-0.11710328862658924,0.13028351206848024,0.10775984141433693
1728064357940023800,0.68902392578125,-1.8684505224227905,0.4880073070526123,1.8925584554672241,0.28867191076278687,0.21307909488677979,-0.9334161877632141,0.03112170100212097,-0.07312546670436859,-0.08150684833526611,0.9761253084547624,-0.12517246409171454,0.1327544624454389,0.11784507747149849
1728064357950054000,0.699053955078125,-1.92600679397583,0.4051606357097626,1.874563455581665,0.2970084846019745,0.22522950172424316,-0.9279319047927856,0.01814645528793335,-0.09556028246879578,-0.046036601066589355,0.9734278576280608,-0.13345131881058134,0.13499923412888468,0.12807836371959838
1728064357960085000,0.7090849609375,-2.014188528060913,0.2980121672153473,1.7804763317108154,0.30454540252685547,0.23801088333129883,-0.9222813844680786,0.014058023691177368,-0.12463805079460144,-0.022741258144378662,0.9706023119987772,-0.1420561229937238,0.13667252784341524,0.1381006018584546
1728064357970115000,0.719114990234375,-2.0202724933624268,0.17404015362262726,1.6579093933105469,0.3109041750431061,0.25136563181877136,-0.9165990948677063,0.010003358125686646,-0.1317977011203766,0.005939304828643799,0.9677238196562441,-0.15087538464778,0.1376120133796911,0.14768255335652136
1728064357980146000,0.72914599609375,-2.0284690856933594,0.1299513727426529,1.5613770484924316,0.31644773483276367,0.26485928893089294,-0.9108843803405762,0.003162771463394165,-0.11477380990982056,-0.009052753448486328,0.96481949558882,-0.15968495793081958,0.1380525901584561,0.15673388827397144
1728064357990176000,0.739176025390625,-1.9875009059906006,0.0652775689959526,1.5242663621902466,0.3215259611606598,0.27827775478363037,-0.9050870537757874,-0.005165547132492065,-0.0639374852180481,-0.043673932552337646,0.9618501618012422,-0.1684289100208192,0.13815995798638606,0.16549296796734725
1728064358000206800,0.749206787109375,-2.0395119190216064,0.06967221200466156,1.4220294952392578,0.3260962963104248,0.2923835813999176,-0.898984432220459,-0.01380997896194458,0.003118157386779785,-0.024553775787353516,0.9587955647686973,-0.17746781093893124,0.13788748275658771,0.17379063228931219
1728064358010237000,0.75923681640625,-1.8222671747207642,0.19977135956287384,1.4611494541168213,0.33175650238990784,0.30467382073402405,-0.8928110003471375,-0.0511016845703125,0.07208094000816345,-0.003291904926300049,0.9556603925018237,-0.1857235605956127,0.1382072966848489,0.18198557847216174
1728064358020267000,0.76926708984375,-1.9651144742965698,0.3176881968975067,1.45317542552948,0.33854439854621887,0.31677547097206116,-0.8860253691673279,-0.041989922523498535,0.11092841625213623,-0.06665712594985962,0.9523114789338696,-0.19406220253245696,0.13902216842604506,0.19004111003940752
1728064358030298000,0.779298095703125,-2.0925183296203613,0.47363224625587463,1.5242128372192383,0.3468930721282959,0.3296701908111572,-0.8780562281608582,-0.08283978700637817,0.11725977063179016,0.022251784801483154,0.9485604557725191,-0.20310736286334796,0.14042531900052874,0.19814462716159775
1728064358040328000,0.789327880859375,-2.356046676635742,0.46225351095199585,1.5683544874191284,0.35640421509742737,0.34348049759864807,-0.8689057230949402,-0.08826157450675964,0.13015234470367432,0.049722373485565186,0.9443293573350182,-0.21295969865766365,0.14211019426620553,0.2066272647583005
1728064358050359000,0.799359130859375,-2.5519473552703857,0.33214372396469116,1.5699859857559204,0.3653883635997772,0.35943832993507385,-0.8586590886116028,-0.0595870316028595,0.09138262271881104,0.05558902025222778,0.9396528728857478,-0.22405347561422861,0.1430751598744361,0.21536462109579607
1728064358060389000,0.80938916015625,-2.4344868659973145,0.12421609461307526,1.5626665353775024,0.3732072710990906,0.37493693828582764,-0.8486098051071167,-0.07424187660217285,0.06703391671180725,0.1161268949508667,0.934877591676686,-0.2348949558554724,0.1432461306666579,0.22429614413141638
1728064358070419200,0.819419189453125,-2.314093828201294,-0.029538583010435104,1.4550559520721436,0.37935030460357666,0.38931748270988464,-0.8393599987030029,-0.026872366666793823,0.045390188694000244,-0.02880406379699707,0.9302511613299032,-0.24496074258109785,0.14252801126672263,0.2330508543764124
1728064358080450000,0.829449951171875,-2.1090188026428223,-0.025394119322299957,1.3131115436553955,0.3845905065536499,0.40269193053245544,-0.8306198120117188,-0.026222705841064453,0.06418126821517944,-0.047569215297698975,0.9258438115799879,-0.2543126252216971,0.14147498276802697,0.24108718657903247
1728064358090480000,0.839480224609375,-2.0084664821624756,0.023598192259669304,1.262256383895874,0.38982465863227844,0.4146856367588043,-0.8222363591194153,-0.05248337984085083,0.11824285984039307,-0.05793642997741699,0.9216182349394452,-0.2628869260393247,0.14061400038533053,0.24847144873950608
1728064358100511000,0.849510986328125,-1.984290361404419,0.0758155882358551,1.3622663021087646,0.3957507908344269,0.42587020993232727,-0.8136436343193054,-0.04780471324920654,0.15205645561218262,-0.09858787059783936,0.9172645647468924,-0.2712106495579692,0.14008204310868186,0.2558273688919855
1728064358110541000,0.859541015625,-2.089735269546509,0.06533604860305786,1.4454312324523926,0.40249255299568176,0.43671470880508423,-0.8045371770858765,-0.026256650686264038,0.15964460372924805,-0.08003008365631104,0.912567929187535,-0.2796459341379037,0.13974825245826678,0.2636065855874578
1728064358120571000,0.86957080078125,-2.369828462600708,0.01042566541582346,1.3987449407577515,0.4092392325401306,0.44858288764953613,-0.7945417761802673,-0.005461215972900391,0.12427785992622375,-0.06866317987442017,0.9074548917521824,-0.28878716914706387,0.13903629490529096,0.2716548814373926
1728064358130602000,0.87960205078125,-2.6383614540100098,-0.04605332016944885,1.2919071912765503,0.4152899384498596,0.4628393054008484,-0.7831436991691589,-0.019446521997451782,0.06549626588821411,-0.024931252002716064,0.9019074545172643,-0.29920333906492796,0.1374973690154399,0.27952583728444946
1728064358140631800,0.8896318359375,-3.072502851486206,-0.08226277679204941,1.1055279970169067,0.4204769730567932,0.47982823848724365,-0.7700415253639221,-0.053030163049697876,0.019881904125213623,0.0067206621170043945,0.8959068417705776,-0.3110437075963081,0.13502235611715957,0.2870048095546707
1728064358150663000,0.899662841796875,-3.4225175380706787,-0.14768946170806885,0.965574324131012,0.4247463047504425,0.5003126263618469,-0.7545050382614136,-0.05739104747772217,-0.0073926448822021484,0.028461337089538574,0.8892873724333487,-0.32475591885707183,0.13145750255715782,0.29397355904376304
1728064358160693000,0.90969287109375,-3.637415647506714,-0.2715435326099396,0.8907389640808105,0.4279371500015259,0.5228338837623596,-0.7372344136238098,-0.07724449038505554,-0.006049215793609619,0.13617545366287231,0.8821574590903181,-0.33956205289030666,0.12680858029236466,0.3006915298818728
1728064358170723800,0.919723876953125,-3.6948819160461426,-0.42272213101387024,0.9095640182495117,0.4301968514919281,0.5458733439445496,-0.7189944386482239,-0.044317424297332764,0.018656134605407715,0.11404448747634888,0.8745983811791197,-0.35469485930549594,0.12122022273076294,0.3075303080392781
1728064358180754000,0.92975390625,-3.532101631164551,-0.5135436058044434,0.942483127117157,0.43200695514678955,0.5676848292350769,-0.7007880806922913,-0.002487361431121826,0.06503617763519287,0.07714617252349854,0.8668513630107405,-0.36924094088878495,0.11518281440995344,0.31458347751523813
1728064358190784000,0.939783935546875,-3.277391195297241,-0.5160611271858215,0.9282211065292358,0.4338706135749817,0.5872613191604614,-0.6832864880561829,0.034330010414123535,0.09917062520980835,-0.0007954835891723633,0.8592160007887044,-0.3826402611294477,0.10928486444820809,0.3215448456341734
1728064358200814800,0.94981494140625,-3.0803146362304688,-0.48636743426322937,0.8285024762153625,0.4357953369617462,0.6048918962478638,-0.666474461555481,0.04682484269142151,0.113888680934906,-0.08196914196014404,0.851845428761465,-0.39497974285560467,0.1037004587155276,0.3280191134167939
1728064358210845000,0.959844970703125,-2.9605777263641357,-0.49237099289894104,0.6883336305618286,0.4372583329677582,0.6214670538902283,-0.6500644683837891,0.04244738817214966,0.10433250665664673,-0.09499162435531616,0.8447711828994963,-0.4066117333813488,0.09815628299652712,0.3337571204372059
1728064358220876000,0.9698759765625,-2.9795784950256348,-0.5311012268066406,0.5603631734848022,0.43787631392478943,0.6378117203712463,-0.6336091160774231,0.030949920415878296,0.08212852478027344,-0.06693708896636963,0.8378440661386288,-0.4179474648510888,0.09227862068455613,0.33885373847612776
1728064358230906000,0.979906005859375,-2.9860196113586426,-0.5902702808380127,0.5990272164344788,0.438073068857193,0.6540467143058777,-0.6166967749595642,0.02759459614753723,0.06389462947845459,-0.011187076568603516,0.8307781240790909,-0.429239569260434,0.08605231334300438,0.3437384737700399
1728064358240936000,0.98993603515625,-2.9658851623535156,-0.6611976027488708,0.7109609246253967,0.43858999013900757,0.6693097949028015,-0.5997193455696106,0.047616004943847656,0.04565608501434326,0.05786454677581787,0.8234183166600397,-0.44021192680023075,0.07971055788990078,0.34905883878902605
1728064358250967000,0.999967041015625,-3.0168371200561523,-0.7450138926506042,0.699213981628418,0.4393915832042694,0.6838212013244629,-0.5825148820877075,0.12289470434188843,0.00993490219116211,0.0957900881767273,0.8157361914480236,-0.4509797605593626,0.07321082644660241,0.35472784055555023
1728064358260997000,1.0099970703125,-3.1596598625183105,-0.8208434581756592,0.6508004069328308,0.4395802617073059,0.6986059546470642,-0.5645518898963928,0.15053808689117432,-0.02386230230331421,0.0856548547744751,0.8077392022941291,-0.46191035720428897,0.06605200231014394,0.3603239004078631
1728064358271028000,1.020028076171875,-3.3149139881134033,-0.9077743291854858,0.6516821384429932,0.4393574893474579,0.7137683033943176,-0.54543536901474,0.12102147936820984,-0.04497557878494263,0.10056537389755249,0.799238896535247,-0.4731764276249184,0.058192732974154254,0.36597100090634077
1728064358281058000,1.03005810546875,-3.419370651245117,-0.9437010288238525,0.6509585976600647,0.4391566514968872,0.728966236114502,-0.5251185894012451,0.13004189729690552,-0.05391740798950195,0.08320879936218262,0.7901746097098165,-0.48472195969976506,0.049852984638466095,0.3717301326877892
1728064358291088100,1.040088134765625,-3.508437395095825,-0.8788802027702332,0.6214110851287842,0.43915700912475586,0.7440434694290161,-0.5035279393196106,0.11852112412452698,-0.06504255533218384,0.06741654872894287,0.7806564643047191,-0.4965169265643759,0.041315372483282854,0.37727897423262396
1728064358301119000,1.050118896484375,-3.5677125453948975,-0.8610937595367432,0.5847148299217224,0.4394557476043701,0.7588750123977661,-0.4806114435195923,0.07763403654098511,-0.04799854755401611,0.05156487226486206,0.7707407008807078,-0.5085491497999504,0.03274194093256025,0.38244550032499247
1728064358311148800,1.060148681640625,-3.522521495819092,-0.8520739078521729,0.5593863129615784,0.4398227632045746,0.7730653285980225,-0.45708397030830383,0.05016738176345825,-0.0007417798042297363,0.06352934241294861,0.7605886369473168,-0.5204600803371324,0.024069025028724655,0.3873587246918773
1728064358321180200,1.07018017578125,-3.317728042602539,-0.8502419590950012,0.5154907703399658,0.44025424122810364,0.7860299348831177,-0.43397361040115356,0.04482260346412659,0.0367087721824646,0.05111539363861084,0.7505546296208218,-0.5317620739087333,0.015565597351917598,0.39198789451660004
1728064358331210000,1.0802099609375,-3.012774705886841,-0.8207623362541199,0.4542279541492462,0.4405589699745178,0.7973312735557556,-0.412517249584198,0.0444873571395874,0.06379848718643188,0.021190404891967773,0.7411182192507128,-0.5419274057146395,0.00748706213161099,0.3962351405950815
1728064358341240800,1.09024072265625,-2.7321290969848633,-0.8102607727050781,0.42922165989875793,0.44081246852874756,0.8069738149642944,-0.39303645491600037,0.036070406436920166,0.08552801609039307,0.022400498390197754,0.7324070939004864,-0.5508918006030366,-0.000024618192393892905,0.400122607676552
1728064358351271000,1.10027099609375,-2.520430564880371,-0.7770637273788452,0.44333508610725403,0.44127944111824036,0.8151989579200745,-0.3751307725906372,0.03174296021461487,0.12042421102523804,0.04958450794219971,0.724182259252362,-0.5589141612772625,-0.00704097404913864,0.4038878989818425
1728064358361301000,1.110301025390625,-2.1671040058135986,-0.7416402697563171,0.40760505199432373,0.4420255422592163,0.8219637870788574,-0.3591502606868744,0.041616976261138916,0.15386629104614258,0.07376515865325928,0.7166323099623811,-0.5659035149714551,-0.013344440013512364,0.4074472469437318
1728064358371330800,1.120330810546875,-1.7258563041687012,-0.6749925017356873,0.3218238353729248,0.44256916642189026,0.8272171020507812,-0.3461853563785553,0.03385591506958008,0.17325586080551147,0.06566783785820007,0.7102632768216479,-0.5714481294455523,-0.018824440265776232,0.4106319984368587
1728064358381361000,1.13036083984375,-1.2701078653335571,-0.5675012469291687,0.2328961044549942,0.4427677392959595,0.8311058282852173,-0.33648163080215454,0.006832420825958252,0.2177223563194275,0.04929596185684204,0.7053050944877003,-0.5755127895424982,-0.023328532294878124,0.4132620749577248
1728064358391391700,1.140391845703125,-0.8634647727012634,-0.414188414812088,0.15385214984416962,0.44279083609580994,0.8337681293487549,-0.3297986090183258,-0.014781862497329712,0.2868373394012451,0.020884454250335693,0.7017516383262369,-0.5782627826644652,-0.026699180561149647,0.41526381502634835
1728064358401421800,1.150421875,-0.5742915272712708,-0.3089156150817871,0.0987878292798996,0.44262292981147766,0.8355551362037659,-0.32547280192375183,-0.025676578283309937,0.30433744192123413,-0.01933002471923828,0.6993826920939197,-0.5800143556494392,-0.029102238637554234,0.4166536021179905
1728064358411452000,1.160451904296875,-0.4949122965335846,-0.22082625329494476,0.06568314135074615,0.44246706366539,0.8368791341781616,-0.322267085313797,-0.03046455979347229,0.2314038872718811,-0.013533025979995728,0.697659972373639,-0.5813038795746357,-0.03085867032732451,0.41761700341813457
1728064358421482800,1.170482666015625,-0.5061079859733582,-0.15519392490386963,0.03140506148338318,0.4422850012779236,0.8382691740989685,-0.3188866972923279,-0.012353450059890747,0.125369131565094,-0.0077886879444122314,0.6960645429438376,-0.5826713741988464,-0.03241488014792116,0.41825523778897505
1728064358431512800,1.180512939453125,-0.5918929576873779,-0.0676472932100296,0.030986683443188667,0.4421809911727905,0.8398739695549011,-0.3147817552089691,0.0035891830921173096,0.03413420915603638,0.05353608727455139,0.6943807157817814,-0.5843475429853202,-0.03386838523254736,0.4186002826631959
1728064358441544000,1.1905439453125,-0.6144157648086548,0.032719410955905914,0.04385640472173691,0.44244384765625,0.8416302800178528,-0.30968037247657776,0.013092011213302612,0.0008380413055419922,0.09968894720077515,0.6925001513348226,-0.5864534794236392,-0.03510173464479012,0.4186689685139809
1728064358451573800,1.20057373046875,-0.48028460144996643,0.0939396321773529,0.029349105432629585,0.442982941865921,0.843169093132019,-0.304683655500412,0.01586410403251648,0.04037594795227051,0.11414715647697449,0.6907912054816565,-0.5885302869748594,-0.03592042789797396,0.41850859051800054
1728064358461603800,1.210603759765625,-0.19608058035373688,0.11781678348779678,-0.03435264527797699,0.4433298408985138,0.8442166447639465,-0.3012588322162628,0.01238909363746643,0.11572903394699097,0.0898483395576477,0.6897927248537552,-0.5899632272515949,-0.03624885787580171,0.41810931678815255
1728064358471635000,1.220635009765625,0.05577296391129494,0.14995582401752472,-0.07121425867080688,0.44323626160621643,0.8446984887123108,-0.300043523311615,-0.002821892499923706,0.1721472144126892,0.05898517370223999,0.6896991549071354,-0.590484232114827,-0.0361471522601961,0.41753661522374447
1728064358481665000,1.2306650390625,0.3444671928882599,0.18151208758354187,-0.05419905483722687,0.44321367144584656,0.8443695306777954,-0.3010013997554779,-0.008628100156784058,0.14502573013305664,0.027151912450790405,0.6904705317501746,-0.5901293140561823,-0.03530860461986872,0.41683472244457465
1728064358491695900,1.24069580078125,0.3811088502407074,0.18157440423965454,0.03127829730510712,0.4436330199241638,0.8432601690292358,-0.30348339676856995,0.006882697343826294,0.027879416942596436,-0.046492159366607666,0.6916757137877096,-0.5891582395862904,-0.03392453191972017,0.4163249589723603
1728064358501725700,1.2507255859375,0.15687061846256256,0.17693433165550232,0.1813351809978485,0.4450833797454834,0.841963529586792,-0.304956316947937,0.0394747257232666,-0.11898672580718994,-0.014074474573135376,0.6922808855845912,-0.5886177455273752,-0.032419095579067025,0.4162035862790524
1728064358511755800,1.260755859375,-0.1332852989435196,0.08844467252492905,0.3289070427417755,0.4477190375328064,0.8407229781150818,-0.30452030897140503,0.10214662551879883,-0.2410067319869995,0.020508527755737305,0.6918348853455315,-0.5888741681497959,-0.03109747032029757,0.41668295893015295
1728064358521786600,1.27078662109375,-0.42705607414245605,-0.030817274004220963,0.4195930063724518,0.4509912431240082,0.8399041295051575,-0.30194029211997986,0.15844476222991943,-0.33894282579421997,0.004210829734802246,0.6901820062006057,-0.589999702097417,-0.03049931479490313,0.41787426701317343
1728064358531816700,1.280816650390625,-0.631996750831604,-0.1305353343486786,0.4381240904331207,0.45440998673439026,0.839516818523407,-0.29786404967308044,0.20035982131958008,-0.402352511882782,-0.02072414755821228,0.6877040522471457,-0.5917200863133817,-0.03058297681626112,0.4195176789277004
1728064358541847800,1.290847900390625,-0.8967771530151367,-0.23700927197933197,0.42647168040275574,0.4575081169605255,0.8398138880729675,-0.2922310531139374,0.1925925314426422,-0.40150517225265503,-0.042851924896240234,0.6844736966848113,-0.5940443160328134,-0.03155665353789745,0.4214395351827063
1728064358551877600,1.300877685546875,-0.9700402021408081,-0.24428582191467285,0.44681796431541443,0.4604301452636719,0.8406022787094116,-0.2852926552295685,0.14047619700431824,-0.24959880113601685,0.00878816843032837,0.6806531475862101,-0.5968708165942822,-0.03314974540714243,0.42350629113300936
1728064358561908700,1.31090869140625,-0.5517295002937317,-0.2153489887714386,0.47370418906211853,0.4637221097946167,0.840695858001709,-0.27962857484817505,0.09589391946792603,-0.05451732873916626,0.02668362855911255,0.6772467652120642,-0.5991795880377659,-0.03419846711629084,0.4256184019040746
1728064358571938800,1.320938720703125,0.05743557587265968,-0.2558271586894989,0.5070996880531311,0.46720001101493835,0.8390870690345764,-0.2786700129508972,0.06369897723197937,0.051248013973236084,-0.05665707588195801,0.6754263448827413,-0.5995886239413794,-0.03403637312518096,0.42794185027161236
1728064358581969000,1.330968994140625,0.47174593806266785,-0.2023915797472,0.5886691212654114,0.47113946080207825,0.83571857213974,-0.2821385860443115,0.03410956263542175,0.08049547672271729,-0.15278270840644836,0.6750538953006575,-0.5982217292424616,-0.032580298204298246,0.43054802849832646
1728064358591999700,1.340999755859375,0.6512333750724792,-0.13048569858074188,0.5422185063362122,0.4754987061023712,0.8313330411911011,-0.2877259850502014,-0.0009657144546508789,0.09560787677764893,-0.15346655249595642,0.6754805998262274,-0.5960081666715862,-0.03018724739669731,0.43311530730392256
1728064358602029800,1.35102978515625,0.6725062727928162,-0.05698847398161888,0.3952501118183136,0.47917431592941284,0.8270995020866394,-0.2937658131122589,-0.03430438041687012,0.1039307713508606,-0.0738641619682312,0.6764621170792273,-0.5935955779900021,-0.02759317889389648,0.4350653976735386
1728064358612060700,1.361060791015625,0.5856038928031921,-0.0022402750328183174,0.2776491940021515,0.4818551242351532,0.8236141204833984,-0.29912444949150085,-0.09158113598823547,0.06809425354003906,-0.011956453323364258,0.6775996484095707,-0.5914359852748082,-0.025322966851948566,0.43637249021784014
1728064358622090800,1.3710908203125,0.4094671308994293,0.03635793179273605,0.23611800372600555,0.48400142788887024,0.8208698630332947,-0.3031754791736603,-0.08292418718338013,0.017615914344787598,0.031141817569732666,0.6785343106132701,-0.589800212353556,-0.02340873027743801,0.4372401539690038
1728064358632120800,1.381120849609375,0.2661299407482147,0.07869633287191391,0.2231244444847107,0.48608824610710144,0.8187471628189087,-0.3055673837661743,-0.03218504786491394,-0.005041599273681641,0.1030832827091217,0.678992144924423,-0.5888468046253696,-0.021811589765863598,0.437896616695253
1728064358642152000,1.39115185546875,0.29360082745552063,0.1091659814119339,0.1929638683795929,0.4881315529346466,0.8168901801109314,-0.3072751462459564,0.017895609140396118,0.0049329400062561035,0.1254819631576538,0.6793235037164644,-0.5881766746674678,-0.02026393929222987,0.4383573215485053
1728064358652181800,1.401181640625,0.4127935469150543,0.11045069247484207,0.14969176054000854,0.489921510219574,0.81494140625,-0.3095921277999878,0.04257965087890625,0.028961122035980225,0.06844225525856018,0.679983828758431,-0.5872465639323646,-0.01858532467586865,0.4386547045524527
1728064358662212900,1.411212890625,0.5414395332336426,0.08651409298181534,0.08055609464645386,0.4911915361881256,0.812883734703064,-0.3129708170890808,0.04962563514709473,0.05611950159072876,0.017606526613235474,0.6811270847083081,-0.5858586666884547,-0.01685861138739339,0.43880656715419086
1728064358672243000,1.421242919921875,0.7318909764289856,0.07090450823307037,0.02119184285402298,0.4918701648712158,0.8106237649917603,-0.317730575799942,0.049481093883514404,0.09352046251296997,-0.003268510103225708,0.6828742278210492,-0.5838737070221207,-0.015039962688706629,0.43880290706540975
1728064358682272800,1.431272705078125,0.9272562861442566,0.045510947704315186,-0.03352546691894531,0.49201422929763794,0.8079606890678406,-0.32422420382499695,0.03078228235244751,0.11911749839782715,-0.050745218992233276,0.6853388523407145,-0.5811357285591436,-0.01300651800428381,0.4386599834758016
1728064358692304000,1.441303955078125,0.8539929389953613,-0.007005789317190647,-0.08837992697954178,0.4916136860847473,0.8052808046340942,-0.33141911029815674,0.013848870992660522,0.11918812990188599,-0.0532853901386261,0.6880808242060572,-0.5780713963877964,-0.011130955520468075,0.43846806298126767
1728064358702333700,1.451333740234375,0.6275883913040161,-0.0014370125718414783,-0.11301576346158981,0.4907771646976471,0.8032588362693787,-0.33751001954078674,0.01041296124458313,0.09020429849624634,-0.00791841745376587,0.690480068362119,-0.5754556405593672,-0.009787917066611588,0.4381692119696301
1728064358712364800,1.46136474609375,0.23968541622161865,0.03646323084831238,-0.07863461971282959,0.49003729224205017,0.8022559285163879,-0.3409527540206909,0.017851442098617554,-0.0077155232429504395,0.03769963979721069,0.6919624598685594,-0.5739701291648217,-0.009050328953610578,0.4377947961898504
1728064358722394600,1.47139453125,-0.16852931678295135,0.060227468609809875,-0.016690293326973915,0.4898295998573303,0.8023946285247803,-0.3409249782562256,0.038002341985702515,-0.10412192344665527,0.07479646801948547,0.692150081576057,-0.5739838468613043,-0.00894743602988974,0.4374823022266061
1728064358732424700,1.4814248046875,-0.3508048355579376,0.051681652665138245,0.034756917506456375,0.49014076590538025,0.8032981753349304,-0.33834031224250793,0.06833085417747498,-0.10923683643341064,0.11594349145889282,0.6913102376192316,-0.575102626248753,-0.009317253729776145,0.4373332507714904
1728064358742455800,1.491455810546875,-0.25813183188438416,0.021998059004545212,0.07395119220018387,0.4907267689704895,0.804097056388855,-0.3355819880962372,0.087444007396698,-0.04942774772644043,0.07470247149467468,0.6902734397681969,-0.5762939147265206,-0.009712386999263552,0.43739415920853214
1728064358752485600,1.501485595703125,-0.008557157590985298,0.034535154700279236,0.11993678659200668,0.49162182211875916,0.8040815591812134,-0.3343062400817871,0.09397992491722107,0.024577438831329346,-0.005400180816650391,0.6896430300612864,-0.5768482017012434,-0.009645513880271265,0.4376591143139463
1728064358762516700,1.511516845703125,0.23499944806098938,0.04731933772563934,0.15851108729839325,0.4928916096687317,0.8029909133911133,-0.3350571095943451,0.09341201186180115,0.08590978384017944,-0.08249959349632263,0.6896793715064339,-0.5765356546017453,-0.00883662013756396,0.4380305611617244
1728064358772546800,1.521546875,0.41005513072013855,0.0474703386425972,0.16223925352096558,0.49438798427581787,0.8010901808738708,-0.3373945355415344,0.08216530084609985,0.10445797443389893,-0.0988694429397583,0.690256608292555,-0.5755405783326303,-0.007468046298347638,0.4384553846618796
1728064358782577700,1.53157763671875,0.4200790822505951,-0.06749246269464493,0.15830469131469727,0.49566319584846497,0.798818826675415,-0.34089091420173645,0.07643461227416992,0.07044398784637451,-0.09090229868888855,0.6911468732662114,-0.5740362980617898,-0.0060723102674042784,0.4390461889113025
1728064358792607700,1.541607666015625,0.17388662695884705,-0.15068933367729187,0.16689231991767883,0.49662718176841736,0.7969170808792114,-0.34392499923706055,0.07794240117073059,-0.016750574111938477,-0.059013813734054565,0.6916632862695985,-0.5727211334588541,-0.005292206853206894,0.4399593398268749
1728064358802637800,1.551637939453125,-0.2308390885591507,-0.14299334585666656,0.1561099886894226,0.4974021911621094,0.7961965799331665,-0.34447354078292847,0.09799566864967346,-0.096230149269104,-0.0028012096881866455,0.6912177551687936,-0.5724804535886995,-0.005419013478379664,0.4409701907276169
1728064358812669000,1.5616689453125,-0.5577031970024109,-0.06080712750554085,0.14314597845077515,0.49825894832611084,0.7968426942825317,-0.341730535030365,0.09977871179580688,-0.13496220111846924,0.02706378698348999,0.6897180170465212,-0.5736688430848879,-0.006228692650757832,0.44176273086236617
1728064358822698800,1.57169873046875,-0.7117282748222351,-0.027854397892951965,0.15749536454677582,0.4993579685688019,0.7982953786849976,-0.3366989195346832,0.07907214760780334,-0.14044314622879028,0.057875096797943115,0.687505827865163,-0.5758441706190328,-0.007350195256577993,0.4423632310160857
1728064358832729900,1.581729736328125,-0.6748820543289185,-0.04012171924114227,0.15442180633544922,0.500534176826477,0.7998486161231995,-0.3312215507030487,0.0592343807220459,-0.11640745401382446,0.07420256733894348,0.685113041212686,-0.5782006286186538,-0.008559103884931973,0.44297954621531327
1728064358842760000,1.591760009765625,-0.5820072293281555,-0.033999428153038025,0.10564973205327988,0.5015105605125427,0.8012635111808777,-0.3262878656387329,0.037811219692230225,-0.06923842430114746,0.0506989061832428,0.682960745459482,-0.5803119955243269,-0.00969843793080313,0.4435182093038201
1728064358852789800,1.601789794921875,-0.2736629843711853,-0.020215174183249474,0.045296911150217056,0.5020539164543152,0.8023119568824768,-0.32285797595977783,0.005087137222290039,0.014994561672210693,-0.006457149982452393,0.6815001638805814,-0.5817731021660362,-0.010538952140946915,0.44383156968019255
1728064358862820900,1.61182080078125,-0.05343028903007507,-0.06288130581378937,-0.014473211020231247,0.5020885467529297,0.8026986718177795,-0.32184138894081116,-0.04006773233413696,0.09586089849472046,-0.003750622272491455,0.6810255510966526,-0.5822024993903693,-0.01093398528308752,0.44398743103826355
1728064358872851000,1.621850830078125,0.06531180441379547,-0.07762536406517029,-0.08054810017347336,0.5014967918395996,0.8029078841209412,-0.32224181294441223,-0.07333528995513916,0.16309547424316406,-0.05117121338844299,0.6811363689695477,-0.582023587828372,-0.011297361492742821,0.4440428994155695
1728064358882881800,1.6318818359375,0.02947244793176651,-0.08341752737760544,-0.11500008404254913,0.500469446182251,0.8031988143920898,-0.3231128752231598,-0.09922438859939575,0.15480899810791016,-0.015693247318267822,0.6815140324823781,-0.5816409718379197,-0.011719524124175372,0.4439538329393872
1728064358892911600,1.64191162109375,-0.13733410835266113,-0.04422537982463837,-0.12438134104013443,0.49930867552757263,0.8039623498916626,-0.3230099380016327,-0.10953822731971741,0.0520099401473999,0.021191120147705078,0.6816267475135352,-0.581671276485563,-0.012391698958658987,0.44372288361001533
1728064358902941700,1.651941650390625,-0.3730217218399048,-0.029018573462963104,-0.08126875758171082,0.49839410185813904,0.8052892088890076,-0.32111141085624695,-0.08428588509559631,-0.05930227041244507,0.051656514406204224,0.6811049471720151,-0.5824652758736515,-0.013360166471829832,0.44345428184567126
1728064358912972800,1.661972900390625,-0.6168431639671326,-0.07137241959571838,-0.030349912121891975,0.49782058596611023,0.807154655456543,-0.31729477643966675,-0.030688077211380005,-0.10547924041748047,0.07149094343185425,0.6797574722002435,-0.5840668940526433,-0.014781058241669375,0.44337016133107504
1728064358923002600,1.672002685546875,-0.6818253397941589,-0.14809547364711761,0.0032519898377358913,0.4974069893360138,0.8093053102493286,-0.3124276399612427,0.020262598991394043,-0.09220331907272339,0.07960912585258484,0.6778146555373568,-0.5860962353993024,-0.016654743381248678,0.4436000673301418
1728064358933033700,1.68203369140625,-0.6414023041725159,-0.25157979130744934,0.02707689441740513,0.4969336688518524,0.8112671971321106,-0.30806201696395874,0.02461165189743042,-0.07409995794296265,0.0460381805896759,0.675818774918191,-0.5878926240194317,-0.018741627878443943,0.44418446974084935
1728064358943063800,1.692063720703125,-0.67203688621521,-0.3115968406200409,0.05213617533445358,0.4964072108268738,0.8130799531936646,-0.30410680174827576,-0.007530897855758667,-0.05595409870147705,-0.040863871574401855,0.6737415766472074,-0.5894939681668478,-0.021058403520294908,0.4451131560391553
1728064358953094000,1.702093994140625,-0.5409406423568726,-0.2687753438949585,0.02926468290388584,0.49590805172920227,0.8147204518318176,-0.3005095422267914,-0.04633834958076477,-0.0106736421585083,-0.08515635132789612,0.6717744745273881,-0.5909341202970704,-0.02328305863666548,0.44606493970019895
1728064358963124700,1.712124755859375,-0.45826128125190735,-0.19168774783611298,0.002818161156028509,0.4953629672527313,0.8160908818244934,-0.297676146030426,-0.09512501955032349,0.009592652320861816,-0.10398092865943909,0.6702711662734275,-0.5920580406581643,-0.02508406262621096,0.44673763388628773
1728064358973154800,1.72215478515625,-0.6393799185752869,-0.1495213806629181,-0.007044323720037937,0.4948611855506897,0.817693293094635,-0.2940920889377594,-0.12765845656394958,0.01377338171005249,-0.09543424844741821,0.6686480981266888,-0.5934919253458619,-0.026856825964893874,0.44716421748046453
1728064358983185700,1.732185546875,-0.7267929315567017,-0.11002553999423981,-0.06621629744768143,0.49420300126075745,0.8199193477630615,-0.2889561653137207,-0.11462545394897461,0.04258370399475098,-0.005431562662124634,0.6666022917333979,-0.5955519937441268,-0.02897825746391301,0.4473471380872688
1728064358993215700,1.7422158203125,-0.5236448645591736,-0.07882634550333023,-0.0823792889714241,0.4932895302772522,0.8221410512924194,-0.28416457772254944,-0.08829081058502197,0.043352723121643066,0.06483477354049683,0.6648582162721924,-0.597461041110096,-0.0309517889889367,0.4472648344713491
1728064359003246800,1.752246826171875,-0.3565231263637543,-0.12674428522586823,0.006407835986465216,0.49268949031829834,0.8235388994216919,-0.2811419665813446,-0.06245270371437073,0.0065697431564331055,0.05714297294616699,0.6636585046566388,-0.5986508307046682,-0.03234493384564536,0.4473571555688617
1728064359013277000,1.76227685546875,-0.3560869097709656,-0.12026001513004303,0.03970427066087723,0.4926089942455292,0.8243753910064697,-0.2788217067718506,-0.02852824330329895,0.023830175399780273,0.052015066146850586,0.6624816143049954,-0.5995567139781065,-0.03347976794023863,0.44780456781567485
1728064359023306800,1.772306640625,-0.24025483429431915,-0.04248175770044327,-0.0828125923871994,0.4922812581062317,0.8252930045127869,-0.2766778767108917,-0.03607398271560669,0.10820925235748291,0.06918886303901672,0.6615598529771087,-0.600392759844128,-0.034490594217990896,0.44797046604928353
1728064359033337900,1.782337890625,-0.053184010088443756,0.08627089112997055,-0.2160574495792389,0.49106207489967346,0.8264633417129517,-0.2753477394580841,-0.10141366720199585,0.14727628231048584,0.048815786838531494,0.6614690263149219,-0.6009046067281206,-0.0352106245514022,0.4473618089265677
1728064359043368000,1.792367919921875,0.20686322450637817,0.2052430957555771,-0.08451195061206818,0.4899490773677826,0.8271695971488953,-0.2752099633216858,-0.1384018063545227,0.09490388631820679,0.011797517538070679,0.6620750392748711,-0.6009640242663778,-0.03517462823324867,0.446387414645522
1728064359053398800,1.802398681640625,0.6362729072570801,0.275622695684433,0.2646249830722809,0.4915473759174347,0.8254448175430298,-0.2775287628173828,-0.07681348919868469,-0.061192989349365234,-0.019361525774002075,0.6632179198109784,-0.6001231176427754,-0.032982840949925256,0.44598931687937377
1728064359063428900,1.812428955078125,0.2881767153739929,0.09351735562086105,0.23104068636894226,0.4943176507949829,0.8226471543312073,-0.28089457750320435,0.12239676713943481,-0.3281707763671875,-0.07544392347335815,0.6641887396196859,-0.5988562095832772,-0.03039667955205495,0.4464309757349189
1728064359073458700,1.822458740234375,-0.5282456874847412,-0.19480232894420624,0.046067096292972565,0.49523988366127014,0.8223472237586975,-0.28014761209487915,0.27638179063796997,-0.42036962509155273,0.058803677558898926,0.6635403122308667,-0.5991661183068643,-0.03043273954146106,0.44697668481909475
1728064359083489800,1.83248974609375,-1.0618776082992554,-0.3784303665161133,0.14905181527137756,0.49510928988456726,0.8242635130882263,-0.27469345927238464,0.26406118273735046,-0.19595229625701904,0.28189563751220703,0.6607763007528489,-0.6012993576898591,-0.03305074810363102,0.44801944294319335
1728064359093519600,1.84251953125,-0.9670667052268982,-0.3347691595554352,0.3424369692802429,0.4962173104286194,0.8258419036865234,-0.2678684592247009,0.20170438289642334,-0.014852523803710938,0.3095707893371582,0.6569900468065729,-0.6039715487636141,-0.035834885336583945,0.44977585953375404
1728064359103550700,1.85255078125,-0.6350010633468628,-0.20943675935268402,0.3487939238548279,0.4985145628452301,0.8261644244194031,-0.26255619525909424,0.1036430299282074,0.09041589498519897,0.09644898772239685,0.6536783823474329,-0.6060697075003073,-0.03743551947088707,0.4516445420285023
1728064359113580800,1.862580810546875,-0.3104941248893738,-0.09587611258029938,0.1450357586145401,0.500251054763794,0.8261207938194275,-0.2593705356121063,-0.04465419054031372,0.16844695806503296,-0.1444074809551239,0.6516333947212959,-0.6073343519146532,-0.03820615736515811,0.45283445650672594
1728064359123610600,1.872610595703125,-0.10148309916257858,-0.001291071530431509,0.003046127501875162,0.5006749033927917,0.8262922167778015,-0.2580033540725708,-0.15565848350524902,0.1955583691596985,-0.2938917279243469,0.6508729992116826,-0.6078710433743418,-0.03861493460157475,0.4531732197191469
1728064359133641700,1.882641845703125,-0.09874536842107773,0.04623570293188095,0.007663515862077475,0.5007658004760742,0.8264979720115662,-0.2571665346622467,-0.158511221408844,0.13912397623062134,-0.2776082158088684,0.6506523252258027,-0.6082122193323909,-0.0386604703850637,0.4530284287501701
1728064359143671800,1.892671875,-0.14966706931591034,0.08847599476575851,0.09926427155733109,0.5014364719390869,0.826600968837738,-0.25552305579185486,-0.045519232749938965,0.05750840902328491,-0.20410212874412537,0.6500977404861598,-0.6088944326977085,-0.03854914688102646,0.4529175114777749
1728064359153702700,1.90270263671875,-0.4146316349506378,-0.1439545899629593,0.129745751619339,0.5023805499076843,0.826655387878418,-0.25348472595214844,0.08227509260177612,-0.0010786652565002441,-0.0701693594455719,0.6490052391544362,-0.6097103290952981,-0.03887094528368037,0.45335908162442723
1728064359163732700,1.912732666015625,-0.5170506238937378,-0.15170763432979584,0.1000983715057373,0.5029984712600708,0.8272727727890015,-0.25022464990615845,0.14910107851028442,-0.04985266923904419,0.007945656776428223,0.6472243052749014,-0.6109670446232136,-0.04008671320541525,0.45410688992250825
1728064359173762800,1.9227626953125,-0.523525059223175,-0.13239465653896332,0.06817719340324402,0.5033266544342041,0.8281368017196655,-0.2466813176870346,0.13088953495025635,-0.05871236324310303,-0.009803637862205505,0.6454071814989131,-0.6123210356079507,-0.041500466757802904,0.4547419013807474
1728064359183793700,1.932793701171875,-0.3971375823020935,0.0020128991454839706,0.03913621976971626,0.5036313533782959,0.8290375471115112,-0.24300669133663177,0.046859920024871826,-0.03699958324432373,-0.05133533477783203,0.6437906208645182,-0.6137420453096396,-0.042630436300078865,0.4550132427254494
1728064359193823700,1.94282373046875,-0.15802115201950073,0.04129479080438614,0.025974081829190254,0.5040059089660645,0.8295161724090576,-0.2405843436717987,-0.004768967628479004,-0.007937252521514893,-0.04368685185909271,0.6428662090398272,-0.6146984228950818,-0.043054322132048996,0.45498916427080366
1728064359203854800,1.952854736328125,-0.009538399055600166,0.039088308811187744,0.019536687061190605,0.5043178796768188,0.8295949697494507,-0.2396574318408966,-0.004256904125213623,-0.023549437522888184,-0.080075204372406,0.6425622801454002,-0.6150774216439183,-0.04302382864679188,0.45490929589333046
1728064359213885000,1.962885009765625,0.10113618522882462,-0.015552565455436707,0.0024128281511366367,0.5044789910316467,0.8293948173522949,-0.24001070857048035,0.029334425926208496,-0.027362346649169922,-0.06528711318969727,0.6426908326264318,-0.6149486872666856,-0.04281072440050836,0.4549218011379317
1728064359223915800,1.972915771484375,0.0709572359919548,-0.04060604050755501,-0.008931439369916916,0.5043622255325317,0.8291957378387451,-0.24094220995903015,0.061204731464385986,-0.04019433259963989,-0.03609633445739746,0.6429838939423804,-0.6145767284626632,-0.04271230813701202,0.4550195901851778
1728064359233945900,1.98294580078125,0.002483643125742674,0.015677738934755325,0.03772527724504471,0.5044494867324829,0.8290442824363708,-0.24128037691116333,0.06310111284255981,-0.03436654806137085,0.03987962007522583,0.6430454167689026,-0.6144441094397386,-0.042640947721418,0.4551183891281933
1728064359243976000,1.992975830078125,0.017222575843334198,0.04992663115262985,0.05283844843506813,0.504987359046936,0.8287626504898071,-0.24112273752689362,0.04626685380935669,-0.012554764747619629,0.1199222207069397,0.6429580350188695,-0.6145301117596352,-0.042324593812426106,0.45515528913336645
1728064359254006800,2.0030068359375,-0.0556364543735981,-0.00543969077989459,0.02882286347448826,0.5054160356521606,0.8285601735115051,-0.24092020094394684,0.026596784591674805,-0.0349811315536499,0.10346908867359161,0.6428355138602878,-0.6146261292625897,-0.04212625995108106,0.4552170340508552
1728064359264036900,2.013036865234375,-0.1729680746793747,-0.0007297308184206486,0.017248766496777534,0.5055781006813049,0.8287431597709656,-0.23994876444339752,-0.004983127117156982,-0.05486321449279785,0.0652051717042923,0.6424017998489064,-0.6150042602919591,-0.04237188434902799,0.4552957357020794
1728064359274068000,2.02306787109375,-0.1349591761827469,0.0696544200181961,0.032770730555057526,0.505900502204895,0.8289826512336731,-0.2384374737739563,-0.040217578411102295,-0.038058578968048096,0.06554019451141357,0.6418546449998072,-0.6156074606157604,-0.04252902315294604,0.4552376853647403
1728064359284097800,2.033097900390625,-0.06858813762664795,0.06679818034172058,0.07717148959636688,0.5065486431121826,0.8289632797241211,-0.23712538182735443,-0.04927325248718262,-0.014494895935058594,0.055820465087890625,0.6414028005864829,-0.6161517392444976,-0.04235969360037186,0.45515400997640454
1728064359294127600,2.043127685546875,0.1745566725730896,0.005130289122462273,0.11156940460205078,0.5075973272323608,0.8281508684158325,-0.2377205491065979,-0.024046361446380615,0.03375709056854248,0.06528103351593018,0.6413980322909112,-0.615953716408181,-0.041722209330394874,0.45548746721106104
1728064359304158700,2.05315869140625,0.3426753580570221,-0.048353444784879684,0.06858066469430923,0.5088487863540649,0.8265853524208069,-0.24047812819480896,0.01876962184906006,0.048842012882232666,0.05392417311668396,0.6419857862694482,-0.6149070746583601,-0.04062293024494931,0.4561725539307152
1728064359314188800,2.063188720703125,0.45780709385871887,-0.012387984432280064,0.06453452259302139,0.5100131034851074,0.8249919414520264,-0.24346457421779633,0.025021016597747803,0.04758191108703613,0.01209557056427002,0.6427908739875953,-0.6137750769067023,-0.03934298199297595,0.4566752022955022
1728064359324219600,2.0732197265625,0.6624577045440674,0.05254414305090904,0.08848592638969421,0.5113048553466797,0.8232666850090027,-0.2465750128030777,0.0034350156784057617,0.048818886280059814,0.028298094868659973,0.6438886848747613,-0.6126163343583613,-0.03759946168045369,0.4568312659733631
1728064359334249700,2.083249755859375,0.7782032489776611,0.09811029583215714,0.06085562705993652,0.5126772522926331,0.8210762143135071,-0.250989705324173,-0.010815739631652832,-0.02175980806350708,0.02866917848587036,0.6455824329565427,-0.6109502850679646,-0.035283135799762666,0.4568568285799771
1728064359344279800,2.09327978515625,0.7180961966514587,0.12547747790813446,-0.017663678154349327,0.5134372115135193,0.8191291689872742,-0.2557530105113983,-0.027215957641601562,-0.09203261137008667,0.0312809944152832,0.6476000472624938,-0.6091226058303558,-0.03306282989988377,0.4566077314352793
1728064359354310700,2.103310546875,0.5888351798057556,0.08649758249521255,-0.06350573152303696,0.5131440758705139,0.8181315064430237,-0.25950682163238525,-0.03897732496261597,-0.10722464323043823,0.06037965416908264,0.6495260976164554,-0.6076616550620746,-0.03152625904379856,0.45592668308786927
1728064359364340700,2.1133408203125,0.5249938368797302,0.05574233457446098,-0.00907551683485508,0.512998640537262,0.8168952465057373,-0.26365625858306885,-0.030317366123199463,-0.09671080112457275,0.10075345635414124,0.6512990943614536,-0.6060212767625479,-0.030167514767440517,0.4556727806477617
1728064359374371800,2.123371826171875,0.5797407031059265,0.0473075695335865,0.061764299869537354,0.5133706331253052,0.8152947425842285,-0.26785263419151306,-0.02254122495651245,-0.06975030899047852,0.14456164836883545,0.6528852559942049,-0.6043601142209705,-0.028679881351040472,0.4557050941516468
1728064359384402000,2.13340185546875,0.8828084468841553,0.18011808395385742,0.05216147378087044,0.5141929984092712,0.8130095601081848,-0.27316850423812866,-0.044619083404541016,-0.04236435890197754,0.10588645935058594,0.6549357634204176,-0.6022580672330714,-0.026475694344415983,0.45567904192110087
1728064359394431700,2.143431640625,1.0309693813323975,0.26720771193504333,0.016301745548844337,0.5150454640388489,0.81014484167099,-0.2799884080886841,-0.09162938594818115,-0.07863849401473999,0.05727112293243408,0.6578562238574995,-0.5995480166600793,-0.02340886179559378,0.4552135831673003
1728064359404462800,2.153462890625,0.9940779805183411,0.3559940457344055,0.09974763542413712,0.5163969397544861,0.8070064187049866,-0.28648748993873596,-0.13956588506698608,-0.10710084438323975,0.13435736298561096,0.6607709348797012,-0.5969588402944561,-0.019909638278753083,0.4545609454482731
1728064359414493000,2.163492919921875,1.018716812133789,0.32272210717201233,0.08382326364517212,0.5182297229766846,0.8035039305686951,-0.29294949769973755,-0.09150248765945435,-0.10323232412338257,0.18822848796844482,0.6636179225043644,-0.5943610112389957,-0.016131919977405935,0.45396700242765736
1728064359424523800,2.173523681640625,0.6986098289489746,0.3472420871257782,0.01486923173069954,0.519578754901886,0.8006734251976013,-0.2982617914676666,-0.009294331073760986,-0.18333333730697632,0.156721293926239,0.6661324952067496,-0.5922012886360805,-0.012912796206275784,0.4532090744063513
1728064359434553900,2.183553955078125,0.38967838883399963,0.38554874062538147,-0.024892563000321388,0.5206671953201294,0.799071729183197,-0.30064907670021057,0.036522626876831055,-0.2488856315612793,0.18791720271110535,0.6677615943698285,-0.5912411704865587,-0.010456593928762352,0.45212702999580373
1728064359444585000,2.1935849609375,0.11178629845380783,0.33206287026405334,-0.046597592532634735,0.5214634537696838,0.7985174059867859,-0.30074194073677063,0.11969554424285889,-0.2940618395805359,0.18038064241409302,0.6686151880256879,-0.5912293542335952,-0.008768318375604526,0.45091530746571346
1728064359454614800,2.20361474609375,-0.08470359444618225,0.2790883481502533,-0.011643069796264172,0.5221414566040039,0.7986661195755005,-0.29916682839393616,0.19421285390853882,-0.304815411567688,0.13223570585250854,0.668689551257741,-0.5919079504363294,-0.007846559413234243,0.4499308544019092
1728064359464644600,2.21364453125,0.13273711502552032,0.23434484004974365,0.06246204674243927,0.5230913758277893,0.7985634207725525,-0.29777804017066956,0.2607220411300659,-0.222345769405365,-0.030362188816070557,0.6686657979104708,-0.5925061703821096,-0.006885918840344831,0.4491937566395025
1728064359474676000,2.223676025390625,0.43672364950180054,0.1320277899503708,0.16494981944561005,0.5245671272277832,0.7970572710037231,-0.2992141544818878,0.2795557379722595,-0.08370888233184814,-0.1546584963798523,0.6692696066542513,-0.5919162992691892,-0.005293004756360871,0.44909392369055706
1728064359484705800,2.233705810546875,0.6801133751869202,0.1482192724943161,0.1022065281867981,0.5261578559875488,0.7945866584777832,-0.30296844244003296,0.2627672553062439,0.0605158805847168,-0.23891693353652954,0.6706167417352746,-0.5903440413915864,-0.0031140383915513577,0.44917409778832956
1728064359494736600,2.243736572265625,0.7900431156158447,0.13003361225128174,-0.05173323303461075,0.5267777442932129,0.7921775579452515,-0.30815550684928894,0.19625991582870483,0.14335405826568604,-0.35589170455932617,0.6727651757061506,-0.588150874634082,-0.0008941982212784307,0.44884821678244435
1728064359504766700,2.2537666015625,0.7299478054046631,0.1409938484430313,-0.15460075438022614,0.5263579487800598,0.7903494238853455,-0.31352025270462036,0.08149105310440063,0.13128143548965454,-0.23903092741966248,0.6752563581534767,-0.5858659653524594,0.0009707976737763053,0.4480946974340853
1728064359514796800,2.263796875,0.6830764412879944,0.18244488537311554,-0.20415818691253662,0.5254510045051575,0.7890562415122986,-0.3182629942893982,0.02307182550430298,0.04721689224243164,-0.12416550517082214,0.6777295921401976,-0.583833743254869,0.0025800296625892874,0.44700559786458904
1728064359524827600,2.27382763671875,0.6490809321403503,0.22840411961078644,-0.1281004399061203,0.5247482061386108,0.7878293395042419,-0.32243481278419495,-0.00843667984008789,-0.028674066066741943,0.01600787043571472,0.6800651935033036,-0.5820346201145676,0.004277386998059712,0.4457899722596249
1728064359534857700,2.283857666015625,0.7818000912666321,0.2104634791612625,-0.05714157968759537,0.5248602628707886,0.7859504818916321,-0.3268080949783325,-0.00850290060043335,-0.04487687349319458,0.1061050295829773,0.6822952352188626,-0.5801335879908409,0.0064004450097892174,0.44483400994025374
1728064359544888800,2.293888916015625,0.6753223538398743,0.2235659658908844,-0.1573488712310791,0.5247154235839844,0.7840191125869751,-0.33164405822753906,0.02940744161605835,-0.06786304712295532,0.026803970336914062,0.6846986618363747,-0.5780192351960434,0.00846991492133959,0.4438578604175783
1728064359554918700,2.303918701171875,0.4373154044151306,0.2307453155517578,-0.14080025255680084,0.5242494344711304,0.7830150127410889,-0.33473867177963257,0.027081072330474854,-0.04722094535827637,0.041831016540527344,0.6866661465340732,-0.5766533307330127,0.010079549346701812,0.4425595526497548
1728064359564948700,2.31394873046875,0.12336000055074692,0.07959861308336258,-0.03304583206772804,0.5241227149963379,0.7824625372886658,-0.3362257480621338,0.034806668758392334,0.040520310401916504,0.03869462013244629,0.6876621109856675,-0.5759916081742772,0.010990866292013471,0.4418525305249804
1728064359574979800,2.323979736328125,0.06801790744066238,-0.133610337972641,-0.06284526735544205,0.5237334370613098,0.7822099328041077,-0.337417870759964,0.09555971622467041,0.005753934383392334,0.10034209489822388,0.6881339830761739,-0.5754721571126103,0.011084339720530087,0.44179237074936034
1728064359585010000,2.334010009765625,-0.17972317337989807,-0.1374351680278778,-0.06870368868112564,0.5227210521697998,0.7827776074409485,-0.3376714587211609,0.05871504545211792,-0.055253803730010986,0.1576940417289734,0.6881034426886582,-0.5753774465139309,0.010250183296937122,0.4419834823380127
1728064359595040800,2.344040771484375,-0.27618154883384705,-0.09235770255327225,-0.06915056705474854,0.521835207939148,0.7839043140411377,-0.3364252746105194,0.0038452744483947754,-0.025176286697387695,0.1502223014831543,0.6875701088232047,-0.5759371985533353,0.009149423483519296,0.4421085195761415
1728064359605070800,2.35407080078125,-0.39290836453437805,0.032342202961444855,-0.12565858662128448,0.5207991600036621,0.7855966687202454,-0.33407461643218994,-0.01933443546295166,0.03502088785171509,0.02165094017982483,0.6868692523268544,-0.5769745869620555,0.007938487089808965,0.4418684694788318
1728064359615101000,2.364100830078125,-0.5902230143547058,0.04265795648097992,0.09273073822259903,0.5209013223648071,0.7873135805130005,-0.3298470377922058,-0.05694270133972168,0.03937709331512451,0.11819246411323547,0.6854844084786854,-0.5788150204141187,0.0070464112466645055,0.4416272198376057
1728064359625131800,2.3741318359375,-0.7162709832191467,-0.21288710832595825,0.025978872552514076,0.5212826728820801,0.7890126705169678,-0.3251509964466095,-0.02015364170074463,0.02600497007369995,0.12631377577781677,0.6833974813200393,-0.5808561075980182,0.005538774550935502,0.4422027397635171
1728064359635161900,2.384161865234375,-0.8381600975990295,-0.2362198680639267,-0.11952506005764008,0.520056426525116,0.7918328046798706,-0.3202216625213623,0.04488486051559448,0.03430849313735962,-0.09760966897010803,0.681275484443365,-0.5829931651731903,0.0028519699276534295,0.4426899913150162
1728064359645193000,2.39419287109375,-0.9755620956420898,-0.22539064288139343,-0.017529454082250595,0.5187661051750183,0.7950972318649292,-0.314168781042099,-0.03252965211868286,0.0439378023147583,-0.06702622771263123,0.6787688948810746,-0.585589952740511,-0.00015426167292114705,0.44312197225480826
1728064359655222800,2.404222900390625,-0.6781439781188965,-0.3090972304344177,0.05234896019101143,0.5179741978645325,0.7976850271224976,-0.30887117981910706,-0.038573622703552246,0.05637997388839722,-0.04205042123794556,0.6762482280630189,-0.587839778789072,-0.002966071827867995,0.4439864761617131
1728064359665254000,2.41425390625,-0.3402586579322815,-0.051473602652549744,0.07583378255367279,0.5180356502532959,0.7988640069961548,-0.3057045340538025,-0.04447925090789795,0.12397223711013794,-0.18263772130012512,0.6745303788959961,-0.5891750194435618,-0.004531210550744673,0.44481561857004986
1728064359675283700,2.42428369140625,0.07447700947523117,0.1561403125524521,0.056547701358795166,0.5187146067619324,0.7989139556884766,-0.30441999435424805,-0.05245184898376465,0.26291465759277344,-0.3460926413536072,0.6740398769478018,-0.5897207418449433,-0.004409872416987254,0.44483721879293786
1728064359685313800,2.434313720703125,0.3156125247478485,0.10588236153125763,0.07331549376249313,0.5197542309761047,0.7979522347450256,-0.3051683008670807,-0.05983912944793701,0.32890933752059937,-0.2760999798774719,0.6744607630389892,-0.5894110152554051,-0.003242122526347306,0.44461979270814866
1728064359695344600,2.4443447265625,0.49311619997024536,-0.1275397092103958,0.016937708482146263,0.5201559662818909,0.7964175939559937,-0.3084747791290283,-0.01658552885055542,0.28105127811431885,-0.3124052584171295,0.6755454960493701,-0.5880116914502369,-0.0022033801061552703,0.44483208024349047
1728064359705374700,2.454374755859375,0.645230233669281,-0.18350817263126373,-0.003063430543988943,0.5196345448493958,0.7946463823318481,-0.3138740062713623,0.010501503944396973,0.16105729341506958,-0.31552043557167053,0.6771968765585645,-0.5857138078736589,-0.0015260188024740183,0.4453551726602084
1728064359715405800,2.46440576171875,0.4025004208087921,-0.15996955335140228,-0.09801630675792694,0.5186238884925842,0.7931625843048096,-0.3192528188228607,-0.001640915870666504,0.11462855339050293,-0.3089362382888794,0.6789455663743645,-0.5834144815745538,-0.0010648330340636495,0.44571213235658796
1728064359725435600,2.474435546875,0.679448664188385,-0.0011700047180056572,-0.08793038874864578,0.5175726413726807,0.7920357584953308,-0.32372474670410156,-0.042765021324157715,0.10565400123596191,-0.13405415415763855,0.6806810800389216,-0.5814958442263338,-0.0004593355993020782,0.4455732269039664
1728064359735465700,2.4844658203125,0.7149192690849304,0.15953737497329712,0.01661040633916855,0.5175539255142212,0.789762020111084,-0.3292624354362488,-0.15642422437667847,0.004686832427978516,0.005791425704956055,0.6828713027045118,-0.5791088927938244,0.0012930381234985554,0.4453290152034426
1728064359745496800,2.494496826171875,0.4384307265281677,0.5952219367027283,0.008668061345815659,0.5189546346664429,0.7877264618873596,-0.33192330598831177,-0.18635886907577515,-0.12569338083267212,0.010954737663269043,0.6845449114524574,-0.5779468136720763,0.0039781860242075855,0.4442520962057296
1728064359755526700,2.504526611328125,0.07299842685461044,0.6234802007675171,0.01318504847586155,0.5211795568466187,0.7868102192878723,-0.33060792088508606,-0.18573039770126343,-0.07518607378005981,0.25464969873428345,0.6852323758362004,-0.5784896121116297,0.006768495747080397,0.44244838345537385
1728064359765557800,2.514557861328125,-0.2020716369152069,0.3326556980609894,-0.007905323058366776,0.5228511095046997,0.7870199680328369,-0.3274543583393097,-0.10427206754684448,-0.06344819068908691,0.3970955014228821,0.6849888092555223,-0.5798307265203791,0.008315706522502467,0.4410414734640195
1728064359775587800,2.524587890625,-0.36188578605651855,-0.08172471076250076,-0.03512762486934662,0.5231039524078369,0.7880507707595825,-0.3245583474636078,0.01936119794845581,-0.0924178957939148,0.43165984749794006,0.6842048647221252,-0.5810815628822903,0.008064735969783314,0.4406163461515053
1728064359785618000,2.534617919921875,-0.4382372200489044,-0.34473055601119995,-0.03791968151926994,0.5220565795898438,0.7895978093147278,-0.32247820496559143,0.10449975728988647,-0.09115725755691528,0.3100728392601013,0.6830963666102652,-0.581998027189939,0.006260458002484091,0.4411557708759002
1728064359795648800,2.544648681640625,-0.36814042925834656,-0.4215659499168396,0.014015421271324158,0.5206920504570007,0.7909829020500183,-0.3212875723838806,0.12939327955245972,-0.047178030014038086,0.169645756483078,0.6819350986920257,-0.58252935958971,0.0039698050722887885,0.4422762287561322
1728064359805678800,2.554678955078125,-0.08993709832429886,-0.27851536870002747,0.031328096985816956,0.5197424292564392,0.7916251420974731,-0.3212435245513916,0.11177301406860352,-0.00950533151626587,0.03677397966384888,0.6811577816667357,-0.5825574123992106,0.002257184430023006,0.44344763105913715
1728064359815710000,2.5647099609375,0.24233219027519226,-0.03233996033668518,0.004994229879230261,0.5193852186203003,0.7912673950195312,-0.32269954681396484,0.06850540637969971,0.0389634370803833,-0.06784918904304504,0.6813696715689376,-0.5819332610358102,0.001977651015718762,0.4439428343742122
1728064359825739800,2.57473974609375,0.28814661502838135,0.10820894688367844,0.006063755135983229,0.5195551514625549,0.7903153300285339,-0.32475244998931885,0.011328637599945068,0.13511496782302856,-0.10655242204666138,0.6821908635630978,-0.5810474366348181,0.0027658545929831213,0.4438376351472691
1728064359835769900,2.584769775390625,0.26427215337753296,0.17576803267002106,0.08303177356719971,0.520332396030426,0.7892436981201172,-0.32611140608787537,-0.0136185884475708,0.2273274064064026,-0.07351624965667725,0.6828875927646147,-0.5804554049333921,0.003977048726160123,0.4435315958948338
1728064359845801000,2.594801025390625,0.43107321858406067,0.09857847541570663,0.2113407552242279,0.5220158696174622,0.7873325347900391,-0.328034907579422,-0.005322813987731934,0.23518943786621094,-0.12734836339950562,0.6835413044923395,-0.579612125551031,0.005686427114204869,0.4436088029044431
1728064359855830800,2.604830810546875,0.5402020812034607,-0.010310452431440353,0.19469092786312103,0.5238467454910278,0.7845553159713745,-0.33174917101860046,0.020785152912139893,0.10646641254425049,-0.19663214683532715,0.6845035082110379,-0.5779864465702981,0.007555083990415041,0.44421786198855334
1728064359865862000,2.61486181640625,0.4824909269809723,0.029201537370681763,0.0474998764693737,0.5248382091522217,0.7821364998817444,-0.33586814999580383,0.022174060344696045,-0.06475979089736938,-0.22420567274093628,0.6857349290311409,-0.5761800360931914,0.009082763574855598,0.4446365951499484
1728064359875891700,2.6248916015625,0.2986598312854767,0.17514808475971222,-0.06932421028614044,0.5250424742698669,0.7808984518051147,-0.33842024207115173,-0.019610345363616943,-0.15455549955368042,-0.17163529992103577,0.6869020137139091,-0.5750519611264812,0.01025308435052997,0.44427006515700085
1728064359885922600,2.634922607421875,0.09421269595623016,0.25657904148101807,-0.02454688400030136,0.5253620743751526,0.780519962310791,-0.33879706263542175,-0.06834608316421509,-0.14787518978118896,-0.005227595567703247,0.6875775922259204,-0.5748686609372005,0.01129100042780064,0.4434362391385599
1728064359895952600,2.64495263671875,0.023083925247192383,0.16667577624320984,0.1306120753288269,0.5265615582466125,0.7800654768943787,-0.33798032999038696,-0.0672416090965271,-0.09778404235839844,0.17837342619895935,0.6875778209702621,-0.5752023244415454,0.012333949956149315,0.4429749670018587
1728064359905982700,2.654982666015625,0.11309843510389328,-0.004566653165966272,0.12958836555480957,0.5279801487922668,0.7790748476982117,-0.3380521237850189,-0.015071332454681396,-0.06984633207321167,0.1895689070224762,0.687420284916902,-0.5751527624893297,0.013162155234937125,0.4432598534683652
1728064359916013800,2.665013916015625,0.15333214402198792,-0.039446871727705,0.0334615558385849,0.5284553170204163,0.7781968712806702,-0.33932968974113464,0.017794013023376465,-0.09222269058227539,0.10658740997314453,0.6876704704178069,-0.5745872285148201,0.013589611811518153,0.4435923016265636
1728064359926043600,2.675043701171875,0.1314353048801422,0.029447931796312332,0.08614234626293182,0.528854489326477,0.777432918548584,-0.3404570519924164,-0.027877986431121826,-0.07177489995956421,0.08357536792755127,0.6879485382845597,-0.5740859841180512,0.014027077725618087,0.44379646264371864
1728064359936074800,2.68507470703125,0.1162148043513298,0.14580462872982025,0.17903447151184082,0.5302169919013977,0.7762745022773743,-0.3409806787967682,-0.03560340404510498,-0.016127407550811768,0.10042589902877808,0.6880113623408354,-0.573832931384656,0.01501443604864112,0.44399401792101006
1728064359946104800,2.695104736328125,0.04937238618731499,0.13223402202129364,0.17872501909732819,0.5322192311286926,0.7749354839324951,-0.34090718626976013,-0.010765433311462402,0.015042543411254883,0.05211937427520752,0.6878614308881748,-0.5738294131385748,0.016316157736165206,0.4441848791669952
1728064359956135000,2.705135009765625,0.04238984361290932,-0.056632835417985916,0.11826219409704208,0.5334828495979309,0.7739245295524597,-0.34122830629348755,0.006647706031799316,0.0016644001007080078,0.052287906408309937,0.6877008276583328,-0.5736701226033195,0.016983639151601674,0.444613966288551
1728064359966165800,2.715165771484375,-0.0748865157365799,-0.16123796999454498,0.14534762501716614,0.5341328382492065,0.7732741236686707,-0.3416858911514282,0.025208592414855957,-0.01915419101715088,0.0628315806388855,0.6873778680345666,-0.5734713055009895,0.016962150653380012,0.44537014422858273
1728064359976195800,2.72519580078125,-0.094734787940979,-0.18745945394039154,0.15512780845165253,0.5347123742103577,0.772757887840271,-0.3419470489025116,0.05972415208816528,-0.0007242560386657715,-0.004229038953781128,0.6867712253773645,-0.5733691171109976,0.016562735138597847,0.44645128673204637
1728064359986226700,2.735226806640625,-0.10686135292053223,-0.13194607198238373,0.08112441748380661,0.5351223349571228,0.772396981716156,-0.34212127327919006,0.0786624550819397,-0.0011872649192810059,-0.015621006488800049,0.6862621359107358,-0.5733040438060111,0.01618121290329101,0.44733088009033495
1728064359996256800,2.7452568359375,-0.20298203825950623,-0.12365192174911499,0.07515121251344681,0.5352746248245239,0.7725564241409302,-0.3415225148200989,0.0560491681098938,-0.006809353828430176,-0.022842049598693848,0.6856397546980246,-0.5735809639414899,0.015608191721317272,0.44795021053016504
1728064360006286800,2.755286865234375,-0.14527937769889832,-0.19349204003810883,0.12553609907627106,0.5355143547058105,0.7726208567619324,-0.34100040793418884,0.0419086217880249,0.02674126625061035,0.014309793710708618,0.6849057816893205,-0.5738261743646909,0.014943646841605132,0.4487808437186099
1728064360016318000,2.76531787109375,-0.09349342435598373,-0.2056421935558319,0.11428076773881912,0.5358030796051025,0.7723544239997864,-0.34115055203437805,0.07232064008712769,0.015533149242401123,-0.027227073907852173,0.6842881137957629,-0.5737761240903467,0.014341701623401653,0.44980553183379046
1728064360026347800,2.77534765625,-0.019158201292157173,-0.1588701605796814,0.027602335438132286,0.5356730818748474,0.7723374962806702,-0.34139305353164673,0.06421095132827759,-0.026960790157318115,-0.026893049478530884,0.6839250822955959,-0.5736852180588279,0.01373823743661518,0.4504920505720467
1728064360036379000,2.78537890625,-0.006227224133908749,-0.11711178719997406,-0.0036823488771915436,0.5353347659111023,0.7725005745887756,-0.34155479073524475,0.01532435417175293,-0.03789663314819336,-0.04670506715774536,0.6837559307208834,-0.5736264014001958,0.013242395216932443,0.450838401715256
1728064360046409000,2.795408935546875,0.10122500360012054,-0.0381409116089344,0.016102541238069534,0.5353946685791016,0.7723199129104614,-0.3418692648410797,-0.03666120767593384,-0.025295376777648926,-0.0306740403175354,0.6837226298265533,-0.5734905862809712,0.01318777444862893,0.4510632935674435
1728064360056438800,2.805438720703125,0.11876244843006134,0.06381900608539581,0.00459901662543416,0.5359911322593689,0.7715731859207153,-0.34261995553970337,-0.052577435970306396,-0.02361774444580078,-0.04356470704078674,0.6839191771657631,-0.5731501325352856,0.013745657493081173,0.45118135699602907
1728064360066469600,2.8154697265625,0.09100212156772614,0.12317506223917007,-0.047143273055553436,0.5370447039604187,0.7707024812698364,-0.34292978048324585,-0.0582544207572937,-0.032985687255859375,0.0007514655590057373,0.684105616764259,-0.572991035483342,0.014709746572839428,0.4510704527618793
1728064360076499700,2.825499755859375,0.060498274862766266,0.1067204549908638,-0.062369897961616516,0.5377511382102966,0.7701348662376404,-0.3430977761745453,-0.053254127502441406,-0.02590268850326538,-0.016109347343444824,0.6843401586695813,-0.572896823247906,0.015502982492427268,0.450807641906971
1728064360086530600,2.835530517578125,0.010709881782531738,0.14980252087116241,-0.11960761994123459,0.5378297567367554,0.7705100178718567,-0.3421306908130646,-0.028888165950775146,-0.03987342119216919,-0.020906388759613037,0.6844406827795213,-0.5733087983032787,0.01586442619051323,0.4501180077725851
1728064360096560600,2.845560546875,0.007068541366606951,0.19271962344646454,-0.11890960484743118,0.5382347702980042,0.7705665230751038,-0.34136584401130676,-0.009670376777648926,-0.03758007287979126,-0.00566476583480835,0.6846090165504137,-0.5736237118640937,0.01651998785427894,0.4494368913107585
1728064360106590700,2.8555908203125,0.04210255667567253,0.19420278072357178,-0.10603348910808563,0.5390709042549133,0.7701869606971741,-0.34090256690979004,0.0023566484451293945,-0.009292185306549072,-0.02453017234802246,0.6847894922786986,-0.5737978048815948,0.017458590877393057,0.4489037747925663
1728064360116621800,2.865621826171875,0.09985960274934769,0.19124294817447662,-0.11027111113071442,0.5392158031463623,0.7698400616645813,-0.34145665168762207,0.02737349271774292,0.018261194229125977,-0.026768386363983154,0.6853953602543276,-0.5735320551512175,0.018238724351153514,0.44828734826952854
1728064360126651600,2.875651611328125,0.15999184548854828,0.13202756643295288,-0.08687976747751236,0.5384777784347534,0.7699146270751953,-0.34245172142982483,0.020588934421539307,0.03686332702636719,-0.019120514392852783,0.6862680197331462,-0.5730858427396045,0.01862133608895097,0.44750655364240155
1728064360136682800,2.885682861328125,0.17247195541858673,0.08127384632825851,-0.08351193368434906,0.5373179912567139,0.7698283791542053,-0.3444613516330719,0.00021857023239135742,0.030144155025482178,0.027994096279144287,0.6873752633690788,-0.5722025610131815,0.01880320913102861,0.446929362757739
1728064360146712800,2.895712890625,0.07840397208929062,0.0634041428565979,-0.07385744154453278,0.5361909866333008,0.770130455493927,-0.3455404043197632,-0.019162297248840332,-0.0008128881454467773,0.03520718216896057,0.6881653279950004,-0.5717317592059112,0.018777587880221092,0.44631667160818705
1728064360156743000,2.905742919921875,-0.04093067720532417,0.03758532926440239,-0.03952743485569954,0.535130500793457,0.7705826163291931,-0.3461758494377136,-0.04607111215591431,-0.015928685665130615,0.0312802791595459,0.6886579130728828,-0.5714627598180824,0.018503749537775675,0.4459126979449025
1728064360166773800,2.915773681640625,-0.10155347734689713,0.037416908890008926,-0.0012460891157388687,0.5349936485290527,0.7707143425941467,-0.34609419107437134,-0.06693035364151001,-0.010689318180084229,0.023416578769683838,0.6886441036191243,-0.5715018447515047,0.018399696951597815,0.4458882699488921
1728064360176803800,2.925803955078125,-0.10323259979486465,0.06379924714565277,-0.02604331448674202,0.5353856086730957,0.7707598805427551,-0.34538576006889343,-0.07373106479644775,-0.0026935338973999023,-0.022640913724899292,0.688383890683041,-0.5718087867075787,0.018488811123026125,0.44589276020134855
1728064360186834700,2.935834716796875,-0.0804523155093193,0.12214170396327972,-0.05571252852678299,0.5355330109596252,0.7709634900093079,-0.34470221400260925,-0.08321672677993774,0.006090342998504639,-0.05239248275756836,0.6882820751196099,-0.572104105872927,0.018595209790806397,0.4456666940028247
1728064360196864800,2.94586474609375,0.07191937416791916,0.12433695048093796,-0.0515500083565712,0.5358741879463196,0.7709094285964966,-0.3442927598953247,-0.08493125438690186,0.022837519645690918,-0.007590115070343018,0.688394570482049,-0.5722673848055881,0.019069722913386263,0.44526317180058556
1728064360206894800,2.955894775390625,0.09354797005653381,0.05801582336425781,-0.04741012305021286,0.5357699394226074,0.7708654403686523,-0.34455353021621704,-0.05731534957885742,0.018181920051574707,0.03336575627326965,0.6887759201636562,-0.5721412246695919,0.01943343505068316,0.4448196862428232
1728064360216926000,2.965926025390625,0.06104941666126251,0.0022170040756464005,-0.06392491608858109,0.5352851152420044,0.7714185118675232,-0.344068706035614,-0.02861708402633667,0.028706610202789307,0.042738139629364014,0.6889493283255297,-0.5723545426868166,0.019388797876881927,0.44427823752883716
1728064360226955800,2.975955810546875,0.04485014081001282,-0.05913258716464043,-0.07419832795858383,0.5344719290733337,0.7720646858215332,-0.3438835144042969,-0.011248111724853516,0.0425868034362793,0.012249022722244263,0.6891309337827249,-0.5724466378903339,0.019054980565250068,0.4438921596317369
1728064360236987000,2.98598681640625,-0.020517414435744286,-0.10915740579366684,-0.0682019516825676,0.5330496430397034,0.7729411721229553,-0.34412169456481934,-0.00259321928024292,0.009117424488067627,0.006215840578079224,0.6893783195223577,-0.5723680474872581,0.018274921116121414,0.4436419763383504
1728064360247016700,2.9960166015625,-0.160674586892128,-0.13415485620498657,-0.06401918828487396,0.5310865640640259,0.7743361592292786,-0.3440209627151489,0.00573277473449707,-0.03251492977142334,0.010219722986221313,0.689452156417469,-0.572453196663385,0.01693690251375392,0.44347049287750595
1728064360257047800,3.0060478515625,-0.20297010242938995,-0.1058177500963211,-0.02809820882976055,0.5289207100868225,0.7757760286331177,-0.3441140651702881,-0.002599358558654785,-0.033161282539367676,-0.01738184690475464,0.689481909083389,-0.5724570745597165,0.015357668917357431,0.44347696003706005
1728064360267077600,3.01607763671875,-0.15549586713314056,-0.06675530225038528,-0.00798868015408516,0.5267345905303955,0.7769473195075989,-0.3448239862918854,-0.022477447986602783,-0.0210268497467041,-0.051339924335479736,0.6896967900719966,-0.5721845087130699,0.013888541274119443,0.4435429521164981
1728064360277107700,3.026107666015625,-0.21030718088150024,-0.01521194726228714,-0.018207229673862457,0.5244194865226746,0.7787893414497375,-0.34419649839401245,-0.03294926881790161,-0.03489285707473755,-0.050471991300582886,0.6897307478102734,-0.5724939002300958,0.012348302060988655,0.44313615159628617
1728064360287138800,3.036138916015625,-0.3161533772945404,0.01252221129834652,-0.010287255048751831,0.5233392715454102,0.7807716727256775,-0.3413381576538086,-0.033440589904785156,-0.01328498125076294,-0.047959357500076294,0.6890091900176168,-0.5737649331613883,0.011168027624924835,0.442646021927558
1728064360297168600,3.046168701171875,-0.2355826497077942,-0.003792579285800457,0.01763998344540596,0.5230293273925781,0.7824517488479614,-0.337949275970459,-0.021366119384765625,0.031574249267578125,-0.04904410243034363,0.6879991359160841,-0.5752560675145305,0.01028661876077642,0.4423029993289954
1728064360307199700,3.05619970703125,-0.0873725414276123,-0.03580883517861366,0.010219352319836617,0.5227574706077576,0.7832832336425781,-0.3364403247833252,0.005028724670410156,0.026073455810546875,-0.054322004318237305,0.6874914092302076,-0.5759212910259599,0.009721701147942931,0.442239492243205
1728064360317229800,3.066229736328125,-0.08408140391111374,-0.02628697082400322,-0.02924230322241783,0.522730827331543,0.7834709286689758,-0.336044579744339,0.024937570095062256,-0.009239912033081055,-0.06336945295333862,0.687268817683167,-0.576096915549003,0.009489937982535297,0.4423618342222729
1728064360327260000,3.076260009765625,-0.1985020637512207,-0.020987756550312042,-0.054300252348184586,0.5231459736824036,0.7835288047790527,-0.3352621793746948,0.028123438358306885,-0.00793987512588501,-0.05618676543235779,0.6868610869030987,-0.5764375142056077,0.009418302236650827,0.44255261977610266
1728064360337290800,3.086290771484375,-0.268902987241745,-0.07754078507423401,-0.030088922008872032,0.5230326652526855,0.7839012145996094,-0.33456772565841675,0.023506522178649902,0.00931161642074585,-0.0037653744220733643,0.6863979016397673,-0.5767473399205342,0.008868217016527263,0.44287887802459563
1728064360347320800,3.09632080078125,-0.28810957074165344,-0.11965968459844589,-0.019404053688049316,0.5222229957580566,0.7845445275306702,-0.33432450890541077,0.01987588405609131,0.004716336727142334,0.05240318179130554,0.6860109657237919,-0.5768679599891193,0.007816739848393019,0.4433408500042563
1728064360357351700,3.1063515625,-0.29092079401016235,-0.0761721283197403,0.0032328148372471333,0.5215718150138855,0.7852565050125122,-0.3336687684059143,0.0021250247955322266,-0.010476350784301758,0.06692996621131897,0.6854786288173623,-0.5771652503809763,0.006773817249944993,0.4437941934345787
1728064360367381800,3.1163818359375,-0.3071258068084717,-0.022245250642299652,0.023262184113264084,0.5212148427963257,0.7860906720161438,-0.33225953578948975,-0.020467281341552734,-0.019245028495788574,0.09381046891212463,0.6847950693283984,-0.577784952411755,0.005897790343822025,0.4440556104270059
1728064360377414000,3.126413818359375,-0.369230717420578,-0.00971614196896553,0.05182511731982231,0.5211777687072754,0.7870401740074158,-0.33006295561790466,-0.015120089054107666,-0.019599318504333496,0.09854137897491455,0.6838834112836222,-0.5787420538900496,0.005114565618564692,0.44422401566982506
1728064360387445000,3.136445068359375,-0.41816529631614685,-0.07125183194875717,0.06932741403579712,0.521440327167511,0.787968635559082,-0.327422559261322,0.015409648418426514,-0.002949535846710205,0.06407114863395691,0.6826804729869014,-0.5798884067457415,0.004260518254496848,0.44458830129742777
1728064360397475000,3.14647509765625,-0.30999433994293213,-0.13691845536231995,0.08543181419372559,0.5218027830123901,0.7885380983352661,-0.3254680037498474,0.04565620422363281,0.004506945610046387,0.055479079484939575,0.6814984337358464,-0.5807362731779587,0.003372593450991698,0.4453019117384969
1728064360407506000,3.156505859375,-0.2518916428089142,-0.16887633502483368,0.09074508398771286,0.5220986008644104,0.7887221574783325,-0.32454636693000793,0.06292325258255005,-0.02076256275177002,0.04618033766746521,0.6805885206521048,-0.5811369272079774,0.0025865215369830774,0.44617532003624016
1728064360417536000,3.166535888671875,-0.24734270572662354,-0.14452971518039703,0.12068327516317368,0.5224329829216003,0.7890111207962036,-0.32330361008644104,0.05453228950500488,-0.022653698921203613,0.04667705297470093,0.6795898897380336,-0.5816743393080986,0.0017772742670846566,0.4470004148404332
1728064360427565800,3.17656591796875,-0.0953935906291008,-0.11709101498126984,0.1377064734697342,0.5230852365493774,0.7888743281364441,-0.32258179783821106,0.03755307197570801,0.005391359329223633,0.045405954122543335,0.678769832720354,-0.5819856713002111,0.0013333758663087007,0.44784187175668866
1728064360437596700,3.1865966796875,-0.00453638331964612,-0.06619773805141449,0.10385742783546448,0.5237604379653931,0.7883744239807129,-0.322708398103714,0.030896484851837158,-0.01162576675415039,-0.022399604320526123,0.6783611400912476,-0.5819314166343819,0.001276272404076997,0.4485312899825835
1728064360447626800,3.196626708984375,0.0009102474432438612,0.012069102376699448,0.0777701660990715,0.5244224071502686,0.7878810167312622,-0.32283860445022583,0.014945268630981445,-0.039849281311035156,-0.04761424660682678,0.6781562812195673,-0.581875007783481,0.001473942178307283,0.44891368126850173
1728064360457657900,3.206657958984375,-0.07252668589353561,0.023828556761145592,0.060758426785469055,0.5251414179801941,0.7878497838973999,-0.3217443525791168,0.010686218738555908,-0.03595763444900513,-0.02801758050918579,0.6777312169068348,-0.5823444397316895,0.001666404395163475,0.44894619916233525
1728064360467688000,3.21668798828125,-0.1526361107826233,-0.025896605104207993,0.04728922247886658,0.5257908701896667,0.7880314588546753,-0.3202347159385681,0.0284692645072937,-0.012427270412445068,-0.02024981379508972,0.6770970850172063,-0.5829922987453086,0.00161813482081407,0.44906219593463104
1728064360477717800,3.2267177734375,-0.08304957300424576,-0.045533955097198486,0.0160727147012949,0.5263755321502686,0.7882404327392578,-0.318756639957428,0.03913038969039917,0.009092330932617188,-0.031890273094177246,0.676409504319412,-0.5836262365355315,0.0014470365793312352,0.44927551083691797
1728064360487748900,3.236748779296875,0.03548706695437431,-0.0015513161197304726,-0.01769110932946205,0.5270577669143677,0.7880163192749023,-0.31818297505378723,0.029994845390319824,-0.008048057556152344,-0.05678647756576538,0.676080699205657,-0.583871422272248,0.0016376646885026178,0.4494511392655259
1728064360497779000,3.246779052734375,0.09324996173381805,0.053095150738954544,-0.0263996459543705,0.5276158452033997,0.7876834273338318,-0.31808239221572876,0.018023133277893066,-0.04906648397445679,-0.04696887731552124,0.6760946142517517,-0.5839130421579836,0.0020889875204377936,0.44937440875964674
1728064360507809800,3.256809814453125,0.036730363965034485,0.04543376713991165,-0.023024089634418488,0.5279324650764465,0.7875831127166748,-0.31780537962913513,0.01961386203765869,-0.06248539686203003,-0.00914466381072998,0.676167935041087,-0.5840301352470952,0.002473547808208286,0.44910987568458205
1728064360517840000,3.26683984375,-0.08723046630620956,-0.006825705990195274,0.00017896806821227074,0.5281474590301514,0.7874475717544556,-0.3177836537361145,0.018468081951141357,-0.044359803199768066,0.04108083248138428,0.6761367883135694,-0.5840388881716525,0.002596894121013114,0.4491445568297983
1728064360527870000,3.276869873046875,-0.11148347705602646,-0.031711138784885406,0.020841902121901512,0.528343677520752,0.787348210811615,-0.3177037537097931,-0.0020528435707092285,-0.00768512487411499,0.09828239679336548,0.6759017896514463,-0.5840737208050205,0.00245269710206131,0.44945364335452676
1728064360537900800,3.28690087890625,0.02877909503877163,0.0005099177360534668,0.02131301537156105,0.5286332368850708,0.7870897054672241,-0.31786251068115234,-0.017143428325653076,0.009586930274963379,0.09551149606704712,0.6757792224156862,-0.5840056566366562,0.0024771193999909057,0.449726180314105
1728064360547931000,3.296930908203125,0.07927808910608292,0.02797749452292919,-0.001133703626692295,0.528989851474762,0.7865861654281616,-0.3185151219367981,-0.0009289383888244629,-0.003352522850036621,0.03241288661956787,0.67595422360964,-0.5837245598161369,0.002841082187193605,0.4498259819295226
1728064360557962000,3.3069619140625,-0.020065274089574814,-0.01777268387377262,-0.010274738073348999,0.5291543006896973,0.78629070520401,-0.3189712464809418,0.021504878997802734,-0.0037437081336975098,0.01138460636138916,0.6760848550078535,-0.583528156247642,0.003043415394401906,0.449883233692965
1728064360567992000,3.316991943359375,-0.08719851076602936,-0.10777149349451065,-0.0069311391562223434,0.5290383100509644,0.7862010598182678,-0.3193841874599457,0.025145530700683594,0.018013358116149902,0.054445892572402954,0.6760208213504756,-0.5833524667254574,0.00279400303354737,0.4502087131748434
1728064360578022000,3.32702197265625,-0.07607235759496689,-0.12720058858394623,-0.016819989308714867,0.5288475751876831,0.7861043214797974,-0.3199378550052643,0.01441103219985962,0.0022257566452026367,0.05960768461227417,0.6758613106412128,-0.5831171477591809,0.002338628330373132,0.45075538266428705
1728064360588053000,3.337052978515625,-0.06698144972324371,-0.048328302800655365,-0.01569240726530552,0.5288796424865723,0.7860303521156311,-0.32006654143333435,-0.001825869083404541,-0.053257524967193604,0.03970158100128174,0.6756506480690498,-0.5830629984706989,0.0020652170444967633,0.4511424059512869
1728064360598083000,3.3470830078125,-0.09240345656871796,-0.014790581539273262,0.0069849430583417416,0.5291945338249207,0.7861531972885132,-0.31924355030059814,-0.0012709498405456543,-0.08835339546203613,0.04817119240760803,0.6752777636764319,-0.58341607718995,0.001975233009971073,0.4512447223823636
1728064360608114000,3.357114013671875,-0.13608434796333313,-0.061790209263563156,0.051130831241607666,0.5295404195785522,0.7866935729980469,-0.3173329532146454,0.01622062921524048,-0.062374114990234375,0.04423117637634277,0.6745642798071751,-0.5842351410479044,0.0016783620083080867,0.45125333023003483
1728064360618143700,3.367143798828125,-0.06936924159526825,-0.07654944062232971,0.05343206971883774,0.5297414660453796,0.7872427105903625,-0.3156309425830841,0.01463097333908081,0.006748378276824951,0.011950582265853882,0.6738483154067934,-0.5849641123685678,0.0012311873119062653,0.4513799798890039
1728064360628173800,3.377173828125,0.09928695112466812,0.018600665032863617,0.024413200095295906,0.5300180912017822,0.7870854139328003,-0.3155588209629059,-0.014820396900177002,0.05625259876251221,-0.04697471857070923,0.6736909056761331,-0.584994898903575,0.001246847720926169,0.45157499643903276
1728064360638205000,3.387204833984375,0.27502575516700745,0.16223080456256866,-0.01948368176817894,0.5305132269859314,0.7863700985908508,-0.31650862097740173,-0.03847843408584595,0.054053425788879395,-0.09366282820701599,0.6742065806139278,-0.5845864288915457,0.002098196729653476,0.4513310479104922
1728064360648234800,3.39723486328125,0.23105736076831818,0.2107471525669098,-0.03681313991546631,0.5310624837875366,0.7857587933540344,-0.31710538268089294,-0.023280560970306396,0.017723262310028076,-0.09300506114959717,0.6749236825309332,-0.5843255048958079,0.0033194938946507417,0.45058931968782084
1728064360658265900,3.407265869140625,0.04717887565493584,0.12096826732158661,-0.03392600640654564,0.5314846634864807,0.7856022119522095,-0.31678566336631775,0.013910174369812012,-0.004642128944396973,-0.024629712104797363,0.6752677900590214,-0.5844570169943043,0.004142919943666864,0.4498957875107603
1728064360668296000,3.4172958984375,-0.06460970640182495,-0.0015462562441825867,-0.017700430005788803,0.5317122340202332,0.7856845259666443,-0.3161991834640503,0.043605148792266846,-0.017984330654144287,0.05687612295150757,0.6751980414467796,-0.5847064150388371,0.004337278153430325,0.4496745336579593
1728064360678326800,3.427326904296875,-0.11953021585941315,-0.0310618057847023,-0.011192729696631432,0.5318995714187622,0.7858830690383911,-0.3153897523880005,0.05394631624221802,-0.04938703775405884,0.08560770750045776,0.6748431650721064,-0.5850535752075966,0.004175323216102251,0.44975728541068577
1728064360688356900,3.43735693359375,-0.11485356837511063,0.02403516322374344,-0.006117809563875198,0.5321987271308899,0.7861433029174805,-0.3142341375350952,0.05509674549102783,-0.06569957733154297,0.07187885046005249,0.6743836807404753,-0.5855481940198564,0.004029518734875933,0.4498040201364274
1728064360698387000,3.447386962890625,-0.038007523864507675,0.09121127426624298,0.00011558504775166512,0.5324514508247375,0.7864087224006653,-0.3131398558616638,0.0515633225440979,-0.04802072048187256,0.04308989644050598,0.6741040897656724,-0.5860149240968511,0.0040717101014061015,0.44961479543108857
1728064360708417800,3.457417724609375,0.0654134750366211,0.1352410465478897,-0.037875737994909286,0.5322738289833069,0.7865961790084839,-0.31297120451927185,0.053053200244903564,-0.027776598930358887,0.018629223108291626,0.6743357150932544,-0.5860854267787263,0.004275073522601548,0.449173582920705
1728064360718447900,3.46744775390625,0.11314824223518372,0.1637115627527237,-0.07735098153352737,0.5316335558891296,0.786758542060852,-0.3136504292488098,0.05979698896408081,-0.023407161235809326,0.0070709288120269775,0.6750298026712005,-0.5857934098204718,0.004567873417895708,0.44850850045821145
1728064360728479000,3.47747900390625,0.13082723319530487,0.19461782276630402,-0.08919379115104675,0.5311618447303772,0.7867400050163269,-0.31449514627456665,0.05872762203216553,-0.044491469860076904,0.04940420389175415,0.6758337850633062,-0.585428431523515,0.00509706360441456,0.4477680540822976
1728064360738509000,3.487509033203125,0.09576565027236938,0.2147393375635147,-0.1304677277803421,0.5310469269752502,0.7867989540100098,-0.3145418167114258,0.08662879467010498,-0.09194421768188477,0.09121417999267578,0.6764458379668634,-0.5854019266574689,0.00580310284107459,0.4468689976108953
1728064360748539000,3.497538818359375,-0.0638788640499115,0.19206714630126953,-0.164341002702713,0.5308816432952881,0.7874473333358765,-0.31319528818130493,0.13205164670944214,-0.14407575130462646,0.10587418079376221,0.6766751434711616,-0.5859720193355281,0.00625668390842447,0.4457671380019453
1728064360758570000,3.507570068359375,-0.1958393007516861,0.11687040328979492,-0.15827351808547974,0.5305929183959961,0.788597822189331,-0.31078022718429565,0.16371238231658936,-0.1619957685470581,0.12443992495536804,0.6764183990859505,-0.5870020333122491,0.006205143729578353,0.44480116143211823
1728064360768600000,3.51760009765625,-0.2562744915485382,0.07914091646671295,-0.15241402387619019,0.5301718711853027,0.7899052500724792,-0.30816778540611267,0.1998085379600525,-0.16604965925216675,0.10205209255218506,0.6759178351520673,-0.5881179288455948,0.005779832074387811,0.44409332632477594
1728064360778631000,3.527630859375,-0.2730097770690918,0.14100855588912964,-0.15555496513843536,0.5296264290809631,0.7913818955421448,-0.30530405044555664,0.2291015386581421,-0.15681463479995728,0.01251840591430664,0.6753597247761969,-0.5893390172288574,0.0052441586696819215,0.4433297480984312
1728064360788661000,3.537660888671875,-0.23439861834049225,0.1939740777015686,-0.1679711490869522,0.5291218757629395,0.7928647398948669,-0.3023169934749603,0.22510474920272827,-0.11522191762924194,-0.030400872230529785,0.6748973247618116,-0.5906077393628871,0.004899308341216281,0.4423484567518783
1728064360798690800,3.54769091796875,-0.22956576943397522,0.21282818913459778,-0.1909230798482895,0.5285912752151489,0.7943153977394104,-0.2994230091571808,0.21600699424743652,-0.07475674152374268,-0.02798476815223694,0.6745607892354126,-0.5918331575629218,0.004690900460572344,0.4412245697986455
1728064360808722000,3.557721923828125,-0.2792254686355591,0.19824041426181793,-0.20666421949863434,0.5280213952064514,0.7959176301956177,-0.29615655541419983,0.20092147588729858,-0.049411773681640625,-0.004090636968612671,0.6741316265408055,-0.5932134367433715,0.004420479123926067,0.4400283039450159
1728064360818751700,3.567751708984375,-0.26863008737564087,0.14623260498046875,-0.21043312549591064,0.5275959968566895,0.7975011467933655,-0.2926335334777832,0.17732948064804077,-0.03591972589492798,0.07090812921524048,0.6735255244738879,-0.5946986843507371,0.004087384768110605,0.4389534404967606
1728064360828782800,3.577782958984375,-0.2551204562187195,0.10160372406244278,-0.26756778359413147,0.5272442102432251,0.7988601922988892,-0.28954440355300903,0.15569335222244263,-0.05465853214263916,0.13143283128738403,0.6729610761152718,-0.5959979524874252,0.003774187767044715,0.43805892586517076
1728064360838813000,3.58781298828125,-0.39077284932136536,0.09388987720012665,-0.34435126185417175,0.5250418186187744,0.8014185428619385,-0.28646013140678406,0.1382729411125183,-0.0909387469291687,0.12428975105285645,0.6726768048412014,-0.5972971057258546,0.002469805491678093,0.43673327996473604
1728064360848842800,3.5978427734375,-0.4086712896823883,0.07451079785823822,-0.3659404516220093,0.5223976969718933,0.8044817447662354,-0.28268298506736755,0.11139130592346191,-0.09641289710998535,0.12045156955718994,0.6722242616049896,-0.5988805308925795,0.0007838028182064463,0.4352653876190913
1728064360858873900,3.607873779296875,-0.34635117650032043,0.06417027860879898,-0.38879889249801636,0.51957768201828,0.8074860572814941,-0.2792939841747284,0.11503523588180542,-0.11229568719863892,0.08039572834968567,0.6719092678419183,-0.6002933933904208,-0.0009228571418056687,0.433802736645468
1728064360868904000,3.617904052734375,-0.4061109721660614,0.09079224616289139,-0.43031570315361023,0.5164648294448853,0.8106529712677002,-0.27587273716926575,0.13850337266921997,-0.1413567066192627,0.004708826541900635,0.6716757406311746,-0.6017111263739664,-0.0027110891527476516,0.4321897571736397
1728064360878934800,3.627934814453125,-0.42804744839668274,0.1402072012424469,-0.39615747332572937,0.5133875608444214,0.8139888644218445,-0.2717630863189697,0.12940412759780884,-0.09940457344055176,0.0066263675689697266,0.6712818393634715,-0.6034054672880175,-0.004505615013253199,0.4304208771666052
1728064360888964900,3.63796484375,-0.2752857208251953,0.18336553871631622,-0.34774866700172424,0.5107907652854919,0.8168827295303345,-0.26794666051864624,0.11164575815200806,-0.0371280312538147,0.022707432508468628,0.6709829177721286,-0.6049729285546284,-0.005866739699894659,0.4286669044269246
1728064360898995000,3.647994873046875,-0.08854327350854874,0.2568189799785614,-0.3811875581741333,0.5084243416786194,0.8191874623298645,-0.26539909839630127,0.10630649328231812,-0.011188805103302002,-0.01083076000213623,0.6712246951245798,-0.6060171565321257,-0.006607441731777964,0.4267985369266065
1728064360909025800,3.65802587890625,-0.09712077677249908,0.3616616725921631,-0.4895012676715851,0.5056995153427124,0.8215914368629456,-0.2631641924381256,0.09427595138549805,0.013522028923034668,-0.054020196199417114,0.6719217711763582,-0.6069336577735255,-0.007030855731112382,0.4243856757151882
1728064360919056000,3.668055908203125,-0.2680291533470154,0.39973369240760803,-0.6704851388931274,0.5019292235374451,0.8249996304512024,-0.25969716906547546,0.07227420806884766,0.05410498380661011,-0.06421637535095215,0.6725981987337558,-0.6083495007229657,-0.007893078521815122,0.4212602882985953
1728064360929087000,3.6780869140625,-0.21999123692512512,0.4344882369041443,-0.6492373943328857,0.4974290430545807,0.8290697932243347,-0.25535765290260315,0.07129645347595215,0.05610775947570801,-0.036420851945877075,0.6732283270003581,-0.6101138244467953,-0.009071846132182475,0.41766296315749896
1728064360939117000,3.688116943359375,0.18363772332668304,0.3854261636734009,-0.48964399099349976,0.4937807619571686,0.8319544792175293,-0.2530460059642792,0.09845855832099915,-0.021575450897216797,-0.05602073669433594,0.6743397805163469,-0.6110544971982181,-0.00945509030489652,0.4144741995306952
1728064360949147000,3.69814697265625,0.23661024868488312,0.3245459794998169,-0.5052860379219055,0.49058836698532104,0.8337547183036804,-0.2533301115036011,0.19967341423034668,-0.16128462553024292,-0.10654842853546143,0.6761012109166393,-0.610941000271141,-0.009275677833115246,0.4117672345434009
1728064360959178000,3.708177978515625,-0.0953650251030922,0.2748119831085205,-0.611482560634613,0.4867781698703766,0.8362166285514832,-0.25256454944610596,0.2113572061061859,-0.1960797905921936,-0.03649798035621643,0.6775212115814938,-0.6112472837345284,-0.009720586455406188,0.40895885554243544
1728064360969208000,3.7182080078125,-0.44771382212638855,0.24918338656425476,-0.6158394813537598,0.4822029769420624,0.8399538993835449,-0.24891310930252075,0.14395663142204285,-0.06593656539916992,0.13048964738845825,0.6779432553276964,-0.6127115651376813,-0.011313040696464056,0.4060166407723556
1728064360979239000,3.728239013671875,-0.4526156485080719,0.25819310545921326,-0.5405356884002686,0.47791391611099243,0.8439487218856812,-0.24361632764339447,0.08154952526092529,0.03311121463775635,0.21538758277893066,0.6776450797570351,-0.6148305759049323,-0.01323626904385579,0.4032435205024737
1728064360989269000,3.73826904296875,-0.08613577485084534,0.3001968264579773,-0.5129557251930237,0.47418391704559326,0.8470953106880188,-0.23995691537857056,0.09597602486610413,0.05559951066970825,0.15041831135749817,0.6778653814794409,-0.6162896343739835,-0.014444090160137335,0.4005959004555674
1728064360999300000,3.748300048828125,0.08987706899642944,0.3550688624382019,-0.5863209962844849,0.4703269600868225,0.8496379852294922,-0.23855365812778473,0.10888135433197021,-0.0025005340576171875,-0.0021994709968566895,0.6790421045144975,-0.6168460200426035,-0.014971882723060048,0.39771678598438487
1728064361009330000,3.758329833984375,0.0796048566699028,0.3247784376144409,-0.6406838297843933,0.46586400270462036,0.8523499965667725,-0.23763462901115417,0.09799402952194214,-0.026971518993377686,-0.06563380360603333,0.6805569191019872,-0.6172042532819552,-0.01554323627003971,0.39453723490771303
1728064361019359700,3.76835986328125,0.0952615812420845,0.22503532469272614,-0.5942977070808411,0.4612031579017639,0.8550254702568054,-0.23711420595645905,0.0949186384677887,-0.022185444831848145,-0.000526130199432373,0.6820812158604707,-0.6173943453752546,-0.01634379761474059,0.3915639515812361
1728064361029390800,3.778390869140625,0.03917880356311798,0.18680134415626526,-0.5541899800300598,0.45677030086517334,0.8574824333190918,-0.23682181537151337,0.1290297508239746,-0.05395466089248657,0.018071860074996948,0.6834470122758236,-0.6174872613765646,-0.01727919916167217,0.3889870778344935
1728064361039421000,3.7884208984375,-0.19556260108947754,0.1580466628074646,-0.5709269046783447,0.4523732662200928,0.8602015376091003,-0.23539674282073975,0.15153899788856506,-0.07051342725753784,0.040145352482795715,0.6843263554522032,-0.6180272353231809,-0.018546200678198323,0.3865174177127827
1728064361049451800,3.79845166015625,-0.33969128131866455,0.0477747917175293,-0.5154521465301514,0.44788259267807007,0.863337516784668,-0.2324848771095276,0.11046692728996277,-0.03641808032989502,0.17415060102939606,0.6845360688035587,-0.6191454839680365,-0.020406579228539327,0.38425595236801496
1728064361059481900,3.80848193359375,-0.20966750383377075,-0.04176174849271774,-0.42900702357292175,0.4438018500804901,0.8661158084869385,-0.22996343672275543,0.06654351949691772,-0.003887474536895752,0.2337018996477127,0.6845321547052942,-0.6200926529148778,-0.02243628601125707,0.38261908720689664
1728064361069512000,3.818511962890625,-0.10040485113859177,0.024784203618764877,-0.4337916672229767,0.4400607943534851,0.8683331608772278,-0.22878797352313995,0.07530474662780762,-0.005463898181915283,0.055814385414123535,0.6848929609714537,-0.6205039030792879,-0.024102207575367497,0.3812028065461659
1728064361079542800,3.828542724609375,-0.004766480065882206,0.27516263723373413,-0.45572999119758606,0.43648144602775574,0.8704712390899658,-0.2275160849094391,0.0532798171043396,0.0031859278678894043,-0.10485081374645233,0.6855330069908778,-0.6209746038607776,-0.02514952425180982,0.37921285232508545
1728064361089572900,3.83857275390625,0.18369758129119873,0.2961282432079315,-0.4517917037010193,0.43321821093559265,0.8722054362297058,-0.2271117866039276,0.03226640820503235,0.04126209020614624,-0.1252594292163849,0.6867703378874689,-0.6211315059310737,-0.02529344580856455,0.3766994364229732
1728064361099604000,3.84860400390625,0.0553707592189312,0.12214420735836029,-0.49509283900260925,0.42958229780197144,0.873913586139679,-0.22745080292224884,0.0527479350566864,0.03776848316192627,-0.08814667165279388,0.6881490012053556,-0.6209772665886893,-0.025726167147371453,0.3744011220905642
1728064361109634000,3.858634033203125,-0.18235252797603607,-0.12036319077014923,-0.4838079512119293,0.42524269223213196,0.8762076497077942,-0.22677920758724213,0.04993119835853577,0.05439537763595581,0.00972294807434082,0.6888337035742402,-0.6211753513565155,-0.027415006388281375,0.3726898186013804
1728064361119663900,3.868663818359375,-0.1398617923259735,-0.2053087055683136,-0.40083637833595276,0.42094388604164124,0.8785117864608765,-0.2258830964565277,0.03704860806465149,0.06911998987197876,0.0585857629776001,0.6890472713952411,-0.6214278781254634,-0.02976309276480237,0.3716925534342179
1728064361129695000,3.878695068359375,0.14048819243907928,-0.015871558338403702,-0.3698694109916687,0.4173468053340912,0.8800943493843079,-0.22639673948287964,0.01467519998550415,0.03714191913604736,0.05374355614185333,0.6897356507141054,-0.6211432571019299,-0.03134784658488094,0.37076009464881066
1728064361139725000,3.88872509765625,0.2315688282251358,0.24533474445343018,-0.4201679825782776,0.41414180397987366,0.8812755346298218,-0.22768396139144897,-0.04013368487358093,-0.0022930502891540527,0.024925172328948975,0.6911049262178903,-0.620601929414483,-0.03180042097863766,0.3690744645724006
1728064361149756000,3.898755859375,0.2049863487482071,0.35585954785346985,-0.43924182653427124,0.4110460877418518,0.8825685977935791,-0.22828435897827148,-0.09726440906524658,0.009475469589233398,0.059201717376708984,0.6926262010070764,-0.6203680517853609,-0.03164336798535952,0.36662118278372996
1728064361159786000,3.908785888671875,0.20355969667434692,0.2753055691719055,-0.40057963132858276,0.40807902812957764,0.883805513381958,-0.22882162034511566,-0.0815562903881073,0.03608584403991699,0.04931725561618805,0.694105946596207,-0.6201626359770788,-0.03142441318391891,0.36418090020160165
1728064361169816000,3.918816162109375,0.10067718476057053,0.1238265261054039,-0.3267996907234192,0.40529611706733704,0.8849655389785767,-0.22928327322006226,-0.022621065378189087,0.04266190528869629,-0.013911277055740356,0.6952573105391981,-0.6199680187581865,-0.03159146577736836,0.36229651241080574
1728064361179847000,3.928846923828125,0.1938721239566803,-0.003908798564225435,-0.3155694007873535,0.4026600122451782,0.885901689529419,-0.2303110510110855,0.01210436224937439,0.051796793937683105,-0.039281219244003296,0.6962663752962853,-0.6195265578503015,-0.03211414955213601,0.3610660625295159
1728064361189876700,3.938876708984375,0.19105616211891174,0.08368213474750519,-0.3963433504104614,0.39955660700798035,0.8868735432624817,-0.23196929693222046,0.028452366590499878,0.02338951826095581,-0.13137298822402954,0.6975320753038127,-0.6188229040262887,-0.03276534388821967,0.35976880298950153
1728064361199908000,3.948908203125,0.1312229186296463,0.2265002727508545,-0.39588022232055664,0.39630866050720215,0.888129472732544,-0.23273500800132751,-0.017234623432159424,0.023033857345581055,-0.1277080774307251,0.6987938405627451,-0.6184924850793602,-0.033159368813148155,0.35784734765220616
1728064361209938000,3.95893798828125,0.16353271901607513,0.19703534245491028,-0.25227564573287964,0.3939191699028015,0.8891153931617737,-0.23302628099918365,-0.049207985401153564,0.07470589876174927,0.029168933629989624,0.6998283705300453,-0.6183754152303995,-0.033146760476871664,0.356024233488207
1728064361219967700,3.9689677734375,0.3692840337753296,0.03996981680393219,-0.15345452725887299,0.3925067186355591,0.8892514705657959,-0.23488327860832214,-0.010655641555786133,0.08995074033737183,0.05298331379890442,0.7009986879895678,-0.6176403409826715,-0.03284466302505345,0.35502446015445505
1728064361229998800,3.978998779296875,0.48002979159355164,0.011828032322227955,-0.26026034355163574,0.39078283309936523,0.8889865875244141,-0.23872913420200348,0.01244586706161499,0.03705406188964844,-0.02958136796951294,0.7027006274938781,-0.6160928907317544,-0.032634029992572575,0.3543676116480588
1728064361240029000,3.98902880859375,0.4107324779033661,0.21620620787143707,-0.36411669850349426,0.3881702423095703,0.8891689777374268,-0.24228551983833313,-0.06230360269546509,-0.002663910388946533,-0.023217380046844482,0.7046636423844835,-0.6146572508472743,-0.032460804818953526,0.35297568785274147
1728064361250059800,3.999059814453125,0.42116472125053406,0.38945886492729187,-0.32149067521095276,0.3858102262020111,0.8895302414894104,-0.2447168081998825,-0.13542881608009338,0.0161094069480896,0.0649988055229187,0.7065912002409729,-0.613706792983354,-0.03171066372333303,0.35083788573842106
1728064361260089900,4.00908984375,0.398299902677536,0.3669050931930542,-0.21377965807914734,0.38439568877220154,0.889559805393219,-0.24682608246803284,-0.09899535775184631,0.02959907054901123,0.08937066793441772,0.7083670819003969,-0.6129117651736968,-0.030432359488053704,0.3487534948052379
1728064361270120000,4.019119873046875,0.46761342883110046,0.15190589427947998,-0.22971148788928986,0.3831957280635834,0.8892780542373657,-0.24969041347503662,-0.025407761335372925,0.04179787635803223,0.04459705948829651,0.7101142333082666,-0.6117947798500513,-0.029358816540561664,0.347250387672377
1728064361280150800,4.02915087890625,0.32910510897636414,0.03256990388035774,-0.33457452058792114,0.3808462619781494,0.8893676400184631,-0.2529449462890625,0.008115440607070923,0.02698361873626709,0.010894864797592163,0.7118383717597513,-0.6104676332007563,-0.029270948689573806,0.34606144541994255
1728064361290180900,4.039180908203125,0.30876579880714417,0.1039682924747467,-0.2975645661354065,0.3780536353588104,0.8898370862007141,-0.2554706633090973,-0.0092335045337677,0.009470105171203613,-0.007178813219070435,0.7133752419587919,-0.6094208743910812,-0.02951040494302386,0.3447187509034589
1728064361300212000,4.0492119140625,0.3994360566139221,0.18040020763874054,-0.23535871505737305,0.3761887848377228,0.8898231387138367,-0.25825726985931396,0.0034956037998199463,-0.00195997953414917,-0.053830742835998535,0.714981426671202,-0.6082967942985293,-0.02909256148219843,0.3434097217156347
1728064361310242000,4.059241943359375,0.21068838238716125,0.19340576231479645,-0.2500079572200775,0.3744947612285614,0.8899442553520203,-0.2602936029434204,0.048204123973846436,-0.02889084815979004,-0.0757506787776947,0.7163731637898693,-0.6074816485969352,-0.028622521452999653,0.3419885719620012
1728064361320272000,4.06927197265625,0.17632189393043518,0.02865889109671116,-0.1870364546775818,0.3728429973125458,0.8903181552886963,-0.2613843083381653,0.026174277067184448,0.02339339256286621,0.04548770189285278,0.7172988667844445,-0.6070357701771336,-0.02855564871496178,0.340843893418438
1728064361330303000,4.079302978515625,0.26128971576690674,-0.09914961457252502,-0.13818210363388062,0.37132740020751953,0.8903185129165649,-0.2635318636894226,0.03968328237533569,0.08087289333343506,0.07532995939254761,0.7182369410399227,-0.6061386538313823,-0.028809716637895347,0.3404433944988249
1728064361340333000,4.0893330078125,0.28114891052246094,-0.08550304919481277,-0.14773406088352203,0.3698108494281769,0.8901216983795166,-0.2663140296936035,0.04800522327423096,0.09684723615646362,0.01617678999900818,0.7192756295027443,-0.6049740141250867,-0.029144837897460273,0.34029328812640514
1728064361350364000,4.099364013671875,0.27794331312179565,0.04732908681035042,-0.20562052726745605,0.36819082498550415,0.8899871110916138,-0.26899516582489014,-0.017299771308898926,0.09205329418182373,0.08082377910614014,0.720448729092598,-0.6038591950416393,-0.02926582595341894,0.3397810936725275
1728064361360394000,4.10939404296875,0.19609878957271576,0.2129763662815094,-0.2500433921813965,0.3665092885494232,0.8902098536491394,-0.2705502212047577,-0.04360288381576538,0.035189926624298096,0.005733966827392578,0.7215657860658544,-0.603225000879256,-0.029060182513438008,0.3385527531116404
1728064361370423800,4.119423828125,0.07053952664136887,0.15720462799072266,-0.2701587975025177,0.3647158741950989,0.8907924890518188,-0.27105513215065,-0.01545754075050354,-0.018676459789276123,-0.0976887047290802,0.7224504772282325,-0.6030231795598859,-0.028904583221324658,0.33703525359500447
