time,seconds_elapsed,rotationRateX,rotationRateY,rotationRateZ,gravityX,gravityY,gravityZ,accelerationX,accelerationY,accelerationZ,quaternionW,quaternionX,quaternionY,quaternionZ
1728064476915818500,0.110818603515625,-0.07354294508695602,0.06960035860538483,-0.01882375031709671,0.11946552991867065,-0.10259928554296494,-0.9875228404998779,-0.033054932951927185,-0.00018396973609924316,0.0002487301826477051,0.9968757157838202,0.051460420500985996,0.05991997091296016,-1.3945846574254095e-17
1728064476925848600,0.1208486328125,-0.052050840109586716,0.05611959472298622,-0.026561032980680466,0.11996914446353912,-0.10218814760446548,-0.9875044226646423,-0.03386371582746506,0.005004853010177612,-0.011564791202545166,0.9968710972799859,0.05125901005590725,0.06016895968210862,-0.00007562162362647861
1728064476935879400,0.13087939453125,-0.04812907055020332,0.05094507336616516,-0.0060946401208639145,0.12064715474843979,-0.10199369490146637,-0.987441897392273,-0.007075905799865723,0.017383642494678497,-0.016906797885894775,0.9968554871672675,0.051164875218169814,0.060507808824137935,-0.00011800677509083867
1728064476945909500,0.140909423828125,-0.05099782347679138,0.04910733550786972,0.008995363488793373,0.12130726128816605,-0.1016535833477974,-0.9873961210250854,0.017074771225452423,0.02281136065721512,-0.008560240268707275,0.9968440655927353,0.050992242854515216,0.060841852011958575,-0.00007433334522937468
1728064476955940600,0.150940673828125,-0.0587066113948822,0.03881581500172615,0.012852951884269714,0.1216621994972229,-0.1012851670384407,-0.9873902797698975,0.022930167615413666,0.01893342286348343,-0.009573161602020264,0.9968424977362982,0.05080186467294645,0.06102472253685627,0.000018457417143782257
1728064476965970400,0.160970458984375,-0.06553255766630173,0.03390031307935715,0.016298549249768257,0.12181611359119415,-0.10094945132732391,-0.9874057173728943,0.01532994955778122,0.016247853636741638,-0.008062362670898438,0.9968463794176777,0.05062626745977438,0.06110749168497497,0.00013280338560296945
1728064476976001500,0.17100146484375,-0.06971664726734161,0.017214542254805565,0.016123846173286438,0.12155259400606155,-0.10062076151371002,-0.9874717593193054,0.010481782257556915,0.01233334094285965,-0.00528031587600708,0.9968629073584651,0.050452675237736104,0.06098082058986407,0.00026206908307148646
1728064476986031600,0.181031494140625,-0.07794035971164703,0.009171316400170326,0.007636351976543665,0.12087716907262802,-0.1002325713634491,-0.9875941276550293,0.011019885540008545,0.009198568761348724,-0.0014195442199707031,0.9968935735043064,0.05024964944129785,0.060645811518608206,0.000374848123185368
1728064476996062500,0.1910625,-0.09147614240646362,0.007475682068616152,0.00303307780995965,0.11970324069261551,-0.09952311217784882,-0.9878088235855103,0.007478855550289154,0.005284763872623444,0.002945542335510254,0.99694745106969,0.0498861519124912,0.06005794505340887,0.0004609798231876112
1728064477006092500,0.201092529296875,-0.11087033897638321,0.011623555794358253,-0.002469811588525772,0.1185578852891922,-0.098423071205616,-0.9880571365356445,0.0025206804275512695,0.004779823124408722,0.00034052133560180664,0.9970096593682951,0.04932812679594264,0.05948245279852722,0.0005197494695493968
1728064477016122600,0.21112255859375,-0.11732318252325058,0.00943363830447197,0.0060981097631156445,0.11841850727796555,-0.09677218645811081,-0.9882369041442871,0.0028431564569473267,0.007141999900341034,-0.0015243887901306152,0.9970546325514485,0.048495970900754075,0.05941114824296712,0.0005547982085328122
1728064477026153500,0.221153564453125,-0.1095343753695488,0.014066685922443867,0.002833873499184847,0.11919312924146652,-0.0950440913438797,-0.9883114695549011,0.004784613847732544,0.007870562374591827,0.0022428035736083984,0.9970733105699313,0.047626869656547784,0.05979910643982914,0.0005780080544759252
1728064477036183600,0.23118359375,-0.10191000998020172,0.029295172542333603,-0.00468289852142334,0.12021636217832565,-0.09354711323976517,-0.9883303642272949,-0.00017539411783218384,0.001444995403289795,-0.0006069540977478027,0.9970780704701374,0.04687627933798346,0.06031102422487503,0.0005678174620205799
1728064477046214700,0.241214599609375,-0.09009376168251038,0.0371956005692482,-0.002294309437274933,0.12108474224805832,-0.0922917053103447,-0.9883424043655396,-0.01586005836725235,-0.0013820677995681763,-0.005065739154815674,0.9970811325811798,0.04624696811284981,0.06074546534423434,0.0005575992124108607
1728064477056244700,0.25124462890625,-0.08314717561006546,0.034941501915454865,-0.0012527471408247948,0.12179172039031982,-0.09128140658140182,-0.9883493781089783,-0.015102192759513855,0.007708951830863953,-0.008614063262939453,0.997082816265604,0.04573905507394775,0.06110035906155288,0.0005740652498842118
1728064477066275600,0.261275634765625,-0.06497875601053238,0.028679290786385536,-0.0015776525251567364,0.12241733819246292,-0.09055669605731964,-0.9883387684822083,-0.000331684947013855,0.011088848114013672,-0.006427466869354248,0.9970801778588875,0.045374949116916384,0.06141449924297097,0.0005842941373012501
1728064477076305700,0.2713056640625,-0.05576688051223755,0.017604002729058266,-0.003335072658956051,0.1228143647313118,-0.0900779739022255,-0.9883332252502441,0.006824381649494171,0.009343661367893219,-0.005334317684173584,0.9970788248308994,0.045133723314112396,0.061614348960915756,0.0006022230968633165
1728064477086336500,0.28133642578125,-0.04358311742544174,0.010128669440746307,-0.014089183881878853,0.122905433177948,-0.08971906453371048,-0.9883545637130737,0.006748564541339874,0.017956919968128204,-0.003161489963531494,0.9970841567652067,0.044954097055796734,0.0616591268563398,0.000592210225521516
1728064477096366600,0.29136669921875,-0.050527043640613556,0.012775052338838577,-0.009139432571828365,0.1229703351855278,-0.08923909068107605,-0.9883899688720703,0.006409019231796265,0.022756479680538177,-0.0013408660888671875,0.9970930448489608,0.044715182309411815,0.06168939018332181,0.0005567642985098223
1728064477106396700,0.301396728515625,-0.05396252125501633,0.005167946219444275,-0.008181227371096611,0.12309896945953369,-0.08867166936397552,-0.9884250164031982,0.008889630436897278,0.020098604261875153,-0.0013363361358642578,0.9971018733622167,0.0444317112731839,0.06175211657031556,0.0005326219045769599
1728064477116427800,0.311427734375,-0.06347586959600449,0.012370731681585312,-0.01804664172232151,0.12308982759714127,-0.08820722997188568,-0.9884676933288574,0.013140715658664703,0.015651628375053406,0.0024905800819396973,0.9971126505762891,0.044200428545878225,0.06174524753577944,0.0004989461756824703
1728064477126457300,0.321457275390625,-0.06595394015312195,0.02762547880411148,-0.01232963241636753,0.12273667007684708,-0.0877007469534874,-0.9885566830635071,0.009297706186771393,0.014168575406074524,-0.00344771146774292,0.9971349639213368,0.04394732140042113,0.06156539853624114,0.00047044224699536866
1728064477136488700,0.33148876953125,-0.07384514808654785,0.04272346943616867,-0.0177928414195776,0.1225622370839119,-0.08687188476324081,-0.9886515140533447,-0.0012700483202934265,0.009937003254890442,-0.0019185543060302734,0.9971586572091385,0.04353277258755011,0.06147481301091757,0.00043697319922601633
1728064477146518500,0.3415185546875,-0.07776951044797897,0.052188772708177567,-0.020599281415343285,0.12299077212810516,-0.08585793524980545,-0.9886868596076965,-0.007771573960781097,-0.002566814422607422,0.002831757068634033,0.9971676400434717,0.04302911197789278,0.06168525887482604,0.0003522533731643345
1728064477156549400,0.35154931640625,-0.08474646508693695,0.041394978761672974,-0.009684314951300621,0.1236536055803299,-0.08485834300518036,-0.9886904954910278,-0.008998990058898926,-0.007960937917232513,0.016186833381652832,0.9971685787496538,0.04253165272255559,0.062014699805410425,0.00028932676448638973
1728064477166579500,0.361579345703125,-0.09344901144504547,0.02777829021215439,-0.00781557522714138,0.12415161728858948,-0.08360172808170319,-0.9887351393699646,-0.005148239433765411,-0.004792504012584686,0.0281180739402771,0.9971797038298122,0.04190226550517314,0.06226269760630921,0.000269425734474144
1728064477176610600,0.371610595703125,-0.10674431174993515,0.024331627413630486,-0.003566501662135124,0.12456806004047394,-0.08209419995546341,-0.9888090491294861,0.0016069337725639343,0.000932641327381134,0.02924489974975586,0.9971982782913382,0.04114601755011866,0.062469828399128076,0.00026189164768831665
1728064477186640400,0.381640380859375,-0.11027759313583374,0.026688259094953537,0.011827901005744934,0.12502489984035492,-0.08062620460987091,-0.9888721704483032,0.005147889256477356,0.0014635473489761353,0.029048621654510498,0.9972141025733429,0.040406995791031894,0.0626991611830915,0.0002978719015090683
1728064477196670500,0.39167041015625,-0.11315274238586426,0.04294499009847641,0.013158682733774185,0.12569068372249603,-0.07931589335203171,-0.9888937473297119,0.0073202550411224365,-0.009154625236988068,0.02751380205154419,0.9972194877292336,0.03974353432892911,0.06303632416452502,0.0003953387355766722
1728064477206701600,0.40170166015625,-0.12519283592700958,0.06570388376712799,-0.0031028450466692448,0.12638938426971436,-0.07800489664077759,-0.9889089465141296,0.0009758025407791138,-0.016279228031635284,0.018251657485961914,0.9972231958217294,0.03908223130862782,0.06338843040428739,0.00045339011533567923
1728064477216731600,0.411731689453125,-0.14664804935455322,0.09274562448263168,-0.009353283792734146,0.12703177332878113,-0.0766354575753212,-0.9889337420463562,-0.01783980429172516,-0.016427963972091675,0.0171167254447937,0.9972294265291661,0.03839346007794055,0.06371086841189584,0.00048094541230351374
1728064477226762500,0.421762451171875,-0.1493433564901352,0.0952662006020546,-0.009403618052601814,0.12766990065574646,-0.07547905296087265,-0.9889404773712158,-0.024108409881591797,-0.01845412701368332,0.023043930530548096,0.9972310867492739,0.03781135483586473,0.06403165340347196,0.0005133003553878847
1728064477236792600,0.43179248046875,-0.1611448973417282,0.09428296238183975,-0.006843787617981434,0.12835247814655304,-0.07436807453632355,-0.9889363050460815,-0.01287388801574707,-0.016955852508544922,0.025160670280456543,0.9972300063970737,0.0372517502753933,0.06437508355345399,0.0005510267210619369
1728064477246823400,0.441823486328125,-0.17671619355678558,0.09815626591444016,-0.0005579283460974693,0.12917795777320862,-0.07303743064403534,-0.9889280200004578,0.003237888216972351,-0.00752905011177063,0.020361125469207764,0.9972278798063343,0.036580542867764895,0.06479093398758054,0.0006108360427185749
1728064477256853500,0.451853515625,-0.19253404438495636,0.1128356084227562,0.00480621075257659,0.1302318423986435,-0.07140878587961197,-0.9889087080955505,0.010316923260688782,-0.0021386370062828064,0.024339675903320312,0.9972229843184438,0.03575810674404063,0.0653222764489622,0.0006978819572919353
1728064477266884600,0.461884521484375,-0.20643147826194763,0.12355589866638184,0.012563733384013176,0.13146579265594482,-0.06960936635732651,-0.9888737201690674,0.008945673704147339,-0.009950026869773865,0.03352099657058716,0.9972141363043943,0.0348474309256171,0.06594532068863201,0.0008239074315599682
1728064477276914700,0.471914794921875,-0.23823176324367523,0.13675931096076965,0.005152687896043062,0.13280177116394043,-0.06773693859577179,-0.988825261592865,0.009257614612579346,-0.022991880774497986,0.047007083892822266,0.997201886676776,0.033897876557603575,0.06662059712674215,0.00098234819802053
1728064477286944500,0.481944580078125,-0.26386934518814087,0.1924305260181427,-0.019887417554855347,0.1343085616827011,-0.0655435174703598,-0.9887695908546448,0.008452743291854858,-0.04273291677236557,0.07019048929214478,0.9971877517432511,0.032791241902677674,0.06737916535869742,0.0010794752134557245
1728064477296975600,0.4919755859375,-0.34664785861968994,0.18717530369758606,-0.054890941828489304,0.1360410898923874,-0.06276079267263412,-0.988713264465332,0.001104980707168579,-0.05770740658044815,0.0989885926246643,0.9971736997724093,0.031398698156282615,0.06824583281978058,0.0010321462249309123
1728064477307005700,0.502005615234375,-0.3099885582923889,-0.06887783855199814,-0.18733152747154236,0.13716371357440948,-0.05926896259188652,-0.9887736439704895,-0.01014949381351471,-0.06711965799331665,0.12372243404388428,0.9971891565877088,0.029666989975453428,0.06879717324516472,0.0007395613265695927
1728064477317036500,0.51203662109375,-0.40020713210105896,0.34052565693855286,-0.09680696576833725,0.13867157697677612,-0.05567023903131485,-0.988772451877594,-0.003341302275657654,-0.08278807997703552,0.16800224781036377,0.9971891507796949,0.02790631781852932,0.06953414649975503,0.00010416203030147209
1728064477327066600,0.522066650390625,-0.519403874874115,0.3602372407913208,0.11647041887044907,0.1421024203300476,-0.05119309946894646,-0.9885272979736328,-0.027020558714866638,-0.06954976916313171,0.1707782745361328,0.9971276243795528,0.025647283797095227,0.07126415867454364,0.00032182377051435387
1728064477337097700,0.53209765625,-0.6958885788917542,0.4193035066127777,0.3880625069141388,0.1459086835384369,-0.045588504523038864,-0.9882470965385437,-0.01012064516544342,-0.0986071228981018,0.21816658973693848,0.997055671447092,0.022726419406006833,0.07321172677662645,0.0018405160504411887
1728064477347127600,0.54212744140625,-0.8933227062225342,0.44551119208335876,0.5934489369392395,0.14997409284114838,-0.038391973823308945,-0.9879442453384399,0.0354965478181839,-0.17628400027751923,0.2735278010368347,0.9969704824964145,0.01890224988507498,0.07530328558848584,0.004661185519719194
1728064477357158700,0.55215869140625,-1.0274193286895752,0.5641731023788452,0.7242940664291382,0.15468710660934448,-0.02983531355857849,-0.9875128865242004,0.020224466919898987,-0.19488094747066498,0.3024543523788452,0.9968379330537837,0.014310993717683502,0.07770933489783254,0.008389156995960542
1728064477367188500,0.5621884765625,-1.0770350694656372,0.7097893953323364,0.7929338216781616,0.16080649197101593,-0.02056937664747238,-0.9867715835571289,-0.025735631585121155,-0.17819169163703918,0.2927256226539612,0.9966067691844953,0.009292706318777058,0.08079512205079584,0.012668018571152233
1728064477377218600,0.572218505859375,-1.1547640562057495,0.8981140851974487,0.815460741519928,0.16853326559066772,-0.010988589376211166,-0.9856346845626831,-0.06178271770477295,-0.147748664021492,0.23964780569076538,0.9962530237309329,0.004050166640924827,0.08465364879107751,0.017238526297494932
1728064477387249400,0.58224951171875,-1.1955982446670532,1.1319310665130615,0.6205130815505981,0.1784856915473938,-0.00045674675493501127,-0.9839423894882202,-0.08147023618221283,-0.13198962807655334,0.1895851492881775,0.9957469830497226,-0.0016981983319514463,0.08958747685451696,0.02142430294286047
1728064477397279500,0.592279541015625,-0.972349226474762,1.1299264430999756,0.6518984436988831,0.18968839943408966,0.009060640819370747,-0.9818025231361389,-0.10043968260288239,-0.12046514451503754,0.16979080438613892,0.9951278707650838,-0.006936238357791777,0.09513475837163722,0.0249343516088714
1728064477407310600,0.602310546875,-0.955895185470581,1.2299377918243408,1.1407097578048706,0.20205484330654144,0.016556257382035255,-0.9792342782020569,-0.10792329907417297,-0.16217096149921417,0.13116604089736938,0.9943441304080335,-0.011374983899896869,0.10125947280682673,0.029948011856668382
1728064477417340400,0.61234033203125,-1.0244245529174805,0.8174876570701599,1.0865737199783325,0.2121247947216034,0.023891782388091087,-0.976950466632843,0.027148336172103882,-0.1939510703086853,0.10098922252655029,0.993564520462085,-0.01588323320633252,0.10617192955541338,0.03612184393482602
1728064477427371500,0.62237158203125,-1.1886838674545288,0.6875267028808594,0.7064178586006165,0.21952374279499054,0.03275597468018532,-0.9750571250915527,0.16605067253112793,-0.23789522051811218,0.15141820907592773,0.9928948671832487,-0.021033980926451215,0.10967686571236594,0.04108928768122642
1728064477437401600,0.632401611328125,-1.4365453720092773,1.124003291130066,1.499273419380188,0.22866035997867584,0.043296173214912415,-0.9725430011749268,-0.05396242439746857,-0.36537879705429077,0.17856717109680176,0.992021340866541,-0.027168330241696015,0.11397536336355332,0.046531778174966454
1728064477447432400,0.642432373046875,-1.6190265417099,0.7624287605285645,2.033358573913574,0.2384958118200302,0.053897205740213394,-0.9696467518806458,-0.10069364309310913,-0.29114094376564026,0.13836324214935303,0.9907715184467495,-0.033955667654418036,0.11842142879107753,0.056524440078390824
1728064477457462500,0.652462646484375,-1.7160204648971558,0.7005416750907898,1.7739225625991821,0.24679087102413177,0.0654510110616684,-0.9668559432029724,0.3355150818824768,-0.15669867396354675,0.1259441375732422,0.9894167585027066,-0.041325315586214204,0.12191901115711362,0.06694981616960631
1728064477467493600,0.66249365234375,-1.8072690963745117,0.5914902687072754,1.473183274269104,0.2541094124317169,0.07840228080749512,-0.9639924764633179,0.21963027119636536,-0.20680509507656097,0.14509904384613037,0.9880449082212795,-0.04926503952949514,0.12480673655490739,0.07591680924446395
1728064477477523500,0.6725234375,-1.9065057039260864,0.608782172203064,1.3906673192977905,0.2610706686973572,0.09275390952825546,-0.9608531594276428,-0.08278694748878479,-0.2981830835342407,0.07373768091201782,0.9866031344372295,-0.05784087782448904,0.12738858469210565,0.0839088910166564
1728064477487553500,0.682553466796875,-1.9377312660217285,0.6879851222038269,1.592801570892334,0.26876595616340637,0.10728476196527481,-0.9572120308876038,-0.0785345733165741,-0.30226168036460876,0.06074291467666626,0.9849330815104358,-0.06665896532708532,0.13019439297179455,0.09226386604143871
1728064477497582800,0.692582763671875,-2.030402660369873,0.7331571578979492,1.8016465902328491,0.2775926887989044,0.12157644331455231,-0.9529750347137451,-0.02042105793952942,-0.28592896461486816,0.019900143146514893,0.9829223454266617,-0.07564992875146277,0.13337752203347425,0.10173967094608088
1728064477507612700,0.70261279296875,-2.110780954360962,0.6774579286575317,1.823754906654358,0.2867724299430847,0.13621759414672852,-0.9482648968696594,0.04620492458343506,-0.23062384128570557,-0.004783809185028076,0.980624587990199,-0.08502466249019691,0.13652234219865284,0.11183866104987825
1728064477517643800,0.712643798828125,-2.205831527709961,0.6367421746253967,1.7514833211898804,0.2955421209335327,0.1514253318309784,-0.943252444267273,0.07123342156410217,-0.17376433312892914,-0.017608702182769775,0.9781566056148301,-0.09474603873688044,0.13927294090849862,0.12180254279225707
1728064477527673600,0.722673583984375,-2.3956949710845947,0.6106738448143005,1.7361022233963013,0.30417540669441223,0.16784730553627014,-0.9377124309539795,0.06604862213134766,-0.1382301151752472,-0.04898190498352051,0.9754619525419355,-0.10516088551731442,0.141721466861387,0.13164405978356952
1728064477537704700,0.73270458984375,-2.5999693870544434,0.5057200193405151,1.7598038911819458,0.31266069412231445,0.18594907224178314,-0.9314860105514526,0.07437852025032043,-0.10310924053192139,-0.03257954120635986,0.9724588073096064,-0.11655196465002866,0.14377977842550774,0.14165724304667437
1728064477547734800,0.74273486328125,-2.665207862854004,0.40372738242149353,1.8329864740371704,0.32036763429641724,0.20481593906879425,-0.9248864650726318,0.10474225878715515,-0.0743534117937088,0.005010366439819336,0.9691923087322379,-0.12842707478262497,0.14513184294299797,0.15201740470215813
1728064477557765600,0.752765625,-2.656169891357422,0.1969803124666214,1.8778537511825562,0.32720813155174255,0.22341212630271912,-0.9181622266769409,0.11805862188339233,-0.04058144986629486,-0.007954716682434082,0.965703790613685,-0.14024504444426786,0.14577456098904212,0.16277948090854155
1728064477567795700,0.762795654296875,-2.542243242263794,0.1089397743344307,1.8721388578414917,0.33289778232574463,0.24107955396175385,-0.9116247892379761,0.13434162735939026,0.01058351993560791,-0.0307886004447937,0.962109195244343,-0.15157595492566597,0.1456445859871076,0.173661388673952
1728064477577825800,0.77282568359375,-2.4485344886779785,0.13285496830940247,1.8244973421096802,0.3386107385158539,0.2575422525405884,-0.9049943089485168,0.1218690276145935,0.05874177813529968,-0.035587966442108154,0.9584016324205872,-0.16232704745983495,0.14543989713020686,0.18429176900970629
1728064477587857000,0.78285693359375,-2.4179229736328125,0.2487848550081253,1.8085309267044067,0.3451077938079834,0.2732778489589691,-0.8978974223136902,0.07809475064277649,0.09874656796455383,-0.06381827592849731,0.9545073904409893,-0.17282251492194428,0.14554606381656035,0.194587472683819
1728064477597886700,0.79288671875,-2.4649128913879395,0.3397400975227356,1.8665376901626587,0.35298874974250793,0.2887294888496399,-0.8899630308151245,0.030510395765304565,0.11521631479263306,-0.07279026508331299,0.9502682593152771,-0.1834359899734156,0.14618385586133587,0.20486980004663427
1728064477607917800,0.802917724609375,-2.6053977012634277,0.3523420989513397,1.8979095220565796,0.36172544956207275,0.30441996455192566,-0.8811827898025513,0.011809706687927246,0.0949634313583374,-0.06771552562713623,0.9456263584559739,-0.19443650304070065,0.14697972254686592,0.21536506547530787
1728064477617948000,0.812947998046875,-2.8407676219940186,0.3135843276977539,1.8733404874801636,0.3706478774547577,0.32139158248901367,-0.8713940382003784,0.01283600926399231,0.04718431830406189,-0.03754150867462158,0.9405479783797688,-0.20628624262108242,0.14747529102797635,0.2259789501938543
1728064477627978800,0.822978759765625,-3.07502818107605,0.2119874358177185,1.7662585973739624,0.3790089786052704,0.34023094177246094,-0.8605783581733704,0.005482017993927002,0.002755969762802124,0.001050710678100586,0.9350777308447332,-0.21916153397199387,0.14723805844850424,0.2364714803552465
1728064477638008800,0.8330087890625,-3.264634609222412,0.07777024060487747,1.6558952331542969,0.3862708508968353,0.36088287830352783,-0.8488571047782898,-0.017893165349960327,-0.02926376461982727,0.07815086841583252,0.9293008674164476,-0.23292029767305564,0.14601231895603034,0.2466339296074959
1728064477648040000,0.8430400390625,-3.293426275253296,-0.0462019257247448,1.6039454936981201,0.3924749791622162,0.38238054513931274,-0.8365097045898438,-0.025226444005966187,-0.010935992002487183,0.11750024557113647,0.9232735755130201,-0.2470629284508743,0.14389251573548195,0.2565554151388757
1728064477658069800,0.85306982421875,-3.0436344146728516,-0.12712420523166656,1.5889487266540527,0.3979831039905548,0.40253153443336487,-0.8243650794029236,-0.01289704442024231,0.050639063119888306,0.08812844753265381,0.9171989170407567,-0.2604709504763972,0.14132352103690343,0.2663243918871523
1728064477668099800,0.863099853515625,-2.70119047164917,-0.11477524042129517,1.5642063617706299,0.4034910500049591,0.4197937846183777,-0.8129994869232178,0.00022596120834350586,0.140386700630188,0.015224099159240723,0.9112984609946801,-0.2723761112844619,0.13896590642042456,0.27574412906063267
1728064477678131000,0.873130859375,-2.262613534927368,-0.06867485493421555,1.5157344341278076,0.4093315303325653,0.43364351987838745,-0.8027458786964417,0.011322766542434692,0.2441059648990631,-0.034915924072265625,0.9057417509008949,-0.28249698904809095,0.13719517756941962,0.2846131816058589
1728064477688161000,0.8831611328125,-1.8506525754928589,-0.03234747052192688,1.4698233604431152,0.415514200925827,0.44389092922210693,-0.7939198613166809,0.018201619386672974,0.30818411707878113,-0.08585619926452637,0.9006675618308531,-0.2906925720166477,0.1361539392273294,0.29284431825959434
1728064477698192000,0.89319189453125,-1.642777442932129,-0.01978161185979843,1.3843867778778076,0.42162489891052246,0.45166322588920593,-0.7862777709960938,0.01811811327934265,0.31243574619293213,-0.09880834817886353,0.8960183386439587,-0.29748432197549934,0.135514563335275,0.3004827938324222
1728064477708222000,0.903221923828125,-1.6620867252349854,-0.01746700517833233,1.3477734327316284,0.42776504158973694,0.4587140679359436,-0.7788442969322205,-0.0009614825248718262,0.27534031867980957,-0.062494874000549316,0.8914754273675184,-0.303885864755246,0.13502311737947129,0.3077232014980552
1728064477718252800,0.913252685546875,-1.8314487934112549,-0.0734596997499466,1.3586649894714355,0.43370047211647034,0.4664195477962494,-0.7709453105926514,0.0010071396827697754,0.22394898533821106,-0.017125427722930908,0.8867059849520996,-0.3106774357429629,0.13418970763315924,0.3150000882583924
1728064477728282600,0.92328271484375,-2.0074949264526367,-0.1608532965183258,1.3921574354171753,0.43936583399772644,0.47516316175460815,-0.7623500227928162,0.01008179783821106,0.17028343677520752,-0.016779065132141113,0.8815467089075326,-0.31810030001197637,0.1328050308486135,0.32256829711071405
1728064477738314000,0.93331396484375,-2.0713860988616943,-0.29771047830581665,1.371718406677246,0.444311261177063,0.48456913232803345,-0.753511905670166,0.014077961444854736,0.11102697253227234,0.00032275915145874023,0.8761136698035872,-0.32583141052779163,0.13068261627547983,0.3304248844388581
1728064477748343800,0.94334375,-2.105397939682007,-0.38953715562820435,1.2174731492996216,0.44810500741004944,0.4943991005420685,-0.7448297739028931,0.010406315326690674,0.04167249798774719,0.011919558048248291,0.870706920153007,-0.33353565716714806,0.12782445332176526,0.33805940591712674
1728064477758374700,0.953374755859375,-2.2301995754241943,-0.404956579208374,0.9519479870796204,0.4505082070827484,0.5058985352516174,-0.7356011271476746,-0.023414701223373413,0.022757232189178467,-0.012766242027282715,0.8654012941035335,-0.3417471023359172,0.12413040911035451,0.34479147053262527
1728064477768404700,0.96340478515625,-2.219486951828003,-0.39659950137138367,0.8143810629844666,0.4520402252674103,0.5181524753570557,-0.7260700464248657,-0.06449753046035767,0.059194207191467285,0.014186382293701172,0.8602750022088494,-0.3500817994643551,0.12003217100131358,0.3506593012134824
1728064477778434800,0.973434814453125,-2.3159122467041016,-0.34533819556236267,0.7862732410430908,0.4535576403141022,0.5308974981307983,-0.715844452381134,-0.03792351484298706,0.09646743535995483,-0.03217196464538574,0.8550592656674683,-0.35868839014506054,0.115846491940372,0.3560840381170814
1728064477788465700,0.983465576171875,-2.471038579940796,-0.27452272176742554,0.826225757598877,0.4557186961174011,0.5442537069320679,-0.7043495774269104,-0.02169772982597351,0.1419796347618103,0.020832061767578125,0.8494288683960446,-0.3678962816988662,0.111702861365839,0.36144892741625767
1728064477798495700,0.993495849609375,-2.727370500564575,-0.2641254663467407,0.8475555181503296,0.45853686332702637,0.5585373640060425,-0.691216230392456,0.0019428431987762451,0.1481122374534607,0.036797165870666504,0.8431824777306147,-0.37795787673756653,0.10742309900231638,0.36694872606712825
1728064477808526800,1.00352685546875,-3.027775287628174,-0.36959537863731384,0.7880607843399048,0.46110403537750244,0.574481189250946,-0.6762798428535461,0.02150091528892517,0.09548628330230713,0.07824206352233887,0.8362739063958036,-0.3890777625528534,0.10236489243222928,0.3725397416409798
1728064477818556700,1.013556640625,-3.3036813735961914,-0.4932861626148224,0.6386827230453491,0.4624016284942627,0.5923945903778076,-0.6597373485565186,0.03180000185966492,0.017407476902008057,0.087563157081604,0.8288543152013983,-0.40114031983366216,0.09600919289011918,0.3779803984524049
1728064477828587800,1.023587890625,-3.5529749393463135,-0.5834656357765198,0.39161011576652527,0.4620656371116638,0.612290620803833,-0.6415570974349976,0.031647711992263794,-0.042725980281829834,0.06401181221008301,0.821101088865097,-0.41402932204163156,0.08832416823889792,0.382846661810446
1728064477838617900,1.033617919921875,-3.6520438194274902,-0.6469844579696655,0.19078300893306732,0.45995575189590454,0.6338674426078796,-0.6218140125274658,0.007100492715835571,-0.058458685874938965,0.10180962085723877,0.8131914515005954,-0.42752984346858797,0.07944321227860686,0.3868158796980694
1728064477848648700,1.043648681640625,-3.6433911323547363,-0.7215474247932434,0.1528358906507492,0.4568018317222595,0.6555619835853577,-0.6013073921203613,0.01652577519416809,-0.011305570602416992,0.09416615962982178,0.8051669655881282,-0.44097822844058887,0.06988933228058732,0.3903329478203517
1728064477858678800,1.0536787109375,-3.469805955886841,-0.7567765116691589,0.16631388664245605,0.4534793496131897,0.6759724020957947,-0.5808767676353455,0.06472435593605042,0.05580848455429077,0.04230237007141113,0.7970909393492298,-0.45379570129033475,0.060258513202595586,0.39380751068860814
1728064477868708900,1.063708984375,-3.2568156719207764,-0.7021313309669495,0.16199210286140442,0.45042771100997925,0.6944519877433777,-0.5611161589622498,0.07786205410957336,0.11083048582077026,0.023869335651397705,0.789219623401088,-0.465654732068082,0.05106453869426859,0.3971026383335713
1728064477878739700,1.07373974609375,-3.1057169437408447,-0.6090086102485657,0.15965358912944794,0.44795337319374084,0.711306631565094,-0.5416463017463684,0.05914193391799927,0.16529536247253418,0.027608036994934082,0.7815415280217521,-0.4768317817808224,0.042524162799983584,0.4000200713989525
1728064477888769800,1.083769775390625,-2.956693410873413,-0.5925255417823792,0.1919742375612259,0.44606128334999084,0.7266945838928223,-0.5224407315254211,0.04211312532424927,0.22491967678070068,0.09304302930831909,0.773975940040318,-0.4874284456505108,0.034541834474615486,0.40271776185116787
1728064477898801000,1.09380078125,-2.766080379486084,-0.7044925689697266,0.25534120202064514,0.44440385699272156,0.7404574751853943,-0.5042101144790649,0.041847944259643555,0.2857874631881714,0.1723160743713379,0.7665371356792808,-0.4971688047045346,0.026797645974294855,0.4056178413198975
1728064477908831000,1.1038310546875,-2.324101209640503,-0.8050311803817749,0.3310628831386566,0.44283801317214966,0.7519280314445496,-0.48836323618888855,0.060549408197402954,0.2999516725540161,0.1720026135444641,0.759562097721501,-0.505413207637158,0.019387533813353734,0.4089583802028093
1728064477918861800,1.11386181640625,-1.6375761032104492,-0.8185802698135376,0.3891315162181854,0.44162577390670776,0.7599247694015503,-0.4769495725631714,0.07253432273864746,0.20845884084701538,0.029561728239059448,0.7538222016377195,-0.5112271120685035,0.013117202581867087,0.41258540126767507
1728064477928892000,1.123891845703125,-1.2765331268310547,-0.7558533549308777,0.39134618639945984,0.44095802307128906,0.7648773193359375,-0.46959397196769714,0.06696119904518127,0.046264469623565674,-0.1351882517337799,0.7493875113676101,-0.5149126820329244,0.008242540691755389,0.4161912609363484
1728064477938923000,1.133923095703125,-1.4300748109817505,-0.5470356941223145,0.30814558267593384,0.44066813588142395,0.7695081830024719,-0.46224287152290344,0.041372209787368774,-0.07021337747573853,-0.1632913053035736,0.7452125852031385,-0.5185200183209879,0.003943944754798835,0.41926055488257713
1728064477948952800,1.143952880859375,-1.7670353651046753,-0.4722501337528229,0.20676331222057343,0.44031912088394165,0.7756990790367126,-0.4521172046661377,0.0029333829879760742,-0.1209140419960022,-0.05857938528060913,0.7405172242872232,-0.5233937226799211,-0.0006345047637839441,0.4215362510138392
1728064477958984000,1.15398388671875,-2.251108169555664,-0.4474845826625824,0.19790829718112946,0.4398152232170105,0.7837579846382141,-0.4385042190551758,-0.007396429777145386,-0.15259361267089844,0.037594616413116455,0.7348161782835129,-0.5298220682525331,-0.006039115035092872,0.42343508901622406
1728064477969013800,1.164013671875,-2.7615718841552734,-0.46252676844596863,0.2415338009595871,0.4396096169948578,0.7936317920684814,-0.4205852746963501,0.020442813634872437,-0.134177565574646,0.09862464666366577,0.7275968398507465,-0.5381006829940704,-0.012450742249652993,0.42531805635733305
1728064477979043800,1.1740439453125,-3.1618125438690186,-0.550476610660553,0.30043891072273254,0.4397790729999542,0.8045790791511536,-0.3990571200847626,0.0436650812625885,-0.06889206171035767,0.14002379775047302,0.7189144577282817,-0.5477942420390701,-0.019821938595327306,0.42742291259178794
1728064477989074700,1.18407470703125,-3.1885085105895996,-0.5819430351257324,0.2790957987308502,0.43995875120162964,0.815823495388031,-0.37532421946525574,0.06693819165229797,0.0021848082542419434,0.14252066612243652,0.7092344893824609,-0.5581693123301161,-0.028016297092936293,0.4297074312056067
1728064477999104800,1.194104736328125,-2.575089931488037,-0.5956692695617676,0.2002934217453003,0.43980926275253296,0.8253483772277832,-0.35407307744026184,0.07210782170295715,0.043959975242614746,0.0478748083114624,0.7004580656643006,-0.5671798696137351,-0.03564336863313782,0.43173484330584566
1728064478009135600,1.204135498046875,-1.9597002267837524,-0.5532270669937134,0.19432741403579712,0.4393770694732666,0.8323810696601868,-0.3377712666988373,0.04367035627365112,0.1348123550415039,-0.018475890159606934,0.6934250343495039,-0.5738853136775209,-0.042071580998194934,0.4336441823109704
1728064478019165700,1.214165771484375,-1.1895606517791748,-0.3930554986000061,0.2139815390110016,0.439580500125885,0.8367301225662231,-0.3265756368637085,0.024637579917907715,0.3056190013885498,-0.03482896089553833,0.6882786649810215,-0.578399261373968,-0.04654539758625075,0.4353851588950686
1728064478029196800,1.22419677734375,-0.3795296251773834,-0.3131828010082245,0.13930943608283997,0.44000205397605896,0.8384204506874084,-0.32163509726524353,-0.016708046197891235,0.3677561283111572,-0.13345849514007568,0.685552111132079,-0.580337848288793,-0.04889210866166806,0.4368474670633697
1728064478039227000,1.234226806640625,-0.09833338111639023,-0.31063973903656006,0.022364165633916855,0.4397023618221283,0.8387011289596558,-0.32131287455558777,-0.05460113286972046,0.25723063945770264,-0.19312211871147156,0.6847194083801855,-0.5803701409577927,-0.050140403129208304,0.4379675496944584
1728064478049257700,1.2442578125,-0.37882423400878906,-0.33256796002388,-0.0816115066409111,0.4383884072303772,0.8395494818687439,-0.3208926320075989,-0.04266703128814697,0.10553395748138428,-0.16880783438682556,0.684069195121101,-0.58040296104235,-0.051827494334161645,0.43874309056346666
1728064478059287800,1.254287841796875,-0.8466627597808838,-0.3180883526802063,-0.08429756760597229,0.4366011619567871,0.8418821692466736,-0.317196786403656,0.0010819435119628906,-0.04369497299194336,-0.06531074643135071,0.6823933657708708,-0.5817433415000943,-0.054555437382337695,0.43924671934480414
1728064478069318000,1.26431787109375,-1.3030149936676025,-0.2800429165363312,-0.01232190988957882,0.4352250397205353,0.8454786539077759,-0.3094269335269928,0.049287259578704834,-0.17471766471862793,-0.013769686222076416,0.6792993289522189,-0.5847342584018684,-0.05807226035289952,0.43962015108099795
1728064478079348700,1.2743486328125,-1.760183334350586,-0.29707011580467224,0.1623212695121765,0.43496960401535034,0.8498438596725464,-0.2976018190383911,0.08918505907058716,-0.23529618978500366,0.0330905020236969,0.674525607505592,-0.5893447873043524,-0.062223887654808796,0.44024553132551636
1728064478089378800,1.28437890625,-2.0302507877349854,-0.33368808031082153,0.3666163384914398,0.43635404109954834,0.8542338013648987,-0.28262999653816223,0.12867891788482666,-0.21852219104766846,0.09857824444770813,0.6681490874922802,-0.595176176890275,-0.06671073259173256,0.4414654846171936
1728064478099410000,1.294409912109375,-1.8954662084579468,-0.38136744499206543,0.448343962430954,0.4389558732509613,0.8578807711601257,-0.2671296000480652,0.1435025930404663,-0.19146853685379028,0.02945852279663086,0.6611285335275908,-0.6011526551157117,-0.07106814972542388,0.4432536618708721
1728064478109439700,1.304439697265625,-1.5927084684371948,-0.41837063431739807,0.44895434379577637,0.4418083727359772,0.8604114055633545,-0.25396373867988586,0.10398325324058533,-0.16863900423049927,-0.08021923899650574,0.6547313670701167,-0.6061449940139938,-0.07487574219071783,0.4453186812009558
1728064478119470800,1.314470947265625,-1.404778003692627,-0.39745789766311646,0.41703689098358154,0.444553017616272,0.8622230291366577,-0.24278369545936584,0.04069167375564575,-0.07605981826782227,-0.12562471628189087,0.6490055516673278,-0.6103145793332718,-0.07825769355354055,0.44741875483580584
1728064478129501000,1.3245009765625,-1.064463496208191,-0.3439127802848816,0.3514690697193146,0.44703736901283264,0.8634595274925232,-0.23365600407123566,-0.007782638072967529,0.06102454662322998,-0.10165607929229736,0.6441633288601564,-0.6136787184085722,-0.08105820151820674,0.449312305765227
1728064478139531800,1.33453173828125,-0.5406050682067871,-0.3116768002510071,0.2705462574958801,0.4489705264568329,0.8639476895332336,-0.2280784547328949,-0.03542685508728027,0.1118364930152893,-0.17664587497711182,0.6408213663878923,-0.6156895052363527,-0.08298919881106577,0.45098463978806724
1728064478149561900,1.344561767578125,-0.06961757689714432,-0.32581281661987305,0.26606976985931396,0.4505240321159363,0.863403856754303,-0.22707222402095795,-0.035347700119018555,0.06925898790359497,-0.22648024559020996,0.6392316802752184,-0.6159851432204562,-0.08382239851336931,0.45267966870468934
1728064478159592000,1.354592041015625,0.0872332900762558,-0.269519180059433,0.32947295904159546,0.45243075489997864,0.8620011806488037,-0.22860492765903473,-0.004264950752258301,0.03901487588882446,-0.1545739620923996,0.6384723856687468,-0.6153615411678028,-0.08383143200273745,0.4545936240444744
1728064478169622800,1.364622802734375,0.28093284368515015,-0.18242047727108002,0.3313813805580139,0.4548391103744507,0.8600489497184753,-0.2311641275882721,0.008921176195144653,0.04150110483169556,-0.07109741866588593,0.6381583825578345,-0.6144214121219745,-0.08309189807059726,0.4564381126978354
1728064478179652600,1.374652587890625,0.4783647060394287,-0.12208498269319534,0.28316885232925415,0.45717743039131165,0.8577238917350769,-0.2351558953523636,-0.02222570776939392,0.02908623218536377,-0.01685844361782074,0.63855081940698,-0.6129760634640734,-0.08174594290748119,0.45807277993245904
1728064478189684000,1.38468408203125,0.6292047500610352,-0.07602395117282867,0.23243404924869537,0.4591882824897766,0.8552013635635376,-0.24036796391010284,-0.034444600343704224,0.028038322925567627,0.027339786291122437,0.6396199254182052,-0.6110814893718477,-0.07997142840335059,0.4594239198472693
1728064478199713800,1.3947138671875,0.6902960538864136,-0.04627750813961029,0.19995813071727753,0.46089500188827515,0.8525736331939697,-0.24636149406433105,-0.020358562469482422,0.026134133338928223,0.04079490900039673,0.6411272211236153,-0.6088831732901121,-0.0779777751838419,0.46058289297384075
1728064478209744600,1.40474462890625,0.7422420382499695,0.013722285628318787,0.1897430419921875,0.4625147581100464,0.849894642829895,-0.2525058388710022,0.010263502597808838,-0.00866246223449707,0.036288559436798096,0.6428376542562931,-0.6066319731556938,-0.07579402113379417,0.46153292277898417
1728064478219774700,1.414774658203125,0.776346743106842,0.02819310501217842,0.19285708665847778,0.46422162652015686,0.8470306396484375,-0.2589152455329895,0.04450631141662598,-0.06323260068893433,0.014759212732315063,0.6447316817610969,-0.6042869722495988,-0.07334592730088782,0.4623618785549753
1728064478229805800,1.424805908203125,0.7019280195236206,-0.0018242900259792805,0.20517313480377197,0.46595799922943115,0.8441354036331177,-0.2651762366294861,0.07784992456436157,-0.08205056190490723,0.010781466960906982,0.6465234265180676,-0.601976150273937,-0.07096902214536958,0.46324448270725394
1728064478239835600,1.434835693359375,0.6437469720840454,0.017427435144782066,0.2013818621635437,0.4677105247974396,0.841384768486023,-0.27077382802963257,0.08265867829322815,-0.06158447265625,0.03467440605163574,0.6480402798797557,-0.5998996883518888,-0.06880008102554182,0.46414508743227734
1728064478249866800,1.44486669921875,0.7555698752403259,0.09675634652376175,0.17045456171035767,0.4694769084453583,0.8385930061340332,-0.27632105350494385,0.04607182741165161,-0.026245594024658203,0.038054853677749634,0.6496864334207297,-0.5978511135030847,-0.06643429443905191,0.4648312985177709
1728064478259896800,1.454896728515625,0.8691835403442383,0.15081292390823364,0.12701840698719025,0.47110339999198914,0.8355820775032043,-0.2826021611690521,-0.010410130023956299,0.009556293487548828,0.0366455614566803,0.651822963578513,-0.5955217819445062,-0.06366102750926843,0.465217955853813
1728064478269927000,1.464927001953125,0.9471582174301147,0.17947475612163544,0.07987965643405914,0.4724825620651245,0.8324586153030396,-0.2894349694252014,-0.043008774518966675,0.04380762577056885,0.05670776963233948,0.6543396468903939,-0.5929603916458277,-0.06066705007111935,0.46535678047144485
1728064478279957800,1.474957763671875,0.9772796630859375,0.21519626677036285,0.052799299359321594,0.4736303389072418,0.8292838335037231,-0.29658469557762146,-0.0390448272228241,0.041306257247924805,0.07789552211761475,0.6571132503256896,-0.5902497493488184,-0.05755768493727726,0.46528962493251746
1728064478289987800,1.48498779296875,0.9333113431930542,0.21725964546203613,0.058030545711517334,0.4747530519962311,0.8261429667472839,-0.30347537994384766,-0.0063082873821258545,-0.005800068378448486,0.04215317964553833,0.6598764395727007,-0.5876222499543775,-0.054427888721647104,0.46508144947087693
1728064478300018700,1.495018798828125,0.8252783417701721,0.19227972626686096,0.1284506618976593,0.47612592577934265,0.8230013847351074,-0.30979448556900024,0.053857505321502686,-0.08392685651779175,0.0007275640964508057,0.6623051882310781,-0.5851979641456184,-0.05144027106226035,0.4650257500918501
1728064478310048800,1.505048828125,0.7095599174499512,0.16900897026062012,0.1950179636478424,0.4780771732330322,0.8197910785675049,-0.3152536153793335,0.12438559532165527,-0.14364367723464966,-0.03740772604942322,0.6642212403998041,-0.5831099244202673,-0.04853867055197462,0.46522790102548117
1728064478320080000,1.515079833984375,0.5704348087310791,0.13936959207057953,0.1983831375837326,0.4802265763282776,0.8167792558670044,-0.3197716772556305,0.15502730011940002,-0.12758570909500122,-0.07198268175125122,0.6656523204689748,-0.581380456615253,-0.045944824141853045,0.46561000957959264
1728064478330110000,1.52510986328125,0.5551584959030151,0.15912874042987823,0.20178772509098053,0.48232030868530273,0.8140385150909424,-0.32358670234680176,0.1267189383506775,-0.03910583257675171,-0.03116506338119507,0.6668265292902553,-0.5799191569122653,-0.04359384892622549,0.4659782124664753
1728064478340140800,1.535140869140625,0.6026005744934082,0.225568488240242,0.23951220512390137,0.484780877828598,0.8110559582710266,-0.327377051115036,0.0753539502620697,0.05353742837905884,0.026519298553466797,0.6680430362443207,-0.5784782155490548,-0.040919761785067,0.4662692507195863
1728064478350171000,1.5451708984375,0.5916762948036194,0.14672774076461792,0.20173846185207367,0.48725515604019165,0.8079690933227539,-0.33131280541419983,0.040164828300476074,0.10822945833206177,0.09251254796981812,0.669279331379851,-0.5769594417356209,-0.038228221240387994,0.46660634189478495
1728064478360201000,1.555200927734375,0.6823832988739014,0.1665179580450058,0.10836748778820038,0.4890420734882355,0.80510413646698,-0.3356263041496277,0.03630271553993225,0.10015392303466797,0.08585500717163086,0.6707522062969946,-0.5752443937695694,-0.0357873467332221,0.46680243654271963
1728064478370231800,1.565231689453125,0.7952149510383606,0.11628758907318115,0.05030817911028862,0.49016374349594116,0.802203893661499,-0.3408932685852051,0.058374375104904175,0.08047109842300415,-0.05574384331703186,0.6727371354444436,-0.5730990706171569,-0.033329083490239955,0.46676673997255536
1728064478380262000,1.575261962890625,0.8257544636726379,0.10167349874973297,0.06794603168964386,0.49099743366241455,0.799077570438385,-0.3469817638397217,0.08158856630325317,0.062021493911743164,-0.034335553646087646,0.6749797964600911,-0.570575013171317,-0.030875100159258935,0.4667901444494735
1728064478390293000,1.58529296875,0.6670255064964294,0.0809464380145073,0.08744276314973831,0.4919459819793701,0.7960565090179443,-0.35253816843032837,0.10050696134567261,0.05915272235870361,-0.028504490852355957,0.6769503736797509,-0.5682549405792339,-0.02858749891005297,0.46691245883140053
1728064478400322800,1.59532275390625,0.4661872684955597,0.035882290452718735,0.07918456941843033,0.4928343594074249,0.7936058640480042,-0.3567969501018524,0.07885143160820007,0.04274362325668335,0.01306203007698059,0.6783845566097054,-0.5664652943688124,-0.026806515913016717,0.4671112301102428
1728064478410354000,1.60535400390625,0.15280556678771973,-0.022270601242780685,0.054919444024562836,0.4934302568435669,0.7921051383018494,-0.3592994809150696,0.031075358390808105,0.024850428104400635,0.026764482259750366,0.6791193030795915,-0.5654049708760456,-0.025835631413617985,0.46738288032973546
1728064478420383700,1.6153837890625,-0.20695127546787262,-0.04859355092048645,-0.03252198547124863,0.49343934655189514,0.7921355962753296,-0.3592194616794586,-0.025574415922164917,0.044320523738861084,0.046322524547576904,0.6789793492445773,-0.5654334061327476,-0.025987300876178298,0.46754314135870406
1728064478430414800,1.625414794921875,-0.4186253547668457,-0.03957470506429672,-0.12895318865776062,0.49263930320739746,0.7936756610870361,-0.3569106161594391,-0.08191859722137451,0.049051761627197266,0.07184574007987976,0.6782563117861277,-0.5664003703923005,-0.027116693092828166,0.4673579614727463
1728064478440444700,1.635444580078125,-0.5192398428916931,0.03915632516145706,-0.12320608645677567,0.49157604575157166,0.7960202097892761,-0.35313573479652405,-0.08036693930625916,0.0075838565826416016,0.025346189737319946,0.6772186663416873,-0.5679908836955643,-0.028609341536129596,0.46684340546838937
1728064478450475800,1.645475830078125,-0.564673125743866,0.0357312336564064,-0.02639644965529442,0.4911305904388428,0.7982915043830872,-0.3485988974571228,-0.012096256017684937,-0.07931280136108398,-0.030307501554489136,0.6758730479220512,-0.5699168872181667,-0.02992146201334396,0.4663634493415025
1728064478460505600,1.655505615234375,-0.6632798314094543,-0.06268773972988129,0.005971077363938093,0.4911108911037445,0.8004149794578552,-0.34372323751449585,0.07866743206977844,-0.17343157529830933,-0.03287908434867859,0.6741055857760792,-0.5719729587563296,-0.03138984396284202,0.466307900972399
1728064478470535700,1.66553564453125,-0.817992091178894,-0.24044442176818848,-0.027225490659475327,0.49052685499191284,0.8029899597167969,-0.33851194381713867,0.1112339198589325,-0.1880151629447937,0.008555740118026733,0.6720009802548554,-0.5741199155972032,-0.03362076580033087,0.46655168454752377
1728064478480566800,1.67556689453125,-0.9570661187171936,-0.3927175998687744,0.022425418719649315,0.4893994629383087,0.8060346245765686,-0.3328606188297272,0.09463059902191162,-0.12241053581237793,0.027089565992355347,0.6693678585507209,-0.5763799494914871,-0.036821739225491514,0.4673080949700331
1728064478490596900,1.685596923828125,-0.9243957996368408,-0.4213063418865204,0.11735432595014572,0.48860254883766174,0.8087969422340393,-0.32728394865989685,0.06953337788581848,-0.05685925483703613,0.00013530254364013672,0.6663940593565149,-0.5785677702727515,-0.04021646333425088,0.46857309431304545
1728064478500628500,1.69562841796875,-0.9051864147186279,-0.3143855035305023,0.15788951516151428,0.488567978143692,0.811071515083313,-0.3216584324836731,-0.00997614860534668,-0.042043983936309814,-0.011364787817001343,0.6633052126285289,-0.5807792779941434,-0.04319976641466777,0.46995240343372335
1728064478510658600,1.705658447265625,-0.7901855111122131,-0.14607121050357819,0.12334484606981277,0.48901018500328064,0.8130874037742615,-0.31584447622299194,-0.1016811728477478,-0.0419389009475708,0.009066373109817505,0.6604159461783538,-0.583096629288753,-0.04556407465241673,0.4709276675101137
1728064478520689400,1.715689453125,-0.4776608645915985,0.03754202648997307,0.08310314267873764,0.4897001087665558,0.8146101832389832,-0.31081151962280273,-0.16397082805633545,-0.03120887279510498,-0.057947784662246704,0.6582634664127559,-0.5851405533664152,-0.046954976610306565,0.47126934691298744
1728064478530719500,1.725719482421875,-0.12320803850889206,0.11842621862888336,0.05876903980970383,0.4905768036842346,0.8151397109031677,-0.30802810192108154,-0.17763438820838928,-0.006973445415496826,-0.0895092785358429,0.657260754881416,-0.5863143164000194,-0.0471325008282158,0.47119223279974043
1728064478540750600,1.73575048828125,-0.04029504582285881,0.11060904711484909,0.016957148909568787,0.49126824736595154,0.8151382803916931,-0.3069281280040741,-0.1401025652885437,0.03308236598968506,-0.03450271487236023,0.6570110698014923,-0.5868120701696711,-0.046770963874019605,0.4709568584196355
1728064478550780400,1.745780517578125,-0.1319732367992401,0.04425574839115143,-0.017601892352104187,0.49152612686157227,0.8153639435768127,-0.3059143126010895,-0.07033783197402954,0.048680126667022705,0.058370769023895264,0.6567996195196224,-0.5872505469153959,-0.04668662113380912,0.47071360358523906
1728064478560810500,1.755810546875,-0.3166735768318176,-0.0013000201433897018,-0.00337475398555398,0.49147066473960876,0.81610107421875,-0.3040318787097931,0.011764109134674072,-0.002304255962371826,0.10908541083335876,0.6561936757362218,-0.5880120281447822,-0.04717957112696454,0.47055886831043026
1728064478570841600,1.765841552734375,-0.49307337403297424,-0.0473393090069294,0.07887671142816544,0.4917198419570923,0.8171574473381042,-0.30077415704727173,0.08849555253982544,-0.06404483318328857,0.1210407018661499,0.6548891483209134,-0.5893209183976521,-0.048101712617525764,0.47064546182001504
1728064478580871700,1.77587158203125,-0.5561032295227051,-0.13232238590717316,0.15183374285697937,0.4924396574497223,0.8181468844413757,-0.29688143730163574,0.13130903244018555,-0.07504403591156006,0.1430269181728363,0.6530261388007598,-0.5908730895303793,-0.04927746341979774,0.47116597821082423
1728064478590902500,1.785902587890625,-0.600138783454895,-0.17288705706596375,0.17940892279148102,0.4933827519416809,0.8190010190010071,-0.29293468594551086,0.11429846286773682,-0.04150480031967163,0.11639028787612915,0.6508666527210905,-0.5924246452348655,-0.05065265705880881,0.4720592045501096
1728064478600932600,1.7959326171875,-0.6905000805854797,-0.16374309360980988,0.16978904604911804,0.4943392276763916,0.8200010657310486,-0.28849056363105774,0.06385773420333862,0.009024083614349365,0.08763891458511353,0.6484868663690346,-0.5941623353459073,-0.0522095347464271,0.4729798565267327
1728064478610963500,1.80596337890625,-0.6371588110923767,-0.14527899026870728,0.11999724060297012,0.4951429069042206,0.8211843371391296,-0.2837066948413849,0.022984445095062256,0.04168468713760376,0.04486069083213806,0.646067392024576,-0.5960242913247941,-0.05386742645589641,0.4737616265008803
1728064478620993500,1.81599365234375,-0.5284296274185181,-0.13293948769569397,0.04598959907889366,0.4954563081264496,0.8224102258682251,-0.27957889437675476,-0.00645795464515686,0.03051018714904785,-0.04984331130981445,0.6440909156285338,-0.5976101395252963,-0.055431707699086806,0.47427443225980914
1728064478631024600,1.826024658203125,-0.46954545378685,-0.1503036618232727,0.060647107660770416,0.49546024203300476,0.8235471844673157,-0.2762047052383423,-0.021232396364212036,-0.0004577040672302246,-0.09714752435684204,0.6424452190308866,-0.5988794580946175,-0.05693018470964564,0.4747276723934631
1728064478641054700,1.8360546875,-0.38559383153915405,-0.12668009102344513,0.10270747542381287,0.49578946828842163,0.8243066072463989,-0.2733335494995117,0.002104729413986206,-0.008907616138458252,-0.096966952085495,0.6409110150109275,-0.5999611615868673,-0.058136362090649346,0.47528905712969
1728064478651084500,1.84608447265625,-0.2534447908401489,-0.14713653922080994,0.11005380004644394,0.49633216857910156,0.8246373534202576,-0.271343857049942,0.018758684396743774,0.005043923854827881,-0.1160464882850647,0.6396478701344428,-0.6007059520619261,-0.05899519700562385,0.4759437503640194
1728064478661115600,1.85611572265625,-0.1325378268957138,-0.1859435886144638,0.07491631805896759,0.49666711688041687,0.8246696591377258,-0.27063223719596863,0.012961119413375854,0.036093831062316895,-0.09872221946716309,0.6387975004065495,-0.6009321880424293,-0.05970243721106019,0.4767115641355949
1728064478671145700,1.866145751953125,-0.07312656193971634,-0.1860891431570053,0.012923259288072586,0.4965151250362396,0.824722945690155,-0.270748496055603,-0.0004824697971343994,0.05879133939743042,-0.0809820294380188,0.638348036893833,-0.6008142089163255,-0.06039895608897054,0.4773740700897305
1728064478681176600,1.876176513671875,-0.054153136909008026,-0.15919841825962067,0.015283087268471718,0.4961426258087158,0.8248313665390015,-0.27110084891319275,-0.005297958850860596,0.056668758392333984,-0.10165631771087646,0.6380699431010347,-0.6005987795938914,-0.06107934996209872,0.47793006798758564
1728064478691206400,1.886206298828125,0.05566956847906113,-0.1137557253241539,0.03350869566202164,0.4960133731365204,0.8247048258781433,-0.27172186970710754,0.011036187410354614,0.03010779619216919,-0.12761613726615906,0.6379398552358558,-0.600303346916998,-0.0614407028666554,0.478428379585388
1728064478701237500,1.896237548828125,0.09529527276754379,-0.09521692991256714,0.04254772886633873,0.49607154726982117,0.8242573142051697,-0.2729702889919281,0.008124560117721558,0.010642468929290771,-0.10242664813995361,0.6380922679474393,-0.5997859148279823,-0.06141427426829345,0.47887712018748874
1728064478711267600,1.906267578125,-0.057748205959796906,-0.04451657086610794,0.05017448961734772,0.4963025450706482,0.8239413499832153,-0.27350395917892456,-0.004115045070648193,0.04133874177932739,-0.020472079515457153,0.6380034942497536,-0.5995602527255258,-0.06144531119597141,0.47927391368100075
1728064478721298400,1.91629833984375,-0.06568069756031036,-0.015369072556495667,-0.010161287151277065,0.4964388608932495,0.8240289092063904,-0.27299201488494873,-0.005945146083831787,0.08844649791717529,0.03126204013824463,0.6377051000252965,-0.5997542004347769,-0.061635200796389816,0.4794039173534217
1728064478731328500,1.92632861328125,0.10751672089099884,-0.0005686092190444469,-0.06166283041238785,0.4961265027523041,0.8241696953773499,-0.27313482761383057,-0.013277441263198853,0.0779145359992981,-0.03138500452041626,0.6378252503193079,-0.5996843310994745,-0.06173563867706568,0.47931851404612513
1728064478741359400,1.936359375,0.3861906826496124,0.037640560418367386,-0.02816026099026203,0.4957832098007202,0.8237386345863342,-0.2750520706176758,-0.002542853355407715,0.038794875144958496,-0.08455201983451843,0.6386590991944052,-0.5989336602419829,-0.06125706582711903,0.4792083186668526
1728064478751389400,1.946389404296875,0.6489030718803406,0.08228222280740738,0.04216742888092995,0.49604910612106323,0.8222159743309021,-0.2790989279747009,0.024779140949249268,0.010776519775390625,-0.07008340954780579,0.6402499186229001,-0.59739616966581,-0.059735681111471275,0.47919676315751414
1728064478761419500,1.95641943359375,0.6027787327766418,0.037863362580537796,0.11781718581914902,0.4969148337841034,0.8199780583381653,-0.28409790992736816,0.060442954301834106,0.03057730197906494,-0.06087300181388855,0.6419916348098099,-0.5954974213507793,-0.05773961897951525,0.47947439721100554
1728064478771450600,1.96645068359375,0.43752604722976685,-0.027588455006480217,0.1404079794883728,0.49803775548934937,0.8178225755691528,-0.28831326961517334,0.06794118881225586,0.08616900444030762,0.024519145488739014,0.6432231776428932,-0.593886049465582,-0.056060020543657246,0.480021347999766
1728064478781480400,1.97648046875,0.2913496494293213,-0.12532328069210052,0.11008576303720474,0.4988912045955658,0.816100537776947,-0.2916971743106842,0.01767975091934204,0.08317601680755615,0.10296103358268738,0.6439799204836651,-0.5925566128016666,-0.05502797472465215,0.4807684347077404
1728064478791511600,1.986511474609375,0.23896948993206024,-0.12535353004932404,0.07063449174165726,0.49924468994140625,0.8149014711380005,-0.2944319546222687,-0.050453245639801025,0.02160048484802246,0.09638792276382446,0.6444689620479198,-0.5914427991027817,-0.054584253198888835,0.4815346570909149
1728064478801541600,1.996541748046875,0.330835223197937,-0.006107558496296406,0.07087364047765732,0.4996195137500763,0.8136872053146362,-0.29714205861091614,-0.09668073058128357,-0.05415058135986328,0.036811649799346924,0.6451362534630282,-0.5903591833458284,-0.05389815428671692,0.4820479131464754
1728064478811572500,2.006572509765625,0.23467899858951569,0.17485690116882324,0.093825563788414,0.5005982518196106,0.8123515248298645,-0.2991425096988678,-0.09250199794769287,-0.11505556106567383,0.033074796199798584,0.6458162749656094,-0.5896241421881963,-0.05265084436075282,0.48217477876821035
1728064478821602600,2.0166025390625,0.04538603872060776,0.2405666708946228,0.07149042934179306,0.5019760131835938,0.8114945292472839,-0.2991596758365631,-0.020866453647613525,-0.10394465923309326,0.0972093939781189,0.6460850031231303,-0.5897338509100745,-0.05132394023668612,0.48182353021298985
1728064478831633700,2.026633544921875,-0.10246028751134872,0.10596134513616562,0.07482950389385223,0.5031096935272217,0.8112558126449585,-0.29790008068084717,0.05220329761505127,-0.06864124536514282,0.13522598147392273,0.6458296782252352,-0.5903279186949096,-0.050625151685371295,0.48151217335066937
1728064478841663500,2.03666357421875,-0.032472144812345505,0.01132405549287796,0.08995998650789261,0.5039653182029724,0.8110402226448059,-0.2970398962497711,0.12222486734390259,-0.07353723049163818,0.15206590294837952,0.645428427120586,-0.5907142651086419,-0.05036577112336582,0.48160369191108376
1728064478851693600,2.046693603515625,0.030884256586432457,-0.10089057683944702,0.060928866267204285,0.504499077796936,0.8106248378753662,-0.297267347574234,0.14210724830627441,-0.07431215047836304,0.11696931719779968,0.6452240308643277,-0.5906268896910023,-0.05026136999803852,0.48199528476190884
1728064478861724700,2.056724609375,0.21670791506767273,-0.14776460826396942,0.05945507436990738,0.5045765042304993,0.8100079894065857,-0.2988134026527405,0.12510788440704346,-0.03406822681427002,0.09150731563568115,0.6453886589462103,-0.5899745537754562,-0.05023269689373126,0.4825765312425872
1728064478871754800,2.066754638671875,0.5352640151977539,-0.24261261522769928,0.11092732101678848,0.5047507882118225,0.8084101676940918,-0.30281946063041687,0.11185681819915771,-0.023177742958068848,-0.039587974548339844,0.6462219284146062,-0.5883221120569406,-0.04967248698481003,0.48353585584713255
1728064478881785600,2.07678564453125,0.7642404437065125,-0.3356562554836273,0.06420348584651947,0.5046285390853882,0.8058749437332153,-0.3097025752067566,0.09730017185211182,-0.03704559803009033,-0.14343789219856262,0.6478611220043003,-0.585468038817985,-0.04874310761531002,0.48489928235905533
1728064478891815700,2.086815673828125,0.7357879877090454,-0.2672075033187866,0.02431652881205082,0.5039703845977783,0.803290069103241,-0.31739404797554016,0.03442072868347168,-0.007345855236053467,-0.16069456934928894,0.6499315557959768,-0.5822554026833666,-0.047766351312385213,0.4860926350841069
1728064478901846500,2.096846435546875,0.5822615623474121,-0.23336564004421234,0.09201115369796753,0.5036466121673584,0.8008522987365723,-0.3239995837211609,-0.032699406147003174,0.008916258811950684,-0.06398582458496094,0.6516758814993138,-0.5794935496786108,-0.04677004982994378,0.48715335049053426
1728064478911876400,2.10687646484375,0.31776466965675354,-0.1895543485879898,0.11804301291704178,0.5038215517997742,0.7988343238830566,-0.3286755084991455,-0.043799638748168945,-0.029974520206451416,0.013505041599273682,0.6526508811960775,-0.5775292638117134,-0.04606724360615687,0.4882464075821773
1728064478921907700,2.11690771484375,0.14650586247444153,-0.14554481208324432,0.10029837489128113,0.5041894912719727,0.7975011467933655,-0.33133769035339355,-0.06391245126724243,-0.060929059982299805,0.06803184747695923,0.6529966567936125,-0.5764038481923616,-0.045713911970813946,0.4891462365105176
1728064478931937500,2.1269375,0.07675953954458237,-0.05523073673248291,0.0491023026406765,0.504474937915802,0.7967439293861389,-0.3327220678329468,-0.06192439794540405,-0.08322781324386597,0.08385103940963745,0.6530907603397827,-0.5758152348997707,-0.045560703995027076,0.48972785056437934
1728064478941968400,2.136968505859375,0.05979466810822487,0.045461252331733704,-0.006558030378073454,0.5046334266662598,0.796417236328125,-0.33326348662376404,-0.03586822748184204,-0.08003252744674683,0.07888400554656982,0.6532246117656563,-0.575596580468781,-0.04535239517310835,0.48982572125401785
1728064478951998500,2.14699853515625,0.185604527592659,0.11715099215507507,-0.006855239160358906,0.5048632025718689,0.7960600256919861,-0.33376839756965637,0.004856526851654053,-0.05036318302154541,0.08428701758384705,0.6536027444124237,-0.5754204314386058,-0.0448010221251563,0.4895788443791689
1728064478962028500,2.157028564453125,0.2951962649822235,0.12302246689796448,-0.03537609800696373,0.5051689743995667,0.7953001260757446,-0.3351146876811981,0.040302157402038574,-0.03210139274597168,0.01777750253677368,0.6543673274464576,-0.5749093515804838,-0.043839334693432,0.4892449977996676
1728064478972059400,2.167059326171875,0.37475302815437317,0.158408522605896,-0.14852873980998993,0.5049447417259216,0.7946128249168396,-0.3370772898197174,0.03491109609603882,-0.037014126777648926,-0.01695731282234192,0.6555842446040752,-0.5741336244922052,-0.04280118567144501,0.48861823962291523
1728064478982089500,2.17708935546875,0.2558487355709076,0.12388250231742859,-0.2054721862077713,0.5039973258972168,0.7943966388702393,-0.33899930119514465,-0.0037075281143188477,-0.041726529598236084,0.014520972967147827,0.6570349816127679,-0.5733549431654423,-0.04200546948742243,0.48765207841930075
1728064478992120600,2.18712060546875,0.0121072418987751,0.1846877932548523,-0.2195427268743515,0.5028539299964905,0.7950286865234375,-0.33921557664871216,-0.00869816541671753,-0.023132503032684326,0.07121005654335022,0.657922372899034,-0.5732748105364975,-0.04181146794880095,0.4865653497050079
1728064479002150700,2.197150634765625,0.09745009988546371,0.26899921894073486,-0.12280048429965973,0.5022043585777283,0.79582679271698,-0.3383049964904785,-0.016517221927642822,0.007700860500335693,0.11020120978355408,0.6584960882523152,-0.5736948697452747,-0.04149341126780398,0.4853196881245756
1728064479012181500,2.207181396484375,0.45038217306137085,0.18067307770252228,-0.005960949696600437,0.5026010870933533,0.7951919436454773,-0.3392076790332794,-0.008994579315185547,0.007969558238983154,0.09094703197479248,0.6594390086269574,-0.5733933670635811,-0.04020198909246714,0.4845038717297898
1728064479022211600,2.217211669921875,0.6630337834358215,0.13218571245670319,-0.1182081326842308,0.5027087330818176,0.7934895753860474,-0.34301331639289856,0.0366741418838501,-0.028307199478149414,-0.07846516370773315,0.6612125734876855,-0.5718495760749454,-0.038489101589253435,0.4840500919527973
1728064479032242400,2.227242431640625,0.8615022301673889,0.16345015168190002,-0.1781795769929886,0.5019598007202148,0.7916212677955627,-0.348384827375412,-0.03012758493423462,-0.013270556926727295,-0.09860628843307495,0.663845434769743,-0.5696232034234753,-0.03656484706821743,0.4832199544704441
1728064479042272500,2.2372724609375,0.7921596169471741,0.20827141404151917,-0.005481846630573273,0.501832127571106,0.7891640663146973,-0.3540964424610138,-0.09336966276168823,0.04346209764480591,-0.047148823738098145,0.6665011057407482,-0.5672582282754566,-0.034203458226285705,0.4825187089354586
1728064479052302600,2.247302490234375,0.7359426021575928,0.2897293269634247,0.125615194439888,0.5032726526260376,0.7860954999923706,-0.35884571075439453,-0.08092468976974487,0.06597036123275757,0.053303539752960205,0.668531322229875,-0.5653276050294371,-0.03133444569971053,0.48217068446068184
1728064479062333700,2.257333740234375,0.6767900586128235,0.35422709584236145,0.09846026450395584,0.5054674744606018,0.7828518748283386,-0.3628297448158264,-0.06332886219024658,0.00009167194366455078,0.03392636775970459,0.6702944608296268,-0.5637313005625906,-0.028145097764081625,0.4817884472969887
1728064479072363500,2.267363525390625,0.4243304133415222,0.3746286928653717,-0.08676285296678543,0.5068933963775635,0.7807531952857971,-0.365354061126709,-0.015423119068145752,-0.08048170804977417,-0.023089110851287842,0.6718977729139036,-0.5627355065102294,-0.02552874001770797,0.480864272501192
1728064479082394600,2.27739453125,0.17352136969566345,0.3053191304206848,-0.17419175803661346,0.5070847272872925,0.7803843021392822,-0.3658762574195862,0.038783133029937744,-0.08702504634857178,-0.039763569831848145,0.6731000614140124,-0.562568980837406,-0.024041879409932347,0.47945221946130084
1728064479092424700,2.2874248046875,0.07227917015552521,0.20388919115066528,-0.0847332626581192,0.5069535374641418,0.7806356549263,-0.365521639585495,0.10170423984527588,-0.0516776442527771,-0.024416863918304443,0.6737897741119835,-0.5627583868008793,-0.02328462541503111,0.47829712881627984
1728064479102455600,2.29745556640625,0.1971430778503418,0.17961446940898895,0.03563762456178665,0.5075021386146545,0.7803148031234741,-0.36544543504714966,0.13823449611663818,-0.008281230926513672,0.029858708381652832,0.6741759291423165,-0.5628271328536396,-0.022425383478856628,0.4777127856417116
1728064479112485600,2.307485595703125,0.5497952699661255,0.1509757936000824,0.032464466989040375,0.5085114240646362,0.7787041068077087,-0.3674723505973816,0.1134214997291565,-0.04686218500137329,0.034723758697509766,0.6751239484818328,-0.5619878261443487,-0.020820878888330178,0.47743453418126214
1728064479122516700,2.317516845703125,0.6534066200256348,0.10265088081359863,-0.11114143580198288,0.5087273716926575,0.7765175700187683,-0.37177544832229614,0.044022321701049805,-0.14101958274841309,-0.0003713667392730713,0.6769942532324172,-0.5601360350689142,-0.01897099456767166,0.4770393430048203
1728064479132546600,2.327546630859375,0.4537891745567322,0.15500366687774658,-0.18971532583236694,0.5079521536827087,0.775250256061554,-0.37546202540397644,-0.02636951208114624,-0.13845521211624146,0.017307519912719727,0.6789440598042965,-0.5585309287479295,-0.017668787132946204,0.4761995614355819
1728064479142577700,2.33757763671875,0.38956010341644287,0.22077415883541107,-0.08874877542257309,0.5075967907905579,0.7744068503379822,-0.37767621874809265,-0.03579515218734741,-0.07982701063156128,0.040807753801345825,0.680451812161724,-0.5575774014770021,-0.016411455707847907,0.4752086436814662
1728064479152607500,2.347607421875,0.47613510489463806,0.26431912183761597,-0.014573878608644009,0.5081883072853088,0.7729974985122681,-0.37976235151290894,0.011022448539733887,-0.07808190584182739,0.04257345199584961,0.681757746553778,-0.5566892340013246,-0.01469449094904582,0.4744339048424117
1728064479162637600,2.357637451171875,0.5994945764541626,0.2994353175163269,-0.029579991474747658,0.509193480014801,0.7709848880767822,-0.3824974298477173,0.026695191860198975,-0.082966148853302,-0.0026499032974243164,0.6833305258171637,-0.5555146253613058,-0.012441304645876826,0.4736117789295042
1728064479172668400,2.36766845703125,0.5461525917053223,0.31800296902656555,-0.14056935906410217,0.5097112059593201,0.7691755890846252,-0.38543909788131714,0.032128334045410156,-0.0862991213798523,-0.018278121948242188,0.6851724006282464,-0.5542341116809547,-0.010247284886935607,0.47250208470491145
1728064479182698500,2.377698486328125,0.40578776597976685,0.3111211061477661,-0.10761913657188416,0.5099493265151978,0.7680138945579529,-0.3874354958534241,0.05056697130203247,-0.06197458505630493,-0.018570542335510254,0.6868242601935515,-0.5533644584652289,-0.008368315781825933,0.4711582624386457
1728064479192729600,2.3877294921875,0.5104221105575562,0.19552196562290192,-0.017415471374988556,0.5106409788131714,0.7665615081787109,-0.38939571380615234,0.11231422424316406,-0.053762614727020264,-0.025414615869522095,0.6881279089285752,-0.55250250617751,-0.006566853198713001,0.4702952988329592
1728064479202759400,2.397759521484375,0.3218673765659332,0.1252475380897522,-0.12408732622861862,0.510589599609375,0.7652273178100586,-0.3920782208442688,0.14276117086410522,-0.058989644050598145,-0.019359946250915527,0.689512737675456,-0.5513011118704687,-0.005289661916812169,0.4696926426734128
1728064479212790500,2.40779052734375,0.4039406478404999,0.1753172129392624,0.0003006751649081707,0.5107057690620422,0.7643032073974609,-0.39372578263282776,0.07880216836929321,0.08770155906677246,-0.01760554313659668,0.6905885159094127,-0.550563367356031,-0.004134150110326982,0.4689884863892997
1728064479222820600,2.417820556640625,0.6721910238265991,0.10383369028568268,0.11347462981939316,0.511771559715271,0.7617393732070923,-0.3972942531108856,0.10338646173477173,0.10238093137741089,-0.08317464590072632,0.6919507946309723,-0.548951834282338,-0.002179740178918561,0.46888276213017427
1728064479232851500,2.4278515625,0.6722565293312073,0.18952324986457825,0.03286607190966606,0.5129702091217041,0.7585893273353577,-0.40175068378448486,0.09582489728927612,0.018800020217895508,-0.06114012002944946,0.6936338374833129,-0.5469228741921789,0.00014837126427261226,0.4687721251697693
1728064479242881500,2.437881591796875,0.5187521576881409,0.2369440197944641,-0.011652125045657158,0.5139327049255371,0.7561230659484863,-0.40515556931495667,0.03144693374633789,-0.031605303287506104,0.007480800151824951,0.6952610571805969,-0.5453591793926341,0.0023612183549867266,0.4681771295973598
1728064479252911600,2.44791162109375,0.3354382812976837,0.13416242599487305,-0.025658221915364265,0.5145978331565857,0.754453182220459,-0.40741777420043945,0.045384347438812256,-0.10970854759216309,0.13401064276695251,0.6964616552736177,-0.5443116712977561,0.003989748720899955,0.4676001464889973
1728064479262942500,2.4579423828125,0.20953628420829773,0.05200362578034401,-0.10251066088676453,0.5145127177238464,0.7536619305610657,-0.4089866876602173,0.06542795896530151,-0.16534429788589478,0.21568819880485535,0.6973384423919663,-0.5435842511726314,0.00477641627371632,0.4671319714451378
1728064479272972500,2.46797265625,0.15901786088943481,0.01950257085263729,-0.1190507560968399,0.5137711763381958,0.7535204887390137,-0.4101780354976654,0.035789310932159424,-0.16036570072174072,0.2865663766860962,0.6981136761418544,-0.5430339343009543,0.00501310512204435,0.4666114938938933
1728064479283003600,2.478003662109375,-0.011671856977045536,-0.03990402817726135,-0.1630895733833313,0.5127925276756287,0.7538198828697205,-0.4108520448207855,0.016794264316558838,-0.11369848251342773,0.2352994680404663,0.6986421461202772,-0.542725029474643,0.004849241975057212,0.4661815352013417
1728064479293033500,2.488033447265625,-0.17847628891468048,-0.0007122070528566837,-0.16229648888111115,0.5112756490707397,0.7552145719528198,-0.4101806879043579,-0.0077509284019470215,-0.06563949584960938,0.17405074834823608,0.6987858121577057,-0.5430411180724025,0.003999420965312544,0.4656057852896036
1728064479303064600,2.498064697265625,-0.3465355932712555,-0.16494907438755035,-0.08886249363422394,0.5102040767669678,0.7567790746688843,-0.4086281657218933,-0.027889132499694824,-0.06857740879058838,0.09112313389778137,0.6983266946836937,-0.5437625398821496,0.002866736429971396,0.4654607430170726
1728064479313094700,2.5080947265625,-0.48953261971473694,-0.11642862856388092,-0.2812100946903229,0.5081708431243896,0.7594166994094849,-0.4062615931034088,0.0123978853225708,-0.07390052080154419,-0.07481768727302551,0.6976227639066753,-0.5448563886033125,0.0008509122728791047,0.46524518694929323
1728064479323125500,2.51812548828125,-0.6195101141929626,-0.01829088106751442,-0.25022900104522705,0.5057907104492188,0.7631552219390869,-0.4022062420845032,-0.06682592630386353,-0.054170966148376465,0.008834481239318848,0.6967105655660328,-0.5467126809705221,-0.0014579120081295988,0.46443240697692273
1728064479333155600,2.528155517578125,-0.5476429462432861,0.009274967014789581,-0.14478087425231934,0.5043349266052246,0.7664409279823303,-0.39776191115379333,-0.019624292850494385,-0.01854681968688965,-0.02910292148590088,0.6955429314748742,-0.5487329358484389,-0.0033488402222305023,0.46378977335062344
1728064479343185700,2.538185546875,-0.5683687329292297,0.11325276643037796,-0.19464430212974548,0.5033437013626099,0.7694689035415649,-0.39314448833465576,0.06136876344680786,0.06776541471481323,-0.10436850786209106,0.6943817181579108,-0.55082125988377,-0.004868370413338047,0.46304013169665414
1728064479353216800,2.548216796875,-0.5351315140724182,-0.017822643741965294,-0.22303679585456848,0.5019853115081787,0.7726783752441406,-0.38855987787246704,0.07491892576217651,0.13975131511688232,-0.06795275211334229,0.6933402597220054,-0.5528813553460252,-0.006500998564774511,0.4621245792221604
1728064479363246300,2.558246337890625,-0.615006685256958,-0.10783988237380981,-0.18412402272224426,0.5001018047332764,0.7759240865707397,-0.38449960947036743,0.09250378608703613,0.1001896858215332,-0.055274128913879395,0.6922330981067337,-0.5546849934160738,-0.008645681834283877,0.4615876004423388
1728064479373277700,2.568277587890625,-0.6651630997657776,-0.13897447288036346,-0.1311417669057846,0.49841955304145813,0.7791553735733032,-0.38012468814849854,0.0825892984867096,0.08420205116271973,0.001599729061126709,0.6907992453521344,-0.5566119595378365,-0.010990313962356378,0.461366082707971
1728064479383307500,2.5783076171875,-0.9128453135490417,-0.015153463929891586,0.03254116699099541,0.4975489675998688,0.7824071645736694,-0.37454482913017273,0.03287699818611145,0.06755298376083374,0.053606510162353516,0.6887877613316427,-0.5590627487313943,-0.013282786749001237,0.46134984125261325
1728064479393338400,2.58833837890625,-0.9278820157051086,0.11755009740591049,0.14370524883270264,0.49863168597221375,0.7853868007659912,-0.36678871512413025,-0.0008595287799835205,0.06481754779815674,0.037091851234436035,0.6858776090959567,-0.5624784032267472,-0.01495625786324423,0.4614826221586002
1728064479403368400,2.598368408203125,-0.874729335308075,0.12099329382181168,0.08591171354055405,0.5000383853912354,0.7880321145057678,-0.3591197729110718,-0.026405632495880127,0.09250670671463013,-0.17498379945755005,0.6830982360162484,-0.5658414974160452,-0.016232981161817168,0.46145062024324573
1728064479413399600,2.608399658203125,-0.5823251605033875,-0.2295805960893631,0.19261127710342407,0.5010730624198914,0.7901745438575745,-0.3529161214828491,-0.020390748977661133,0.1273972988128662,-0.1983688473701477,0.6805613986881434,-0.5685325896733185,-0.017681408985564796,0.46183778038876866
1728064479423429400,2.618429443359375,0.3725387156009674,-0.628848135471344,-0.06125669553875923,0.5001451373100281,0.7899090051651001,-0.35482174158096313,0.08971381187438965,0.16388720273971558,-0.4655061960220337,0.6800151868475185,-0.5676412131940383,-0.019302226083222226,0.4636703322321408
1728064479433460500,2.62846044921875,0.9813005924224854,-0.1787768006324768,-0.16984841227531433,0.49742430448532104,0.7883380055427551,-0.36206668615341187,0.00951838493347168,0.4071269631385803,-0.68149733543396,0.6822847186714254,-0.5644337065205444,-0.019525397584042672,0.46424235268486064
1728064479443490600,2.638490478515625,1.4714149236679077,0.0413140207529068,-0.010732268914580345,0.4965690076351166,0.7838955521583557,-0.3727289140224457,-0.16198959946632385,0.37691670656204224,-0.24065929651260376,0.686085027450598,-0.5597735817059613,-0.017002139959549918,0.46438314860872837
1728064479453520600,2.648520751953125,1.2587600946426392,0.409326434135437,0.05795251578092575,0.49775490164756775,0.7786321640014648,-0.3820626437664032,-0.17332258820533752,0.03061753511428833,-0.20215082168579102,0.6898082848112405,-0.5556995179485914,-0.012912402518781126,0.46389194489225377
1728064479463551500,2.658551513671875,1.1760183572769165,0.6148673295974731,-0.007041127886623144,0.4999099671840668,0.7737225890159607,-0.3891572654247284,-0.26095739006996155,-0.15514665842056274,0.038952648639678955,0.6931932882352153,-0.5525880159179388,-0.008236957077297312,0.4626679876182972
1728064479473581600,2.66858154296875,1.0389219522476196,0.7237957715988159,0.08018538355827332,0.5029191970825195,0.7692952156066895,-0.3940267264842987,-0.2060747742652893,-0.09262913465499878,0.25240975618362427,0.6961531634853209,-0.5504330757757674,-0.0031721229952073496,0.46085145208474587
1728064479483612400,2.6786123046875,1.1046937704086304,0.4171626567840576,0.14190708100795746,0.506190299987793,0.7644052505493164,-0.39931929111480713,-0.029826223850250244,-0.0008098483085632324,0.5421566367149353,0.698811869365062,-0.548030620190827,0.0016699414100720975,0.45969725579553883
1728064479493642500,2.688642578125,0.9865379333496094,0.09063048660755157,0.0410584881901741,0.5079491138458252,0.7596178650856018,-0.40616291761398315,0.13446110486984253,-0.03389477729797363,0.31418275833129883,0.7015001832068359,-0.5448768028579173,0.005273477700425251,0.4593244199619234
1728064479503673900,2.698673828125,0.7473969459533691,-0.17968036234378815,-0.07164329290390015,0.5076431632041931,0.7561129331588745,-0.4130271375179291,0.14479202032089233,-0.13234907388687134,0.23008939623832703,0.7038958992127886,-0.5416978969550416,0.007058115800305396,0.4593952016381857
1728064479513704000,2.708703857421875,0.34111902117729187,-0.22467957437038422,-0.12215333431959152,0.505928635597229,0.7543268799781799,-0.41836220026016235,0.11560755968093872,-0.22991305589675903,0.20344200730323792,0.7056672285630883,-0.5392269678791737,0.007292204902942597,0.45958094100235364
1728064479523734800,2.71873486328125,0.13141585886478424,-0.15859563648700714,-0.038049377501010895,0.5045183897018433,0.7538418769836426,-0.42093193531036377,0.08868229389190674,-0.12109047174453735,0.17985808849334717,0.7064354008491753,-0.5380395194193319,0.0068926498044695516,0.45979889074599684
1728064479533764900,2.728764892578125,0.05593501776456833,-0.12788517773151398,0.0793163925409317,0.5040944814682007,0.7533398270606995,-0.4223359227180481,0.09609466791152954,0.07226729393005371,0.17889702320098877,0.7066432614615097,-0.5373894875196653,0.0066763399179690505,0.46024244810652454
1728064479543795000,2.738794921875,0.08747243881225586,-0.21343310177326202,0.16457749903202057,0.5043624639511108,0.7524164319038391,-0.4236600399017334,0.11497646570205688,0.16651344299316406,0.09394794702529907,0.7065383925905918,-0.5367740960885715,0.006599733960079014,0.46112185775397885
1728064479553825800,2.74882568359375,0.08128631114959717,-0.3015631437301636,0.19983775913715363,0.5046321153640747,0.751074492931366,-0.4257150888442993,0.11264681816101074,0.1364833116531372,-0.07176735997200012,0.7063560745850258,-0.5358190056266793,0.006360403455166038,0.46251319818898384
1728064479563855600,2.758855712890625,-0.017960645258426666,-0.16626760363578796,0.25380590558052063,0.5052900314331055,0.7498615980148315,-0.4270707368850708,0.02718055248260498,0.02632230520248413,-0.08135226368904114,0.705911783812784,-0.535188281776904,0.006175455105170745,0.4639221380419119
1728064479573887000,2.768886962890625,-0.1153624951839447,-0.19390323758125305,0.3007201552391052,0.5067702531814575,0.7486090660095215,-0.42751410603523254,-0.039744555950164795,-0.07212609052658081,-0.015021443367004395,0.7050971199793638,-0.5349802703885306,0.006249518479675318,0.46539772918035016
1728064479583916500,2.77891650390625,-0.17710602283477783,-0.19309470057487488,0.26070696115493774,0.5080645680427551,0.747866153717041,-0.42727789282798767,-0.0338824987411499,-0.09012097120285034,-0.03633004426956177,0.7039898347254723,-0.5350943029359639,0.005927605216377587,0.4669444273323754
1728064479593947600,2.78894775390625,-0.13496163487434387,-0.15211854875087738,0.22504431009292603,0.5091157555580139,0.7472891807556152,-0.4270361661911011,-0.03671902418136597,0.0006812214851379395,-0.07424572110176086,0.7030184310975294,-0.5352108453316613,0.005591779554643311,0.46827667788735483
1728064479603977700,2.798977783203125,-0.15283463895320892,-0.031586550176143646,0.23652440309524536,0.5104576349258423,0.7467305660247803,-0.42641106247901917,-0.015538811683654785,0.06964504718780518,-0.07148337364196777,0.7020991197692594,-0.535503053455347,0.005563243701530703,0.46932104879961023
1728064479614008600,2.809008544921875,-0.11385554820299149,-0.10749921202659607,0.3187710642814636,0.5122843384742737,0.7459012269973755,-0.42567136883735657,0.014540553092956543,0.09224867820739746,-0.001223921775817871,0.7010805985993918,-0.5358459424841506,0.005782944034554378,0.47044838094199304
1728064479624038700,2.81903857421875,-0.04924566298723221,-0.29482781887054443,0.29323187470436096,0.5138294100761414,0.7446017265319824,-0.426084041595459,0.05182909965515137,0.030636191368103027,0.007046997547149658,0.7001118787768337,-0.5356536801470693,0.005754289015350264,0.4721073887947512
1728064479634068700,2.82906884765625,-0.01418008841574192,-0.3185201585292816,0.17057600617408752,0.5141593813896179,0.743542492389679,-0.42753300070762634,0.02125614881515503,-0.03390216827392578,-0.05240187048912048,0.6994922433827909,-0.5349830560451913,0.00516104363965142,0.473789904238545
1728064479644099800,2.839099853515625,0.06485746800899506,-0.11822967231273651,0.18597547709941864,0.5144983530044556,0.7425923943519592,-0.428774893283844,-0.07847851514816284,-0.07259440422058105,-0.03725922107696533,0.6991199420525932,-0.5344050457003657,0.004878018897087231,0.47499338980741534
1728064479654129700,2.849129638671875,0.11429066210985184,0.02240286022424698,0.20806825160980225,0.5158438682556152,0.7410949468612671,-0.42974773049354553,-0.09981310367584229,-0.08876663446426392,-0.011445045471191406,0.6989096959712917,-0.5339434170978947,0.005528940841633789,0.47581390543426827
1728064479664160800,2.859160888671875,0.08066053688526154,0.02536003291606903,0.16383768618106842,0.5174330472946167,0.7396910786628723,-0.4302556812763214,-0.07285308837890625,-0.04352426528930664,-0.0009425580501556396,0.6987048999696623,-0.5336957509798305,0.006403072644902884,0.47638126633399175
1728064479674190800,2.86919091796875,-0.001105232979170978,-0.04752131178975105,0.11388076096773148,0.5184223055839539,0.738761305809021,-0.4306621849536896,-0.029637575149536133,0.023857533931732178,-0.028535962104797363,0.698493088156269,-0.5334997880769812,0.006846798794722445,0.4769049721494853
1728064479684221700,2.8792216796875,-0.025360770523548126,-0.03687585890293121,0.15374882519245148,0.5191593766212463,0.7382136583328247,-0.4307131767272949,0.006810963153839111,0.06325405836105347,-0.07980024814605713,0.6981273566334842,-0.5334743452980555,0.006966380901655518,0.4774667826235908
1728064479694251800,2.889251708984375,-0.05051319673657417,-0.03776077181100845,0.1679975390434265,0.5202398896217346,0.7374686598777771,-0.4306858777999878,0.022057414054870605,0.02882760763168335,-0.10370761156082153,0.6976326823435564,-0.5334840790633236,0.0071973365551654825,0.4781751655738634
1728064479704283000,2.899282958984375,0.004390799440443516,-0.026085207238793373,0.16793015599250793,0.5214064717292786,0.7365957498550415,-0.4307689070701599,0.009934961795806885,-0.04668503999710083,-0.08665677905082703,0.6972010148071524,-0.5334402328895107,0.007553975667070607,0.4788476363035603
1728064479714312700,2.909312744140625,-0.10053082555532455,-0.048295758664608,0.15322072803974152,0.5224073529243469,0.7360104322433472,-0.4305565357208252,-0.025596559047698975,-0.08822929859161377,-0.020478159189224243,0.6966703447387069,-0.5335375902019338,0.007704958790120647,0.47950860013664187
1728064479724342800,2.9193427734375,-0.15242144465446472,-0.07312547415494919,0.15088219940662384,0.5233120918273926,0.7357307076454163,-0.4299358129501343,-0.043255388736724854,-0.04948204755783081,0.08481234312057495,0.6959400069457737,-0.53382991925827,0.007596655969099121,0.4802451619123506
1728064479734374000,2.929373779296875,-0.2268715798854828,-0.0968564823269844,0.12350516766309738,0.5232242941856384,0.7357226610183716,-0.4300563335418701,-0.019531726837158203,-0.008229553699493408,0.07123047113418579,0.6954890977639209,-0.5337813329023994,0.007022946387212341,0.48096057443895307
1728064479744403700,2.93940380859375,-0.37729382514953613,-0.1543104499578476,0.04158180207014084,0.522547721862793,0.7368975877761841,-0.4288657307624817,-0.00039201974868774414,0.004328489303588867,0.07446491718292236,0.6946587850287265,-0.5343544129540485,0.005700870909103021,0.4815412769213212
1728064479754434800,2.949434814453125,-0.2844907343387604,-0.1466590315103531,0.0066765486262738705,0.5213814377784729,0.7384541630744934,-0.42760592699050903,0.0023764371871948242,0.013147830963134766,0.012856602668762207,0.6939096278523418,-0.5349579983216333,0.004119393757536522,0.4819672205470764
1728064479764465000,2.95946484375,-0.24182264506816864,-0.07469828426837921,0.031222904101014137,0.5204346776008606,0.7394770383834839,-0.42699113488197327,-0.03367936611175537,0.03125947713851929,-0.05941343307495117,0.6934327050599269,-0.5352529558832672,0.002951014186581457,0.48233458965705983
1728064479774495700,2.969495849609375,-0.2769438624382019,0.0018343077972531319,0.045177068561315536,0.5202749967575073,0.7399389743804932,-0.42638498544692993,-0.08222579956054688,0.031270623207092285,-0.041968464851379395,0.6929073580162526,-0.535539185505775,0.002298279514234426,0.4827751639550855
1728064479784525800,2.97952587890625,-0.24505332112312317,0.03164093941450119,0.040595363825559616,0.52080237865448,0.7399783134460449,-0.4256722331047058,-0.08751386404037476,-0.03564804792404175,0.033032894134521484,0.6923392289146002,-0.5358726111394324,0.0021035221583190905,0.48322086410033743
1728064479794557000,2.989556884765625,-0.2929338216781616,0.04677850753068924,-0.010612692683935165,0.5212804675102234,0.7403854131698608,-0.4243772029876709,-0.03573065996170044,-0.07829147577285767,0.07981833815574646,0.6917307775605722,-0.5364773021795688,0.001872418548679327,0.48342215227265034
1728064479804586800,2.999586669921875,-0.2873970866203308,0.01446344330906868,-0.04150403290987015,0.5213689804077148,0.7420317530632019,-0.4213825762271881,0.024910926818847656,-0.036633312702178955,0.1112474799156189,0.6908384717907359,-0.5378729682539848,0.0011744962000214,0.4831495658072068
1728064479814616600,3.009616455078125,-0.2747457027435303,-0.020122870802879333,-0.0641278475522995,0.5210015177726746,0.7436255812644958,-0.41902053356170654,0.06986445188522339,-0.008991360664367676,0.1165148913860321,0.6901468228507339,-0.5389708952248425,0.0003235843229932002,0.4829155923422542
1728064479824647700,3.019647705078125,-0.3714139461517334,0.03068092279136181,-0.1508270502090454,0.5204121470451355,0.7456374764442444,-0.4161679446697235,0.06160378456115723,-0.02452254295349121,0.030974924564361572,0.6894222547449049,-0.5402921081555299,-0.000682620557501767,0.4824736102502154
1728064479834677800,3.029677734375,-0.5715692043304443,-0.0912151038646698,-0.26167821884155273,0.5188068151473999,0.7486498951911926,-0.4127500057220459,0.015479564666748047,-0.09828996658325195,0.014541268348693848,0.6886466199270668,-0.5418663087771195,-0.002429480915179062,0.4818097197603225
1728064479844708600,3.03970849609375,-0.7344968318939209,-0.1578039824962616,-0.300031453371048,0.5160806179046631,0.7529562711715698,-0.4083108901977539,-0.004071950912475586,-0.14986789226531982,0.040573835372924805,0.6874840323780316,-0.5438898774278428,-0.005325644423884117,0.48116650546065387
1728064479854738700,3.04973876953125,-0.3747502565383911,-0.056746289134025574,-0.20080792903900146,0.5137039422988892,0.7566269636154175,-0.40450453758239746,-0.020921409130096436,-0.03992176055908203,-0.08589786291122437,0.6864991040395653,-0.5456067137177948,-0.007813128268246098,0.4805946485198335
1728064479864769800,3.059769775390625,0.07979433983564377,0.1759258359670639,-0.09127744287252426,0.5128840804100037,0.7578802108764648,-0.4031962454319,-0.03673368692398071,0.07305216789245605,-0.18652555346488953,0.6864828490460705,-0.546198645309363,-0.008301299357777016,0.4799366574751766
1728064479874799600,3.069799560546875,0.22333966195583344,0.2655045986175537,-0.09581121057271957,0.5132102966308594,0.757624626159668,-0.40326154232025146,-0.012218594551086426,0.04896998405456543,-0.08523344993591309,0.6871531983892802,-0.5461829424074592,-0.007308756033030167,0.4790105237462713
1728064479884830700,3.079830810546875,0.2447807639837265,0.20665833353996277,-0.18112477660179138,0.5131592154502869,0.7573977112770081,-0.4037528336048126,0.06136465072631836,-0.08501929044723511,0.012318909168243408,0.6881045674911807,-0.5459705208970397,-0.006306846036250572,0.4779000966688868
1728064479894860800,3.08986083984375,0.20493575930595398,0.20755067467689514,-0.30417293310165405,0.5121642351150513,0.7576788067817688,-0.4044882655143738,0.14320075511932373,-0.15053170919418335,0.012718677520751953,0.689339646415509,-0.5456405177539186,-0.005682540395688886,0.47650292883679535
1728064479904891000,3.099890869140625,0.08111100643873215,0.10267165303230286,-0.3878137767314911,0.5102234482765198,0.7588793039321899,-0.4046899974346161,0.18255603313446045,-0.10836678743362427,0.09710320830345154,0.6905509729212748,-0.5455477967788963,-0.005709351987552045,0.47485171687958827
1728064479914921700,3.109921630859375,-0.10618437826633453,-0.14824505150318146,-0.47771650552749634,0.5068767070770264,0.7610985636711121,-0.40472835302352905,0.19881176948547363,-0.10988402366638184,0.21422213315963745,0.6915636368634078,-0.5455158284098593,-0.0069505868241642715,0.47339618784567994
1728064479924951800,3.119951904296875,-0.3155730366706848,-0.42993345856666565,-0.47284451127052307,0.5020665526390076,0.764396607875824,-0.40450823307037354,0.17920780181884766,-0.11930090188980103,0.2438024878501892,0.6920805683536446,-0.5455734486877092,-0.009772028943476745,0.47252356172502114
1728064479934982700,3.129982666015625,-0.32895752787590027,-0.43733540177345276,-0.31923073530197144,0.49709391593933105,0.7678855657577515,-0.4040413796901703,0.12714314460754395,-0.05877918004989624,0.1444585919380188,0.6920337239037905,-0.5457122875264363,-0.013319669633782916,0.472345284759124
1728064479945012700,3.1400126953125,0.09973789006471634,-0.28340789675712585,-0.16218890249729156,0.49384570121765137,0.7695053219795227,-0.4049420952796936,0.03351333737373352,0.015025317668914795,-0.0496785044670105,0.6922276974078622,-0.5452420830412331,-0.015492894635348982,0.4725377270453504
1728064479955043800,3.1500439453125,0.28259196877479553,0.13937944173812866,-0.030875619500875473,0.49283304810523987,0.768989622592926,-0.4071493148803711,-0.057118386030197144,0.030708134174346924,-0.15507620573043823,0.6930774593246146,-0.5442302258292518,-0.015453379076419093,0.4724598037172883
1728064479965074000,3.160073974609375,0.29580312967300415,0.21661964058876038,-0.13286243379116058,0.49303269386291504,0.7681557536125183,-0.40847960114479065,-0.07950425148010254,0.061968088150024414,-0.08274680376052856,0.6940534216758352,-0.5436497852868936,-0.014321481626961584,0.471730559702157
1728064479975104800,3.170104736328125,0.28553852438926697,0.2514253854751587,-0.08280432969331741,0.4931524991989136,0.7675955295562744,-0.4093867838382721,-0.04059213399887085,0.04040294885635376,-0.056662559509277344,0.6951225733063785,-0.5432634002692983,-0.013095310325140842,0.4706355999978746
1728064479985134800,3.180134765625,0.20914813876152039,0.07090355455875397,-0.10754243284463882,0.49323540925979614,0.7668582797050476,-0.4106667935848236,0.09171020984649658,-0.006421387195587158,-0.045342326164245605,0.6960453684061866,-0.5426971075891522,-0.012101941217357966,0.46995127575528933
1728064479995165000,3.1901650390625,-0.07226555794477463,-0.11848096549510956,-0.18819093704223633,0.491948664188385,0.7673956751823425,-0.41120582818984985,0.13196790218353271,0.020888447761535645,0.05585896968841553,0.696583521457558,-0.5424409650998793,-0.012445488550129558,0.4694403145167577
1728064480005195800,3.20019580078125,-0.12151753157377243,-0.24277256429195404,-0.03409485146403313,0.49019286036491394,0.7684370875358582,-0.41135790944099426,0.06977412104606628,0.0710861086845398,0.07334506511688232,0.6965621900301139,-0.5423399721345618,-0.013725884759722017,0.46955300475394135
1728064480015225600,3.2102255859375,0.005794351454824209,-0.023004304617643356,0.15187609195709229,0.4901450276374817,0.7683776021003723,-0.41152602434158325,0.028897881507873535,0.05803823471069336,-0.007007479667663574,0.696198202585894,-0.5422503467921522,-0.0141967863622892,0.470181879617477
1728064480025257000,3.220257080078125,0.11643297970294952,0.23001544177532196,0.15885117650032043,0.4918830394744873,0.7672650814056396,-0.41152793169021606,-0.05738911032676697,0.0020371079444885254,-0.000642627477645874,0.6960121207861081,-0.5422750320370888,-0.013184042266597598,0.47045827956603853
1728064480035286800,3.230286865234375,-0.026997150853276253,0.30693739652633667,0.17011980712413788,0.4943033754825592,0.7662413120269775,-0.41053417325019836,-0.09884139895439148,-0.018881261348724365,0.06571590900421143,0.6957957930378773,-0.5427687163197987,-0.011620368258509439,0.4702501954817794
1728064480045317600,3.240317626953125,-0.14161162078380585,0.13883547484874725,0.2032836228609085,0.49678775668144226,0.7656229138374329,-0.40868496894836426,-0.01801276206970215,0.025499343872070312,0.11345773935317993,0.6951110525664846,-0.5436433741957999,-0.010459621552899593,0.4702797510419654
1728064480055347700,3.25034765625,-0.1715969443321228,-0.03495524078607559,0.13207708299160004,0.49830299615859985,0.7654714584350586,-0.40712103247642517,0.07197892665863037,0.0068825483322143555,0.11123764514923096,0.6942377963809634,-0.5443664403452313,-0.010230666173020606,0.4707380926474165
1728064480065378600,3.260378662109375,-0.04254068806767464,-0.1863143891096115,0.12067235261201859,0.49881941080093384,0.765301525592804,-0.40680810809135437,0.06810563802719116,-0.030896008014678955,0.10741519927978516,0.6936349653784247,-0.5445044655937094,-0.010527764764635173,0.4714601091734435
1728064480075408600,3.27040869140625,-0.03288460150361061,-0.23115350306034088,0.10522203147411346,0.49881643056869507,0.7648063898086548,-0.4077414274215698,0.03572934865951538,-0.06137645244598389,0.11004230380058289,0.6932879285430313,-0.5440659383328632,-0.011024861967779423,0.47246410291922636
1728064480085438700,3.280438720703125,-0.2248055785894394,-0.16902941465377808,0.0860949382185936,0.4987540543079376,0.7648501992225647,-0.407735675573349,-0.026204675436019897,-0.03522086143493652,0.10623711347579956,0.6926993076761916,-0.544053479623004,-0.011745942622682956,0.4733237479285081
1728064480095469800,3.2904697265625,-0.36085209250450134,-0.10582701861858368,0.08639108389616013,0.49887046217918396,0.7656370997428894,-0.4061131179332733,-0.08633393049240112,0.01816093921661377,0.05041530728340149,0.6916556741917637,-0.5447771281078314,-0.012701361901812957,0.47399237560657825
1728064480105499600,3.300499755859375,-0.4387146532535553,0.07203885167837143,0.10409817844629288,0.4995379149913788,0.7668005228042603,-0.40308648347854614,-0.12729981541633606,0.08148115873336792,0.005045533180236816,0.6903102286805053,-0.5461458442568096,-0.013471304808382168,0.47435742175168305
1728064480115530800,3.31053076171875,-0.3477529287338257,0.26304179430007935,0.12065718322992325,0.5011191368103027,0.7678543329238892,-0.39909809827804565,-0.15897136926651,0.143873393535614,0.030460834503173828,0.6889421666361968,-0.5479674232806172,-0.013514789503574223,0.474244410364488
1728064480125560800,3.320560791015625,-0.18101000785827637,0.3416862487792969,0.13993127644062042,0.5033977627754211,0.7682530879974365,-0.395446240901947,-0.1477612853050232,0.12655264139175415,0.012709885835647583,0.6879080253558777,-0.5496504236959662,-0.012700182193851453,0.4738201534353131
1728064480135591700,3.330591796875,-0.10963264107704163,0.2789430320262909,0.07571127265691757,0.5055610537528992,0.7681737542152405,-0.3928317725658417,-0.08722621202468872,0.02636641263961792,-0.06683942675590515,0.6872886529628357,-0.5508628050745198,-0.01158816483259109,0.47333914145881745
1728064480145621800,3.340621826171875,-0.3319093883037567,0.178980752825737,-0.03421895205974579,0.5066092014312744,0.768895149230957,-0.39006078243255615,-0.03412085771560669,-0.07297241687774658,-0.07536298036575317,0.6866832985220589,-0.5521262290081146,-0.011235683842609569,0.47275413442279873
1728064480155652900,3.35065283203125,-0.5959612131118774,-0.05952322110533714,-0.062246061861515045,0.5065605640411377,0.7709650993347168,-0.38601693511009216,0.01207035779953003,-0.09880030155181885,-0.022399961948394775,0.6854818034555012,-0.5539334380060372,-0.012217936720894067,0.4723590002251524
1728064480165682700,3.3606826171875,-0.8055328130722046,-0.2784470319747925,-0.14269162714481354,0.5050529837608337,0.7741917371749878,-0.381508469581604,0.05906444787979126,-0.1397770643234253,-0.0443340539932251,0.6837541042488544,-0.5559015422507085,-0.014806858653738259,0.4724770871227959
1728064480175713800,3.3707138671875,-0.9062365293502808,-0.2574775815010071,-0.12073786556720734,0.5029409527778625,0.7781856060028076,-0.376134991645813,0.015018582344055176,-0.10035979747772217,-0.015527784824371338,0.6816316357109433,-0.5582129699841697,-0.018187365768612476,0.47270051949238967
1728064480185744000,3.380743896484375,-0.856612503528595,-0.16381579637527466,-0.06107879802584648,0.5014804601669312,0.7819435000419617,-0.3702455163002014,-0.03297460079193115,-0.009482622146606445,0.0479186475276947,0.6793154944546455,-0.5607362994709589,-0.021261290383212467,0.47291992271849154
1728064480195774000,3.39077392578125,-0.7266207337379456,-0.01558660063892603,-0.051352668553590775,0.5007773637771606,0.7851216197013855,-0.3644256293773651,-0.04803389310836792,0.041782498359680176,-0.011963129043579102,0.6771861726508829,-0.5632331221859505,-0.023572017043853765,0.472897115240271
1728064480205804800,3.4008046875,-0.5443417429924011,0.07107958197593689,-0.08324135839939117,0.5004187226295471,0.7877628803253174,-0.3591806888580322,-0.060523152351379395,0.06329596042633057,-0.0851096510887146,0.6755128986187912,-0.5654881075277618,-0.025156588068885505,0.47251739417394767
1728064480215835000,3.4108349609375,-0.40064889192581177,0.10551053285598755,-0.12950365245342255,0.4999043941497803,0.7899720072746277,-0.3550204932689667,-0.057903140783309937,0.06558805704116821,-0.08681318163871765,0.6744539225822563,-0.5672748116216461,-0.026249570879875173,0.4718283165714418
1728064480225865700,3.42086572265625,-0.33083733916282654,0.06941457837820053,-0.10268509387969971,0.4993242919445038,0.7918500900268555,-0.3516369163990021,-0.05150943994522095,0.0704086422920227,-0.08954057097434998,0.6736928558821597,-0.5687227928796221,-0.027127876872933027,0.47112232366021545
1728064480235895800,3.430895751953125,-0.27604544162750244,0.022761641070246696,-0.07922770828008652,0.4987960755825043,0.7933551073074341,-0.3489840626716614,-0.031083762645721436,0.05230206251144409,-0.12667831778526306,0.6730312288638722,-0.569848346273794,-0.02794334034809766,0.47065992939107487
1728064480245927000,3.440927001953125,-0.19874560832977295,0.031228095293045044,-0.08639667183160782,0.49826711416244507,0.794579029083252,-0.3469492197036743,-0.03485777974128723,0.016165971755981445,-0.16954568028450012,0.6725340809868254,-0.570705674038654,-0.02864300204074805,0.47028962063743723
1728064480255956700,3.450956787109375,-0.13222797214984894,0.10665339976549149,-0.08058405667543411,0.49783045053482056,0.7955823540687561,-0.3452729880809784,-0.06655612587928772,-0.00851893424987793,-0.15579530596733093,0.6722588082578261,-0.5714186757351771,-0.029055258342771194,0.46979191816041543
1728064480265986600,3.460986572265625,-0.023379512131214142,0.1950272023677826,-0.03277871385216713,0.4979389011859894,0.7961218357086182,-0.34386998414993286,-0.08013811707496643,-0.004633426666259766,-0.13162454962730408,0.6721833359707131,-0.5720415792406195,-0.02886928184885241,0.4691527886947904
1728064480276017700,3.471017578125,0.015366286039352417,0.24005337059497833,-0.01051894947886467,0.4985845685005188,0.7961897850036621,-0.3427754044532776,-0.04959481954574585,0.014799356460571289,-0.11981019377708435,0.6722651041874486,-0.5725556892047983,-0.02814736581739179,0.46845186811263473
1728064480286047700,3.4810478515625,-0.07219818979501724,0.18625326454639435,-0.005083704367280006,0.49929526448249817,0.7963054776191711,-0.34146955609321594,-0.017712712287902832,0.06912702322006226,-0.07558384537696838,0.6722323288375521,-0.5731577336061682,-0.027485151061673745,0.467801481314913
1728064480296078600,3.49107861328125,-0.11087753623723984,0.08357065916061401,0.010614564642310143,0.4997806251049042,0.796639621257782,-0.3399772346019745,-0.0013217926025390625,0.11368429660797119,-0.03340548276901245,0.6719564893970411,-0.5738193397272152,-0.027253290520999028,0.46740030280996514
1728064480306108700,3.501108642578125,0.03918839246034622,0.017174862325191498,0.03430338203907013,0.5001572370529175,0.7966673970222473,-0.3393576443195343,0.011103689670562744,0.08643484115600586,-0.017927110195159912,0.6717628845803861,-0.5740951926581864,-0.02712731047404189,0.4673471311374637
1728064480316139800,3.511139892578125,0.21066421270370483,0.033670853823423386,0.027318978682160378,0.5005001425743103,0.7960583567619324,-0.34028053283691406,0.008716166019439697,0.023353874683380127,-0.0038816630840301514,0.6720645764691048,-0.5737156526179833,-0.026647428275763378,0.467407248372896
1728064480326169900,3.521169921875,0.2544713318347931,0.06374699622392654,0.029207425191998482,0.5009158253669739,0.7950928211212158,-0.34192171692848206,-0.016403615474700928,-0.008059978485107422,0.04355117678642273,0.6726927718202407,-0.5730379189953092,-0.025820369076543694,0.46738110051289045
1728064480336200700,3.53120068359375,0.21533173322677612,0.05081809684634209,0.0435062013566494,0.5014490485191345,0.7940829992294312,-0.3434831202030182,-0.018447458744049072,-0.01245182752609253,0.06838223338127136,0.6732808280967064,-0.5723951005182897,-0.02494571624915432,0.46736947053230066
1728064480346230800,3.541230712890625,0.16088978946208954,0.00816863588988781,0.05185973644256592,0.5019539594650269,0.7931965589523315,-0.3447916507720947,0.0019522309303283691,-0.005858480930328369,0.0316658616065979,0.6736954419712629,-0.5718525342815245,-0.024266340986076565,0.4674721075185347
1728064480356261600,3.55126171875,0.16398997604846954,-0.022676628082990646,0.028569595888257027,0.5022899508476257,0.7924097776412964,-0.3461090326309204,0.018629789352416992,-0.015935897827148438,-0.019171297550201416,0.6740518251197466,-0.5712967440515152,-0.023780530816518056,0.4676628882665472
1728064480366291700,3.561291748046875,0.1624826192855835,-0.0076840962283313274,-0.003745998488739133,0.501785933971405,0.7919387221336365,-0.3479137122631073,0.02036982774734497,-0.049552977085113525,-0.033006906509399414,0.6746811575215897,-0.5705124506309868,-0.0236366857191483,0.46772016757050056
1728064480376321800,3.57132177734375,0.11471924185752869,0.024983355775475502,0.001907625701278448,0.5013138651847839,0.791807234287262,-0.3488916754722595,0.009428203105926514,-0.06840354204177856,0.002578049898147583,0.6751608786822504,-0.5700880664683423,-0.023532142837300995,0.46755042188573115
1728064480386353000,3.581352783203125,0.06387869268655777,0.03828984126448631,-0.00009240768849849701,0.5011863112449646,0.7917126417160034,-0.3492893874645233,0.01605600118637085,-0.07386314868927002,0.041809409856796265,0.6754421659628473,-0.5699216021294933,-0.023338159958898652,0.4673567838944449
1728064480396382700,3.5913828125,-0.016531459987163544,0.01093054749071598,-0.009081641212105751,0.5012161135673523,0.7917190790176392,-0.3492320775985718,0.026280105113983154,-0.07173329591751099,0.07561132311820984,0.6755069442036027,-0.569951188645707,-0.023229430850346622,0.4672324419906
1728064480406413800,3.601413818359375,-0.050772253423929214,-0.005683316849172115,-0.009267530404031277,0.5011054277420044,0.7921014428138733,-0.3485231101512909,0.036904096603393555,-0.05876427888870239,0.09270933270454407,0.6753405942659645,-0.5702547017734373,-0.02340980752784854,0.46709355533394153
1728064480416444000,3.61144384765625,-0.01651814393699169,-0.005444591399282217,-0.01661066524684429,0.5010197162628174,0.7925902605056763,-0.3475337028503418,0.050325989723205566,-0.047030746936798096,0.06388792395591736,0.6751049441667184,-0.5706798028000077,-0.023615904810332742,0.4669047004435947
1728064480426474800,3.621474853515625,0.04771517217159271,-0.0158972330391407,0.0032064500264823437,0.5010834336280823,0.7926865220069885,-0.3472222685813904,0.056411564350128174,-0.03977227210998535,0.04796674847602844,0.6750294928821313,-0.5708161714983521,-0.02361693543188955,0.46684702613006906
1728064480436504800,3.6315048828125,0.14768937230110168,-0.08442910015583038,0.014537667855620384,0.5012713074684143,0.7920011878013611,-0.3485128581523895,0.06194585561752319,-0.03749990463256836,0.035432785749435425,0.6752950463618411,-0.570261864128276,-0.023344708156408035,0.46715417721331487
1728064480446536000,3.641535888671875,0.1543472856283188,-0.12054182589054108,0.03094433806836605,0.5015686750411987,0.79074627161026,-0.3509260416030884,0.050402700901031494,-0.036107778549194336,-0.00446656346321106,0.6757127029137558,-0.5692183081534862,-0.02296740172012908,0.46784104672157867
1728064480456565800,3.651565673828125,0.10923086106777191,-0.07883790135383606,0.07222626358270645,0.5026657581329346,0.7891663312911987,-0.3529072403907776,0.016117751598358154,-0.013119757175445557,0.0012072324752807617,0.6758449037361931,-0.5683742347334583,-0.022296054202675095,0.46870801763513575
1728064480466595600,3.661595703125,0.06264285743236542,0.004745408892631531,0.0826682522892952,0.5049622058868408,0.7877089977264404,-0.35288479924201965,-0.006503403186798096,0.00036150217056274414,-0.0045525431632995605,0.6753572133116874,-0.568424978942161,-0.021228446091495205,0.46939860365973424
1728064480476627000,3.671626953125,0.06362582743167877,0.07722344249486923,0.08649174869060516,0.5078993439674377,0.7866085171699524,-0.35112014412879944,-0.02891075611114502,0.0015841126441955566,0.0019072890281677246,0.6745021597095634,-0.5692487122891723,-0.01989569133561185,0.46968813199096787
1728064480486656800,3.68165673828125,0.09254962205886841,0.06286793947219849,0.11139869689941406,0.5111166834831238,0.7856335639953613,-0.3486253023147583,-0.03160923719406128,0.0019029974937438965,0.022575289011001587,0.6735026632815684,-0.5703927523903048,-0.01842454497002012,0.4697943994782962
1728064480496687600,3.6916875,0.15723873674869537,-0.05065414682030678,0.142818421125412,0.5143287777900696,0.7840385437011719,-0.34749022126197815,-0.0007637739181518555,0.010700106620788574,0.014665305614471436,0.6727105066843314,-0.5709375033566058,-0.01688962149288988,0.4703250454483999
1728064480506718200,3.70171826171875,0.17802390456199646,-0.1544969230890274,0.1584080308675766,0.5168448686599731,0.782114565372467,-0.34809207916259766,0.02833634614944458,0.006657898426055908,-0.03275221586227417,0.6722323781847618,-0.5707073147603983,-0.015720161853167436,0.47132749036096494
1728064480516749300,3.711749267578125,0.11974994838237762,-0.2124832570552826,0.146480530500412,0.5187828540802002,0.7803099751472473,-0.3492569625377655,0.025147080421447754,-0.011679232120513916,-0.05119481682777405,0.6717874495004662,-0.5702160685255881,-0.015004903852198586,0.47257794081390936
1728064480526779100,3.721779052734375,0.08770199865102768,-0.1269286870956421,0.08499665558338165,0.5198540091514587,0.7787405848503113,-0.3511621356010437,-0.00577014684677124,-0.009026288986206055,-0.05896380543708801,0.6716894882336591,-0.5693906960293832,-0.014600408335994224,0.4737238602555464
1728064480536809200,3.731809326171875,0.07374710589647293,-0.06108500435948372,0.05712827295064926,0.5200611352920532,0.7781275510787964,-0.3522128164768219,-0.0411030650138855,0.03196138143539429,-0.062124550342559814,0.6717343789565576,-0.5689308259335246,-0.01453642984035066,0.4742143797006112
1728064480546840000,3.741840087890625,0.153217151761055,-0.06030016764998436,0.11537878960371017,0.5200998783111572,0.7775251865386963,-0.3534836173057556,-0.06840920448303223,0.051561057567596436,0.014570444822311401,0.6719472165585995,-0.5683750451887085,-0.01442230608056804,0.47458269507824363
1728064480556870100,3.7518701171875,0.19966402649879456,-0.031095359474420547,0.13581110537052155,0.5202381014823914,0.7766595482826233,-0.3551790416240692,-0.05382275581359863,0.011609315872192383,0.041015625,0.6722931328698831,-0.5676361572076813,-0.014130736869176751,0.4749856959265447
1728064480566901200,3.7619013671875,0.1300995945930481,-0.005170551594346762,0.11964943259954453,0.5203626155853271,0.776226818561554,-0.35594165325164795,-0.0456312894821167,-0.02102375030517578,0.05699130892753601,0.6724954009036954,-0.5673059419519357,-0.013897654393105016,0.47510065428545056
1728064480576931300,3.771931396484375,0.06419428437948227,-0.043310265988111496,0.19426962733268738,0.5212767720222473,0.7755081653594971,-0.3561704158782959,-0.023382604122161865,-0.026393413543701172,0.07144126296043396,0.6723079690572976,-0.5672151318145118,-0.01348266964333251,0.47548604172736075
1728064480586962200,3.781962158203125,0.046635258942842484,-0.09578146040439606,0.1588253378868103,0.5226486325263977,0.7740772366523743,-0.35727131366729736,0.04641258716583252,-0.029265403747558594,0.04695314168930054,0.6720332156505268,-0.5667421750681426,-0.012947882028048098,0.4764524909806244
1728064480596992300,3.7919921875,0.039943333715200424,-0.14405940473079681,0.08054624497890472,0.5234235525131226,0.7726844549179077,-0.35914671421051025,0.05287027359008789,-0.014154970645904541,0.019791096448898315,0.6720054137119168,-0.5659210339947282,-0.012650366611633344,0.4774745296604352
1728064480607023400,3.8020234375,0.022002151235938072,-0.16822919249534607,0.03635108470916748,0.5228757262229919,0.7719913721084595,-0.361427903175354,0.03577899932861328,-0.0031316280364990234,0.0035023093223571777,0.6722723452971879,-0.5649040439294922,-0.013017813745951427,0.4782925076018974
1728064480617053200,3.81205322265625,-0.004208614584058523,-0.1380005031824112,0.056235842406749725,0.5213010311126709,0.772158682346344,-0.36334046721458435,0.0195467472076416,-0.005740225315093994,-0.005739361047744751,0.6726533879225836,-0.5640346806441405,-0.013951762063590646,0.4787564077120359
1728064480627084300,3.822084228515625,-0.01139089372009039,-0.043418604880571365,0.05084747076034546,0.519740879535675,0.773287832736969,-0.36317405104637146,-0.004299044609069824,-0.028475940227508545,-0.018524765968322754,0.6726915417003051,-0.5640808483236301,-0.015025628421847723,0.47861588571463604
1728064480637114400,3.8321142578125,-0.005070546641945839,0.060313597321510315,0.045409027487039566,0.5193072557449341,0.7740470170974731,-0.36217525601387024,-0.03508496284484863,-0.040511488914489746,-0.018363863229751587,0.672539275480262,-0.5645132387037946,-0.01540053302736123,0.4783078000666527
1728064480647144200,3.842144287109375,0.02302047610282898,0.1014743521809578,0.044918473809957504,0.5196489095687866,0.7744674682617188,-0.3607838451862335,-0.033091962337493896,-0.0260697603225708,0.004811346530914307,0.6723186728201754,-0.5651333988774718,-0.015241965659190821,0.47789056616753794
1728064480657175300,3.85217529296875,0.016236405819654465,0.07708868384361267,0.010150909423828125,0.5203938484191895,0.7747352719306946,-0.3591316342353821,0.009635448455810547,-0.019898295402526855,0.016556352376937866,0.6720086511717053,-0.5658739664398253,-0.014860722931049373,0.47746226342720866
1728064480667205400,3.862205322265625,0.024841079488396645,-0.007183049339801073,0.007908526808023453,0.5218614339828491,0.774223268032074,-0.3581043481826782,0.04506349563598633,-0.0116959810256958,0.041331738233566284,0.6715957470870058,-0.5663458607069829,-0.014148900308799466,0.4775051333987718
1728064480677236200,3.872236328125,0.009766988456249237,-0.09734958410263062,-0.017125986516475677,0.5225324034690857,0.7737316489219666,-0.3581887185573578,0.06403064727783203,-0.018040239810943604,0.048908114433288574,0.6714030836378287,-0.5663148515495329,-0.013897023113082779,0.4778202796289381
1728064480687266300,3.882266357421875,-0.015026774257421494,-0.06788250803947449,-0.019949203357100487,0.5225244164466858,0.7735798358917236,-0.3585278391838074,0.03986865282058716,-0.019612789154052734,0.006766825914382935,0.6713250449864053,-0.5661616701680189,-0.014037469890784195,0.4781071142088962
1728064480697297400,3.89229736328125,-0.03821338713169098,0.013936031609773636,0.02292848937213421,0.5226911306381226,0.7734306454658508,-0.3586067259311676,-0.0002608299255371094,-0.013405859470367432,-0.019979268312454224,0.6712263660825785,-0.5661267193667636,-0.01404208241651026,0.478286884572917
1728064480707327500,3.902327392578125,-0.02551516704261303,0.02876211516559124,0.02709420584142208,0.5230556130409241,0.773042619228363,-0.35891205072402954,-0.010436654090881348,-0.028261244297027588,-0.005361199378967285,0.6711940643246703,-0.5659965691953754,-0.013851400801101574,0.4784919341846242
1728064480717358300,3.9123583984375,-0.05935515835881233,0.026861736550927162,-0.020883971825242043,0.5227291584014893,0.773009717464447,-0.35945791006088257,-0.006341338157653809,-0.04655420780181885,0.0013339817523956299,0.6713691174676252,-0.5657529688350593,-0.013950551168469367,0.4785313972758873
1728064480727388400,3.922388427734375,-0.11148440092802048,-0.004574749153107405,-0.019162505865097046,0.5220635533332825,0.7736252546310425,-0.359100878238678,-0.001922011375427246,-0.027440130710601807,0.025604605674743652,0.6713660139568565,-0.5658995278215662,-0.01439727392475579,0.4783492552913493
1728064480737418200,3.932418212890625,-0.13270919024944305,-0.03874315693974495,-0.009424656629562378,0.5224652290344238,0.7739006876945496,-0.3579212725162506,0.008281111717224121,-0.0005396604537963867,0.038920849561691284,0.6708551130891148,-0.5664162019245611,-0.014561936890063836,0.47844950903605427
1728064480747449000,3.942448974609375,-0.13026495277881622,-0.0013553067110478878,-0.055134620517492294,0.523695170879364,0.7741535305976868,-0.3555693030357361,-0.006269693374633789,0.012375891208648682,-0.018072843551635742,0.6699333500929172,-0.5674559579681755,-0.014459609972849088,0.47851210632338614
1728064480757479200,3.952479248046875,-0.06432174891233444,0.09921412169933319,-0.05360303819179535,0.5254191756248474,0.7741462588310242,-0.35303276777267456,-0.05096244812011719,0.02385777235031128,-0.07512903213500977,0.6690853594381873,-0.568586805419157,-0.013880399728351988,0.4783733248619887
1728064480767510300,3.96251025390625,-0.03538863733410835,0.1527250111103058,-0.06368496268987656,0.5262815952301025,0.7740299105644226,-0.35200193524360657,-0.06403189897537231,0.015886962413787842,-0.08343833684921265,0.6689320279874735,-0.5690537938588623,-0.013297043303351666,0.47804902135330274
1728064480777540000,3.9725400390625,-0.06333418935537338,0.13509893417358398,-0.06724853813648224,0.5262303352355957,0.774315595626831,-0.3514496684074402,-0.05348259210586548,0.01532655954360962,-0.04682016372680664,0.6691085493042132,-0.5693020162162128,-0.013052957839087533,0.477512839461898
1728064480787571200,3.9825712890625,-0.08818414062261581,0.056720245629549026,-0.03474865481257439,0.5261679291725159,0.7746196985244751,-0.350872665643692,-0.028136372566223145,0.02898430824279785,-0.021152079105377197,0.6691222136302821,-0.5695563851309576,-0.013007377994569382,0.47719152276732674
1728064480797601300,3.992601318359375,-0.06855271756649017,0.03877011314034462,-0.02815599925816059,0.5263466835021973,0.7746710777282715,-0.3504906892776489,-0.001032412052154541,0.01806861162185669,-0.0250588059425354,0.6690070485505926,-0.5697250222618898,-0.012963346251019674,0.47715283353750226
1728064480807632100,4.002632080078125,-0.019114060327410698,0.014336943626403809,-0.0535910539329052,0.5263696312904358,0.774924099445343,-0.34989631175994873,-0.003328979015350342,-0.0013189911842346191,-0.015475541353225708,0.6689118610685846,-0.5699853672056965,-0.012981984822529328,0.4769747435360842
1728064480817662200,4.012662109375,-0.003401809837669134,-0.012548306956887245,-0.06293528527021408,0.5261033177375793,0.7754310965538025,-0.34917306900024414,-0.01829087734222412,0.001744687557220459,-0.0065400004386901855,0.6688546971798447,-0.5702986232389168,-0.013150710299941503,0.4766758162021389
1728064480827692300,4.0226923828125,0.06373115628957748,-0.006687754299491644,-0.001725458074361086,0.5254275798797607,0.775543212890625,-0.3499408960342407,-0.031058132648468018,0.03515613079071045,-0.0052381157875061035,0.6691871254517344,-0.569957266268203,-0.013351605809383955,0.4766120551596587
1728064480837723100,4.03272314453125,0.138643279671669,0.03596394136548042,0.03016829304397106,0.523815929889679,0.7753158211708069,-0.352848619222641,-0.03677070140838623,0.038160622119903564,-0.00048404932022094727,0.6702437704417978,-0.5686732399049115,-0.013653981419438042,0.47665240616920085
1728064480847753200,4.042753173828125,0.17979444563388824,0.07713348418474197,0.040289632976055145,0.5223537683486938,0.7748134732246399,-0.3561047613620758,-0.04606598615646362,0.021878302097320557,0.007853209972381592,0.6714859136052473,-0.567239691680074,-0.013665798298624406,0.4766120727171771
1728064480857784300,4.052784423828125,0.16298556327819824,0.09075086563825607,0.032116927206516266,0.5214773416519165,0.774409294128418,-0.3582618236541748,-0.03395909070968628,-0.0020247697830200195,-0.013701856136322021,0.6724377495133078,-0.5662933688793562,-0.013450026406964103,0.4764014613344557
1728064480867814400,4.062814453125,0.07301387190818787,0.10604912787675858,-0.026384199038147926,0.520973801612854,0.774463951587677,-0.3588758409023285,-0.004372298717498779,-0.028431355953216553,-0.023006081581115723,0.6729987936130212,-0.5660274497440431,-0.013229189254254283,0.47593119484400925
1728064480877845200,4.07284521484375,0.009739957749843597,0.04702942818403244,-0.05745503306388855,0.520743727684021,0.7745883464813232,-0.3589411675930023,0.010948717594146729,-0.04323470592498779,0.03048032522201538,0.673290307823376,-0.566002543807487,-0.013058765713606814,0.4755529990145083
1728064480887875300,4.082875244140625,-0.02695653587579727,-0.04117446392774582,-0.06858038902282715,0.5202533006668091,0.7749192118644714,-0.3589380979537964,0.026316404342651367,-0.059465229511260986,0.07295772433280945,0.6734338644046685,-0.565999554269063,-0.013245715486441061,0.475348029066867
1728064480897906200,4.09290625,-0.06642178446054459,-0.10358452796936035,-0.04214052855968475,0.5194061994552612,0.7754723429679871,-0.35897043347358704,0.020220816135406494,-0.05173283815383911,0.07933765649795532,0.6734532842284848,-0.565970930814297,-0.01384527770232745,0.475337549806993
1728064480907936300,4.102936279296875,-0.0742030069231987,-0.07141833752393723,-0.032035160809755325,0.5183520317077637,0.7762802243232727,-0.35874778032302856,0.005924522876739502,-0.03506946563720703,0.034498363733291626,0.6733787540969465,-0.5660483787659772,-0.014674447992010677,0.47532596535902377
1728064480917966300,4.11296630859375,-0.024116208776831627,0.004678297787904739,-0.05837435647845268,0.517294704914093,0.7771536707878113,-0.358382910490036,-0.012488245964050293,-0.02835923433303833,-0.022415637969970703,0.6734217021907387,-0.5661916698190272,-0.015347280761066031,0.4750732967402408
1728064480927997400,4.12299755859375,-0.011242489330470562,0.07645368576049805,-0.06124071776866913,0.516226053237915,0.7780870795249939,-0.3578983247280121,-0.02651047706604004,-0.016398847103118896,-0.04079875349998474,0.6736491144780722,-0.5663933733421913,-0.015791792506095432,0.47449559290021903
