time,seconds_elapsed,rotationRateX,rotationRateY,rotationRateZ,gravityX,gravityY,gravityZ,accelerationX,accelerationY,accelerationZ,quaternionW,quaternionX,quaternionY,quaternionZ
1728330015147806200,0.08080615234375,-0.02952197939157486,-0.02665364369750023,-0.01163429394364357,0.20498985052108765,0.011234098114073277,-0.9786996245384216,-0.021197795867919922,-0.0056036077439785,0.01741117238998413,0.9946606014408058,-0.0056472015129860765,0.10304512484664705,8.218527422275736e-18
1728330015157836800,0.0908369140625,-0.04572971165180206,-0.02956288307905197,-0.03216566890478134,0.20474854111671448,0.01167052611708641,-0.9787450432777405,-0.007940739393234253,-0.0005316156893968582,0.015289843082427979,0.9946720371830211,-0.00585778935112629,0.10292313322485042,-0.00008437272750929654
1728330015167868700,0.10086865234375,-0.06821185350418091,-0.03082207962870598,-0.040243301540613174,0.20396314561367035,0.013212908059358597,-0.9788894057273865,-0.0031727999448776245,-0.005964986048638821,0.020057618618011475,0.994708348395329,-0.0066123837200322165,0.10252597752152784,-0.000283447688537049
1728330015177899500,0.1108994140625,-0.07242070883512497,-0.018660221248865128,-0.042166102677583694,0.20341023802757263,0.015452167019248009,-0.9789716601371765,-0.009669467806816101,-0.017832543700933456,0.018202006816864014,0.9947289338351228,-0.007713075524075087,0.10224812671157789,-0.0005248419337256978
1728330015187930600,0.1209306640625,-0.03900036960840225,-0.010492624714970589,-0.03771170228719711,0.20320884883403778,0.01742442138493061,-0.9789803624153137,-0.018104538321495056,-0.01747019961476326,0.01865321397781372,0.99473092690619,-0.008679412131707698,0.10214933064837278,-0.000768785973122514
1728330015197961500,0.13096142578125,-0.004375281743705273,0.0028910906985402107,-0.03595614433288574,0.20304204523563385,0.01851857267320156,-0.9789949059486389,-0.01928052306175232,-0.005334984511137009,0.015112459659576416,0.9947343321421912,-0.009207440850231806,0.10206752800858558,-0.0009829632432561354
1728330015207992600,0.14099267578125,0.012710893526673317,0.008549295365810394,-0.025205496698617935,0.2025824338197708,0.018552280962467194,-0.9790894389152527,-0.017157703638076782,0.009554402902722359,0.0045258402824401855,0.9947579008942437,-0.009208320531854388,0.10183554988742487,-0.0011399872925594962
1728330015218024400,0.1510244140625,0.016314683482050896,0.0037811724469065666,-0.02805241569876671,0.2016332745552063,0.017566945403814316,-0.9793035387992859,-0.011264696717262268,0.016765326261520386,0.0019323229789733887,0.9948116264257323,-0.008704090637245292,0.10135319365419221,-0.0012287935273097897
1728330015228055600,0.1610556640625,-0.008639069274067879,0.0003393031656742096,-0.03237312659621239,0.20084981620311737,0.016795767471194267,-0.9794780611991882,-0.002958640456199646,0.008655890822410583,0.0020305514335632324,0.9948552892083098,-0.00830355358082158,0.10095556516634364,-0.0013575197108734581
1728330015238086700,0.171086669921875,-0.06305117905139923,-0.00009053107351064682,-0.023600144311785698,0.20081044733524323,0.01687471754848957,-0.9794847369194031,-0.0037127435207366943,-0.010115081444382668,0.010444879531860352,0.9948568283024226,-0.008331712807222278,0.10093661580136692,-0.0014711990306543932
1728330015248117800,0.18111767578125,-0.10532200336456299,-0.0008253501728177071,-0.017248770222067833,0.2010105848312378,0.017228994518518448,-0.979437530040741,-0.009741723537445068,-0.021287836134433746,0.017523467540740967,0.994844953466505,-0.008505849496942589,0.10103898931123456,-0.0015092723973169934
1728330015258149600,0.191149658203125,-0.1283666044473648,0.0007914546877145767,-0.018387537449598312,0.20085987448692322,0.01759883388876915,-0.9794619083404541,-0.011711984872817993,-0.0279748123139143,0.0249025821685791,0.9948511355573689,-0.008692712085065528,0.1009628196215546,-0.0015001802862214257
1728330015268180700,0.2011806640625,-0.12632235884666443,0.0057408856227993965,-0.017544114962220192,0.2005370557308197,0.018282121047377586,-0.9795154929161072,-0.010137960314750671,-0.033525656908750534,0.019844472408294678,0.994864624560756,-0.009036359145947429,0.1007997182749831,-0.0014990797221548274
1728330015278211600,0.211211669921875,-0.11000943928956985,0.002704082988202572,-0.018533745780587196,0.2001924216747284,0.019357092678546906,-0.9795653820037842,-0.008908301591873169,-0.029931435361504555,0.01514887809753418,0.9948771287007104,-0.009575213094664987,0.10062620790667148,-0.0015143721249412595
1728330015288242700,0.22124267578125,-0.06461665034294128,0.008405485190451145,-0.02915363386273384,0.19983549416065216,0.020551525056362152,-0.9796139001846313,-0.004782453179359436,-0.009946668520569801,0.005630135536193848,0.9948891242397587,-0.010166661627791266,0.1004474231731142,-0.0016034378936027444
1728330015298273500,0.2312734375,-0.04605841264128685,0.019334299489855766,-0.024118928238749504,0.19970829784870148,0.02158038690686226,-0.979617714881897,-0.0029157549142837524,0.004725759848952293,-0.004467368125915527,0.9948898460528188,-0.010670216209704014,0.10038568214848545,-0.0017383358300860853
1728330015308305400,0.241305419921875,-0.04558543488383293,0.024546638131141663,-0.014965375885367393,0.19989590346813202,0.022236784920096397,-0.9795647859573364,-0.007238492369651794,0.006526026874780655,-0.008029818534851074,0.9948763923692864,-0.010991315523447278,0.10048284619314472,-0.0018251093465010183
1728330015318336500,0.25133642578125,-0.04086844250559807,0.020005948841571808,-0.02589578926563263,0.20010216534137726,0.02207758277654648,-0.9795262813568115,-0.007856756448745728,0.0046100374311208725,0.0013768672943115234,0.9948666007250855,-0.010905574804251156,0.1005879571748641,-0.0018809341904025823
1728330015328367600,0.26136767578125,-0.03591875731945038,0.013828214257955551,-0.02793976478278637,0.20004869997501373,0.021404564380645752,-0.979552149772644,-0.002004951238632202,-0.00028640590608119965,0.007368922233581543,0.9948729666087219,-0.010560006541262625,0.1005605562130298,-0.001953225618590563
1728330015338398700,0.271398681640625,-0.012507177889347076,0.009322411380708218,-0.02721618302166462,0.19991175830364227,0.02024444378912449,-0.9796047210693359,0.0022823959589004517,-0.006618348881602287,0.0022487640380859375,0.9948860512477709,-0.009971385398444933,0.10048980573739327,-0.002008458055564808
1728330015348429600,0.2814296875,0.014353332109749317,0.007709227968007326,-0.020878126844763756,0.19977682828903198,0.018684223294258118,-0.9796632528305054,0.005194410681724548,0.004997411742806435,0.0004609823226928711,0.994900709211526,-0.009182802848686689,0.10041933369560785,-0.00205274174297128
1728330015358461700,0.291461669921875,-0.009038276970386505,0.012612639926373959,-0.006089859176427126,0.19968222081661224,0.017375072464346886,-0.9797066450119019,0.009897172451019287,0.022251999005675316,-0.010649800300598145,0.9949115298386343,-0.008523589292919255,0.10036944290112847,-0.002065559810321312
1728330015368492500,0.301492431640625,-0.09358904510736465,0.004209195263683796,0.006096233148127794,0.1996554583311081,0.01760297454893589,-0.9797080159187317,0.0065059661865234375,0.00871843472123146,-0.01171654462814331,0.9949120010578626,-0.00864140531893984,0.10035591342531476,-0.002033257905002201
1728330015378523600,0.311523681640625,-0.1528845876455307,-0.02528051845729351,0.0036141672171652317,0.19940882921218872,0.0191956739872694,-0.9797283411026001,0.00220547616481781,-0.01991284266114235,0.00011408329010009766,0.9949172742187523,-0.009448723031380253,0.10023245561881326,-0.001966818471073616
1728330015388554500,0.321554443359375,-0.16255979239940643,-0.04604262858629227,-0.009823344647884369,0.1987558752298355,0.021145716309547424,-0.9798209071159363,0.006856247782707214,-0.037258997559547424,0.013664841651916504,0.9949405220807755,-0.010433758132963909,0.09990343747785939,-0.001920746681256339
1728330015398586600,0.331586669921875,-0.12253408133983612,-0.03649919480085373,0.0009581963531672955,0.19811315834522247,0.0228172205388546,-0.9799135327339172,0.012732729315757751,-0.0401054322719574,0.008249104022979736,0.9949639012349127,-0.011277339438259181,0.09957936539075937,-0.0018885889924659723
1728330015408617500,0.341617431640625,-0.04235335811972618,-0.016010642051696777,0.034915100783109665,0.19791480898857117,0.023534012958407402,-0.9799366593360901,0.011008471250534058,-0.0152027178555727,0.0012379288673400879,0.9949699805944742,-0.011651805182281837,0.09947814057553409,-0.001747220295477666
1728330015418648600,0.351648681640625,0.005231206305325031,-0.000819438137114048,0.05813254043459892,0.19804099202156067,0.023203028365969658,-0.9799190759658813,0.009753137826919556,0.019384248182177544,-0.004013419151306152,0.9949660440705236,-0.011512971897941569,0.09953851057033379,-0.0014717726777428262
1728330015428679700,0.3616796875,-0.0092497318983078,-0.002492915838956833,0.06081726774573326,0.19827841222286224,0.023095203563570976,-0.9798735976219177,0.013040497899055481,0.024619026109576225,-0.011566221714019775,0.9949549522999553,-0.011488008472079607,0.09965552274497824,-0.001179572900088598
1728330015438710800,0.371710693359375,-0.03055741637945175,-0.026706907898187637,0.04916327819228172,0.19844408333301544,0.023756494745612144,-0.9798242449760437,0.014553278684616089,0.010758884251117706,-0.0007818341255187988,0.9949428162813534,-0.011846299116992936,0.09973734424806141,-0.0009209874604562027
1728330015448742700,0.38174267578125,-0.04743313789367676,-0.02728923410177231,0.04666949436068535,0.19833557307720184,0.02411908656358719,-0.9798373579978943,0.01594354212284088,-0.009119700640439987,0.016641557216644287,0.9949463414721257,-0.012053047880779977,0.09967968255604895,-0.0006762420013903445
1728330015458773500,0.3917734375,-0.06888037174940109,-0.014234952628612518,0.06328468769788742,0.19825106859207153,0.02373243123292923,-0.9798639416694641,0.011145234107971191,-0.023900281637907028,0.021245718002319336,0.9949532226614218,-0.011894266069300337,0.09963216992192618,-0.00032094932992486315
1728330015468804600,0.4018046875,-0.07574526965618134,-0.004976633004844189,0.07128029316663742,0.19851192831993103,0.02295038104057312,-0.979829728603363,0.0014544427394866943,-0.020035957917571068,0.012819230556488037,0.9949446047717021,-0.01154594291841075,0.09975885013178612,0.00012412671537763515
1728330015478835500,0.41183544921875,-0.09389311075210571,-0.016464445739984512,0.07348831743001938,0.19887584447860718,0.02225777693092823,-0.9797719120979309,0.003852352499961853,-0.0006971098482608795,0.009007751941680908,0.9949298516913423,-0.011246361333032272,0.099937821971358,0.0006048960442581744
1728330015488866600,0.421866455078125,-0.16289208829402924,-0.030597038567066193,0.06346844136714935,0.1989683210849762,0.022893331944942474,-0.9797384738922119,0.012396365404129028,0.006113622337579727,0.004701852798461914,0.9949212525348125,-0.011609304970193952,0.09997989315177731,0.0010369936510228796
1728330015498898400,0.4318984375,-0.23653195798397064,-0.031754184514284134,0.054954055696725845,0.19889385998249054,0.025370365008711815,-0.9796925783157349,0.018131837248802185,-0.007838018238544464,0.010774731636047363,0.9949092218582168,-0.012890933702867117,0.09993761555254138,0.0014021376637638877
1728330015508929500,0.441929443359375,-0.2924565374851227,-0.033875659108161926,0.062359776347875595,0.19888775050640106,0.028560159727931023,-0.979606032371521,0.011942863464355469,-0.02846861444413662,0.025550246238708496,0.9948868528806013,-0.014533221491944975,0.09992881877251825,0.001789583592284994
1728330015518960600,0.451960693359375,-0.303300678730011,-0.03674574941396713,0.06299839913845062,0.1989389955997467,0.03158383443951607,-0.97950279712677,0.0031636059284210205,-0.040205053985118866,0.02628624439239502,0.9948599343663832,-0.016099896202746714,0.0999469490220594,0.0022534360314617565
1728330015528991700,0.46199169921875,-0.2550188899040222,-0.03373691067099571,0.06321517378091812,0.19915276765823364,0.033718012273311615,-0.9793882369995117,0.002186879515647888,-0.027095701545476913,0.022219598293304443,0.994829938099935,-0.017222351559460326,0.100046411647523,0.0027417689968181978
1728330015539023600,0.472023681640625,-0.16113592684268951,-0.02277027815580368,0.07898615300655365,0.19930964708328247,0.03457137569785118,-0.9793265461921692,0.0006567239761352539,0.005437169224023819,0.01236182451248169,0.9948128962977584,-0.01770309984999422,0.10011656702984044,0.0032520592035148936
1728330015549054700,0.4820546875,-0.09311873465776443,-0.005613341927528381,0.0853966474533081,0.19931745529174805,0.0346825011074543,-0.9793210029602051,0.00397530198097229,0.0196998193860054,0.0028195977210998535,0.9948096320877988,-0.017812659423377362,0.10011091383649688,0.0037853548879802036
1728330015559085600,0.49208544921875,-0.06928583979606628,0.004517589695751667,0.10630672425031662,0.1994955837726593,0.03485630452632904,-0.979278564453125,0.003186836838722229,0.02523280307650566,0.00518798828125,0.9947968285885131,-0.017953552472466806,0.10019170114909685,0.004311584623710005
1728330015569116700,0.50211669921875,-0.11424379795789719,-0.007380509749054909,0.13578365743160248,0.19983577728271484,0.03531912714242935,-0.9791926145553589,0.006157815456390381,0.01788826286792755,0.006048083305358887,0.9947722248544699,-0.018253321454772407,0.10035186361346246,0.0049658551099609404
1728330015579147500,0.5121474609375,-0.21962027251720428,-0.0272452924400568,0.14341841638088226,0.20021845400333405,0.03613956272602081,-0.9790845513343811,0.019569069147109985,-0.00771244615316391,0.019428789615631104,0.9947405954011287,-0.01874985206601443,0.10052950459021184,0.005783952248456477
1728330015589179400,0.522179443359375,-0.3754201829433441,-0.0507245734333992,0.13891686499118805,0.20022068917751312,0.0379275381565094,-0.9790164232254028,0.023488357663154602,-0.0493411161005497,0.04353058338165283,0.9947177804122005,-0.01974017210959395,0.10050924751795554,0.006687263375848418
1728330015599210500,0.53221044921875,-0.5289615392684937,-0.060430459678173065,0.16215693950653076,0.19983242452144623,0.041323259472846985,-0.9789583086967468,0.010204747319221497,-0.07664735615253448,0.062256038188934326,0.9946959550691507,-0.02154746323012378,0.10028233093769483,0.007693727318079782
1728330015609241600,0.54224169921875,-0.6385805010795593,-0.0587419718503952,0.197644904255867,0.1994040608406067,0.046298880130052567,-0.9788230061531067,0.004651650786399841,-0.08488836139440536,0.07568579912185669,0.9946515421384392,-0.02417167483972477,0.10002119385944834,0.008927652013467034
1728330015619272700,0.552272705078125,-0.6821085810661316,-0.0588250607252121,0.20360451936721802,0.198948472738266,0.052373092621564865,-0.9786095023155212,0.014567703008651733,-0.07790105044841766,0.07977527379989624,0.9945848303828312,-0.027359569128146983,0.09973315835086169,0.010276085777067649
1728330015629303800,0.5623037109375,-0.6775392293930054,-0.06812252849340439,0.2196921408176422,0.19845597445964813,0.05864211171865463,-0.9783538579940796,0.0222623348236084,-0.06253310292959213,0.08212888240814209,0.9945051280858691,-0.03065070940392969,0.09941625048807204,0.011680508453690688
1728330015639335700,0.572335693359375,-0.6835164427757263,-0.08216670900583267,0.24047385156154633,0.1978646069765091,0.06486533582210541,-0.9780808091163635,0.037303775548934937,-0.04624961316585541,0.07352453470230103,0.9944177915899498,-0.03392724357946646,0.09903804135192419,0.013178655408191431
1728330015649366500,0.582366455078125,-0.7212806940078735,-0.09999257326126099,0.23883014917373657,0.1971694678068161,0.07128719240427017,-0.9777742028236389,0.057789579033851624,-0.02990536391735077,0.07683420181274414,0.9943189638861711,-0.03730738615600065,0.0985954946924572,0.014725259171607618
1728330015659397600,0.592397705078125,-0.7962926030158997,-0.1279030293226242,0.2767716646194458,0.19627071917057037,0.07820933312177658,-0.977425754070282,0.06624142825603485,-0.012840688228607178,0.07090109586715698,0.9942052970335221,-0.04094906340387471,0.09803212083290704,0.016393681392099936
1728330015669428500,0.602428466796875,-0.8735590577125549,-0.17136336863040924,0.34241750836372375,0.19506578147411346,0.0858202874660492,-0.9770282506942749,0.07710517942905426,0.006693750619888306,0.0599139928817749,0.9940705341275495,-0.04496494409692982,0.09728321731212719,0.01838120651930971
1728330015679460600,0.612460693359375,-0.9613051414489746,-0.20359480381011963,0.40050479769706726,0.19357284903526306,0.09407804161310196,-0.9765648245811462,0.09597787261009216,0.012184157967567444,0.05691760778427124,0.9939078155524413,-0.04933674757120651,0.09635075893227138,0.020728011220228142
1728330015689491500,0.622491455078125,-1.1285533905029297,-0.24423757195472717,0.4412074685096741,0.1918371021747589,0.10344772785902023,-0.9759595990180969,0.10688413679599762,-0.008583851158618927,0.045402348041534424,0.993696668434814,-0.05429304267000407,0.09524955960027687,0.023380184646329828
1728330015699522600,0.6325224609375,-1.3879026174545288,-0.3071449100971222,0.49140751361846924,0.18968266248703003,0.11485840380191803,-0.9751040935516357,0.1175072193145752,-0.04041077941656113,0.05066561698913574,0.9934064639020816,-0.06030257392629592,0.09386981675208711,0.026374436644015984
1728330015709553400,0.642553466796875,-1.6686056852340698,-0.39045700430870056,0.5355105400085449,0.18693077564239502,0.1288377046585083,-0.9738879203796387,0.1295516937971115,-0.075508251786232,0.08454471826553345,0.9930044401230808,-0.06763336997409596,0.09209644437486222,0.029766470796059492
1728330015719584800,0.652584716796875,-1.948836088180542,-0.45816895365715027,0.561428427696228,0.18356670439243317,0.14550089836120605,-0.9721793532371521,0.14260508120059967,-0.11461713910102844,0.11133956909179688,0.9924557690619562,-0.07633669625599063,0.08990561280560158,0.03348338298740094
1728330015729616600,0.66261669921875,-2.16569185256958,-0.5175559520721436,0.5706440806388855,0.1796942502260208,0.16456443071365356,-0.9698600769042969,0.13552173972129822,-0.13567955791950226,0.12202072143554688,0.9917306535422735,-0.0862638603225055,0.08734140515228188,0.03741979849447628
1728330015739647700,0.672647705078125,-2.267674446105957,-0.5460366010665894,0.586537778377533,0.17553558945655823,0.1851610392332077,-0.9669036269187927,0.1175704300403595,-0.1359056681394577,0.12992852926254272,0.9908230260114125,-0.09697734602333653,0.08451967052517714,0.04149173552950455
1728330015749678600,0.6826787109375,-2.250790596008301,-0.5548410415649414,0.5959576964378357,0.17135149240493774,0.20606635510921478,-0.9634185433387756,0.09547889232635498,-0.11335396766662598,0.12169796228408813,0.9897594857552662,-0.1078633685998435,0.08158563495334949,0.04566508924666343
1728330015759709700,0.692709716796875,-2.1860148906707764,-0.5301162600517273,0.6129587292671204,0.16745097935199738,0.22645367681980133,-0.959520161151886,0.08177076280117035,-0.08271589875221252,0.10536360740661621,0.9885718967332481,-0.11850570670460707,0.07871674649733201,0.04985690018104802
1728330015769740500,0.702740478515625,-2.1211798191070557,-0.5227862000465393,0.6616919636726379,0.1639442890882492,0.24611885845661163,-0.9552736878395081,0.07001864910125732,-0.03508983552455902,0.07569605112075806,0.9872703657073473,-0.1288137957133131,0.07596165147392689,0.05416700875109133
1728330015779772400,0.7127724609375,-2.0494635105133057,-0.5292875170707703,0.7703209519386292,0.1607794165611267,0.26489996910095215,-0.9507775902748108,0.07501459121704102,0.003929346799850464,0.047014713287353516,0.9858641631069786,-0.13872090854321267,0.07326475841439668,0.05882751490994165
1728330015789803500,0.722803466796875,-2.0198631286621094,-0.5422727465629578,0.8838459253311157,0.15797188878059387,0.28287431597709656,-0.9460586905479431,0.09306561946868896,0.005333662033081055,0.013121068477630615,0.984341082227902,-0.14828039562959547,0.07059454609416135,0.06404645878490377
1728330015799834400,0.73283447265625,-2.1372110843658447,-0.5653223991394043,0.9441654682159424,0.15545308589935303,0.30100515484809875,-0.9408667683601379,0.1199527382850647,-0.031031429767608643,-0.017492055892944336,0.982635576893437,-0.15797909020447995,0.06789135853587144,0.06971859338126712
1728330015809865700,0.74286572265625,-2.427515745162964,-0.601239025592804,0.966537356376648,0.15292984247207642,0.32089293003082275,-0.9346871972084045,0.13216529786586761,-0.08410707116127014,-0.02693694829940796,0.9806231693357599,-0.1686283491156491,0.06496822281998095,0.07564314313911051
1728330015819897600,0.752897705078125,-2.8133044242858887,-0.7154535055160522,0.977455735206604,0.15008234977722168,0.3438446819782257,-0.9269552826881409,0.12079161405563354,-0.1413758099079132,-0.01248258352279663,0.978151407257962,-0.18091468923806636,0.06158109453915851,0.08183712760915429
1728330015829928700,0.7629287109375,-3.2148029804229736,-0.7915411591529846,0.9947175979614258,0.14665448665618896,0.37029212713241577,-0.9172655940055847,0.11581188440322876,-0.19956153631210327,0.010191619396209717,0.9751102253689594,-0.1950808920188821,0.05753812804659014,0.08827736817478683
1728330015839959600,0.77295947265625,-3.5589394569396973,-0.87361741065979,1.012109637260437,0.14291635155677795,0.3998894989490509,-0.9053525924682617,0.09655502438545227,-0.2349877655506134,0.02464580535888672,0.9714202163472202,-0.2110020700457619,0.0529323415415681,0.09496887373865083
1728330015849990700,0.78299072265625,-3.7415406703948975,-0.9203843474388123,1.0382485389709473,0.13911332190036774,0.4314309358596802,-0.8913556337356567,0.09005837142467499,-0.23381438851356506,0.04337894916534424,0.9671101609986038,-0.22809646636127787,0.047897774891510876,0.10186145619802657
1728330015860021500,0.793021484375,-3.7443132400512695,-0.957751452922821,1.081533670425415,0.13555480539798737,0.46325522661209106,-0.8757964968681335,0.09140434861183167,-0.19549402594566345,0.037234485149383545,0.9623024544406299,-0.24552858907880534,0.042631703354283144,0.10896007145015534
1728330015870053600,0.8030537109375,-3.6021838188171387,-0.9934115409851074,1.1193703413009644,0.13242121040821075,0.49380654096603394,-0.8594298958778381,0.11542722582817078,-0.14189311861991882,0.0006042122840881348,0.957184251646923,-0.2624768803520024,0.037295305641217025,0.11624691951446864
1728330015880084500,0.81308447265625,-3.3621835708618164,-1.0523110628128052,1.136952519416809,0.12945841252803802,0.5221099257469177,-0.8429956436157227,0.1373109221458435,-0.1036834716796875,-0.01705068349838257,0.9519490576197512,-0.27836765344878533,0.03183729894308398,0.12365559500555127
1728330015890115600,0.823115478515625,-3.0761470794677734,-1.1066838502883911,1.1527730226516724,0.12658610939979553,0.5476361513137817,-0.827085554599762,0.1464851051568985,-0.07581919431686401,0.0006085634231567383,0.9467562825946573,-0.29285839462206115,0.026290150096476825,0.13113056992481772
1728330015900146400,0.833146484375,-2.7764644622802734,-1.1504968404769897,1.1844334602355957,0.12387177348136902,0.5702400803565979,-0.8120849132537842,0.1425466239452362,-0.047977566719055176,-0.008822619915008545,0.941700891918747,-0.30582370687783317,0.020721740191960696,0.13871457353931962
1728330015910178600,0.843178466796875,-2.4745750427246094,-1.1432305574417114,1.2586642503738403,0.12175344675779343,0.5899588465690613,-0.7982008457183838,0.1197473406791687,-0.022927045822143555,-0.026963889598846436,0.9368231766279483,-0.31727504020054,0.015366230549572545,0.14650153752916584
1728330015920209700,0.853209716796875,-2.198867082595825,-1.1198983192443848,1.3167285919189453,0.12051209807395935,0.6069228649139404,-0.7855708003044128,0.08725151419639587,-0.002217113971710205,-0.05459338426589966,0.9321497214142609,-0.3272717089381896,0.010384502647998404,0.15453867550697997
1728330015930240500,0.863240478515625,-1.967427134513855,-1.0693937540054321,1.3594465255737305,0.12024480849504471,0.6215730905532837,-0.7740724086761475,0.051080815494060516,0.013528227806091309,-0.07987046241760254,0.9276677554092595,-0.33604952402707255,0.005874644580800638,0.16269234735544452
1728330015940271600,0.873271728515625,-1.784522294998169,-1.0402532815933228,1.3887485265731812,0.12081263214349747,0.6343674659729004,-0.7635326981544495,0.017187796533107758,0.020402371883392334,-0.08781617879867554,0.9233392820553283,-0.3438466072915473,0.0017747923229483064,0.17091220111161637
1728330015950302700,0.883302734375,-1.6514331102371216,-1.0145237445831299,1.39513099193573,0.12197210639715195,0.6457276940345764,-0.7537629008293152,0.007071405649185181,0.01656472682952881,-0.09270322322845459,0.9191222581581757,-0.35087662223473115,-0.0020392981650013335,0.17915248588067081
1728330015960334600,0.89333447265625,-1.6110881567001343,-0.9877440333366394,1.3942590951919556,0.12360133230686188,0.6562224626541138,-0.7443754076957703,0.008081957697868347,0.002713024616241455,-0.09510213136672974,0.9149303045663534,-0.35746395249150426,-0.005640718440816848,0.187323873073915
1728330015970365400,0.903365478515625,-1.66563081741333,-0.977766752243042,1.3985705375671387,0.12560628354549408,0.6665961742401123,-0.7347602248191833,0.003910258412361145,-0.020478010177612305,-0.07337576150894165,0.9105956099812976,-0.36405475044477725,-0.009166242793008674,0.19543731059295966
1728330015980396500,0.913396484375,-1.8133339881896973,-0.9519862532615662,1.4219977855682373,0.1280840039253235,0.6775171160697937,-0.7242686152458191,0.0006543397903442383,-0.03779244422912598,-0.029744505882263184,0.9059278351330985,-0.3710860562522666,-0.012682315155384994,0.20354109371440185
1728330015990427400,0.923427490234375,-1.9978978633880615,-0.9205678105354309,1.466483235359192,0.13131533563137054,0.6894117593765259,-0.7123676538467407,-0.015958964824676514,-0.04250013828277588,0.012065589427947998,0.9007560293388408,-0.378886493470562,-0.016161385173394566,0.2117128270676888
1728330016000458500,0.93345849609375,-2.11152720451355,-0.896641194820404,1.4280647039413452,0.13504426181316376,0.7020165324211121,-0.6992394328117371,-0.04108068346977234,-0.03117913007736206,0.04688042402267456,0.8951456793726287,-0.38728888910965603,-0.019687470691391082,0.2198495376635345
1728330016010490600,0.94349072265625,-2.179248571395874,-0.8405469655990601,1.2874207496643066,0.13871893286705017,0.7150825262069702,-0.685137927532196,-0.07611218094825745,0.007588982582092285,0.04584050178527832,0.8892970470049214,-0.3960911437270425,-0.023298681472330912,0.2274196671163505
1728330016020521700,0.953521728515625,-2.1497015953063965,-0.7858131527900696,1.1435022354125977,0.14199680089950562,0.7281442880630493,-0.6705540418624878,-0.1269059181213379,0.07268267869949341,0.030997157096862793,0.8834232742306996,-0.40496294424464685,-0.026981199053165757,0.2341799962574477
1728330016030552600,0.963552490234375,-2.0217814445495605,-0.7129920125007629,1.0850138664245605,0.1452171504497528,0.7404749989509583,-0.6562078595161438,-0.1415856033563614,0.14172714948654175,0.0182684063911438,0.87769657488543,-0.41348109642010894,-0.030486958939497877,0.24031781167602714
1728330016040583700,0.973583740234375,-1.7886793613433838,-0.6814697980880737,1.0922651290893555,0.14885130524635315,0.7513287663459778,-0.6429217457771301,-0.13229559361934662,0.19529592990875244,0.00016051530838012695,0.8722536240112818,-0.4212023680078737,-0.03358130978675931,0.24624047453327336
1728330016050615600,0.983615478515625,-1.494061827659607,-0.6725233793258667,1.1021183729171753,0.15288996696472168,0.7601674795150757,-0.6314823627471924,-0.12640078365802765,0.21502166986465454,-0.03691357374191284,0.8672602112336585,-0.42772191924933617,-0.03623248595149974,0.25219183190321504
1728330016060646700,0.993646728515625,-1.2209380865097046,-0.6635064482688904,1.0929677486419678,0.1571224331855774,0.7669873237609863,-0.6221276521682739,-0.14503754675388336,0.19423997402191162,-0.0691869854927063,0.8627991308759856,-0.4329605475590174,-0.03848808190647774,0.2581498450347904
1728330016070677500,1.003677490234375,-0.9766479134559631,-0.6214791536331177,1.054336428642273,0.161467045545578,0.7720632553100586,-0.6146922707557678,-0.18459944427013397,0.16023337841033936,-0.0713733434677124,0.858872073674166,-0.43706629196184044,-0.04033507737512599,0.2639787026463696
1728330016080708600,1.01370849609375,-0.778205394744873,-0.5711438655853271,0.9987250566482544,0.16579288244247437,0.7757421135902405,-0.6088815927505493,-0.22649241983890533,0.13359010219573975,-0.08118182420730591,0.8554480706616175,-0.44024012169945725,-0.04180707596978357,0.26953522848442657
1728330016090739500,1.023739501953125,-0.5971825122833252,-0.5280643105506897,0.9468048810958862,0.17007574439048767,0.7782864570617676,-0.6044371724128723,-0.25315994024276733,0.12744462490081787,-0.07473146915435791,0.8524734646171439,-0.44264940191671653,-0.04292927011131487,0.27478618072394156
1728330016100771600,1.033771484375,-0.4039187729358673,-0.48933449387550354,0.8654983043670654,0.17414988577365875,0.7797649502754211,-0.6013637185096741,-0.2539992034435272,0.15033447742462158,-0.06338536739349365,0.8499726193486177,-0.444301018183851,-0.04375785172893261,0.2796930754364542
1728330016110802700,1.043802734375,-0.13438189029693604,-0.4619964361190796,0.7837169170379639,0.17776289582252502,0.7799542546272278,-0.6000596284866333,-0.2332439124584198,0.17568838596343994,-0.0470350980758667,0.848088278697603,-0.44497865384748875,-0.04431899716669503,0.2842110993854159
1728330016120833500,1.05383349609375,0.15863241255283356,-0.44938182830810547,0.7443085312843323,0.1810116171836853,0.7785075306892395,-0.6009664535522461,-0.20876742899417877,0.17524302005767822,-0.03433316946029663,0.8469175317985577,-0.4444489604102388,-0.04451845115501949,0.28846790832249414
1728330016130864600,1.06386474609375,0.38305792212486267,-0.44865989685058594,0.74186772108078,0.18411166965961456,0.7754764556884766,-0.603936493396759,-0.18337930738925934,0.15701866149902344,-0.030813872814178467,0.8463503901816916,-0.44279170753295083,-0.04435371636723033,0.2926762536270345
1728330016140895500,1.0738955078125,0.5014074444770813,-0.4244009256362915,0.7330838441848755,0.18720608949661255,0.771369993686676,-0.6082286238670349,-0.17226779460906982,0.1321638822555542,-0.007768571376800537,0.8461518841347442,-0.4404069908931744,-0.0439017167450454,0.29688575384300675
1728330016150927600,1.083927734375,0.5570092797279358,-0.37217679619789124,0.7215443253517151,0.19040511548519135,0.7667277455329895,-0.6130859851837158,-0.18303519487380981,0.1019856333732605,0.041339218616485596,0.8461426784885204,-0.437712665698704,-0.04318142181676001,0.300974161028827
1728330016160958500,1.09395849609375,0.5383080244064331,-0.29738056659698486,0.7257183194160461,0.193911612033844,0.76191246509552,-0.6179705262184143,-0.21089471876621246,0.0704086422920227,0.07973206043243408,0.8461784899151306,-0.4350132864146329,-0.04216837073127343,0.3049051057314168
1728330016170989600,1.103989501953125,0.4429343044757843,-0.2171170711517334,0.719072699546814,0.19786109030246735,0.7573845982551575,-0.6222696900367737,-0.23518414795398712,0.04492253065109253,0.09126383066177368,0.8460912912260412,-0.43265691275120866,-0.040904209957077255,0.30864927217395827
1728330016181020400,1.1140205078125,0.23751698434352875,-0.1520611047744751,0.6599342823028564,0.20202310383319855,0.7538121938705444,-0.6252630949020386,-0.25172102451324463,0.026949584484100342,0.0903967022895813,0.8457228732142077,-0.431044328863137,-0.0396137360757899,0.312064874737033
1728330016191052500,1.124052490234375,-0.06831604987382889,-0.12602144479751587,0.5864784121513367,0.20588262379169464,0.7519763708114624,-0.6262138485908508,-0.2585712969303131,0.013038218021392822,0.0897148847579956,0.8449047764530763,-0.4305752058080206,-0.03870493350765375,0.31502810710439855
1728330016201083400,1.13408349609375,-0.35940033197402954,-0.13703788816928864,0.5593602657318115,0.2093963772058487,0.7521806955337524,-0.6248018145561218,-0.24993903934955597,-0.017622709274291992,0.08332842588424683,0.8434952700514902,-0.431425323615343,-0.0383573995589048,0.3176736822071055
1728330016211114500,1.144114501953125,-0.47257158160209656,-0.1641128659248352,0.6012656092643738,0.2128450572490692,0.7536203861236572,-0.6218950152397156,-0.223282128572464,-0.06778359413146973,0.0551377534866333,0.8416154337382312,-0.4331018259313235,-0.038409816522210295,0.3203607439461616
1728330016221145600,1.1541455078125,-0.458382785320282,-0.19163928925991058,0.6713829040527344,0.21659442782402039,0.7551723718643188,-0.6187095642089844,-0.19326378405094147,-0.10998499393463135,-0.001316070556640625,0.839523054869636,-0.4349270741597375,-0.03851816224489543,0.3233509836671172
1728330016231176700,1.1641767578125,-0.345538854598999,-0.18655356764793396,0.6876769065856934,0.22059690952301025,0.7562112212181091,-0.6160207986831665,-0.18286196887493134,-0.0973520278930664,-0.031348586082458496,0.8374721333287523,-0.4364715365222744,-0.038499227520825394,0.3265745184232464
1728330016241208600,1.17420849609375,-0.054691314697265625,-0.11362528800964355,0.6605201363563538,0.22484594583511353,0.7560059428215027,-0.6147351861000061,-0.2031480073928833,-0.029870688915252686,-0.010035872459411621,0.8358545758926613,-0.4372525021931606,-0.03798220580396619,0.32971926704269056
1728330016251239400,1.184239501953125,0.4174978733062744,-0.048566028475761414,0.6310371160507202,0.22924524545669556,0.7534623146057129,-0.6162314414978027,-0.23826324939727783,0.05182027816772461,0.004140377044677734,0.8351484796814289,-0.43651341926028625,-0.036610148312874555,0.3326301720459303
1728330016261270500,1.1942705078125,0.9114702939987183,-0.002434486523270607,0.642790675163269,0.2339077740907669,0.7478205561637878,-0.6213304996490479,-0.260656476020813,0.10909777879714966,-0.01737189292907715,0.8355437205887608,-0.43378137563997715,-0.03418306349125683,0.33545777384109526
1728330016271301600,1.204301513671875,1.2219594717025757,0.039857685565948486,0.6973537802696228,0.23903587460517883,0.739423930644989,-0.6293759346008301,-0.2676614224910736,0.133439838886261,-0.025027751922607422,0.8367618447828353,-0.42937454207453235,-0.03081440651543409,0.33840445883847664
1728330016281332500,1.21433251953125,1.2351402044296265,0.1027655377984047,0.7333043217658997,0.24481089413166046,0.7297413945198059,-0.6383925676345825,-0.25704848766326904,0.1267649531364441,0.0060988664627075195,0.8382141194141554,-0.4243623485943928,-0.026838390388808593,0.3414576314530187
1728330016291364400,1.2243642578125,1.0060235261917114,0.1184307411313057,0.7150587439537048,0.2508775591850281,0.7206387519836426,-0.6463282704353333,-0.24103569984436035,0.07597684860229492,0.05242568254470825,0.8393657893253565,-0.4198969634817216,-0.022856086818111854,0.3444259287644965
1728330016301395500,1.2343955078125,0.715218186378479,0.09231125563383102,0.6711394786834717,0.2565952241420746,0.7132896184921265,-0.6522091031074524,-0.22293439507484436,0.00024181604385375977,0.07072722911834717,0.8399682442920063,-0.41655398129442456,-0.0194482034061821,0.3472142515312469
1728330016311426300,1.24442626953125,0.6964150071144104,0.06372775137424469,0.6661125421524048,0.26185113191604614,0.7071009874343872,-0.6568425297737122,-0.19237792491912842,-0.07213705778121948,0.06753283739089966,0.8402236950927269,-0.41388997001475475,-0.016547536808250222,0.34992197038200346
1728330016321457700,1.254457763671875,0.9860934615135193,0.03681597858667374,0.7057448625564575,0.26706263422966003,0.6998117566108704,-0.6625262498855591,-0.15243864059448242,-0.09113866090774536,0.04405701160430908,0.8407231792896953,-0.41055593844023275,-0.013442076285603472,0.35277135751496513
1728330016331489500,1.264489501953125,1.5669595003128052,0.044477418065071106,0.7192599177360535,0.272324800491333,0.6894528865814209,-0.671188473701477,-0.12301760911941528,0.0041964054107666016,-0.00825488567352295,0.8420233935452025,-0.40535673286851187,-0.009574561698247238,0.35579623331662547
1728330016341520600,1.274520751953125,2.401956558227539,0.11625760048627853,0.6763124465942383,0.2776695787906647,0.6740962266921997,-0.6844660639762878,-0.12462398409843445,0.20374184846878052,-0.05036664009094238,0.8447395772896636,-0.39717574878707695,-0.004288084942300746,0.35867521671141445
1728330016351551500,1.284551513671875,3.1677160263061523,0.22875963151454926,0.6275821924209595,0.283216267824173,0.652727484703064,-0.702663004398346,-0.14385780692100525,0.38162004947662354,-0.09711110591888428,0.8490693356749328,-0.38556542415626455,0.002791367157460951,0.36112695909040854
1728330016361582600,1.29458251953125,3.394606590270996,0.4284623861312866,0.6097475290298462,0.2895098328590393,0.6271763443946838,-0.7230724692344666,-0.16267886757850647,0.44373124837875366,-0.0924944281578064,0.8542541355772727,-0.3719326486453714,0.011395530740958995,0.3630233643572538
1728330016371613400,1.304613525390625,2.921483278274536,0.5466831922531128,0.6374207139015198,0.2970232367515564,0.6018809676170349,-0.7412937879562378,-0.17190119624137878,0.3920002579689026,0.06339156627655029,0.8589301415576809,-0.3590715801156134,0.020510826850769926,0.36453523915184766
1728330016381645600,1.3146455078125,2.1267597675323486,0.5329312086105347,0.6236886382102966,0.30492648482322693,0.5809967517852783,-0.7546274662017822,-0.1639658510684967,0.2896850109100342,0.20607399940490723,0.862184266468865,-0.3490927367358677,0.02864492981482904,0.365994533380911
1728330016391676400,1.324676513671875,1.4121004343032837,0.49560412764549255,0.6079533696174622,0.3123992383480072,0.5656993389129639,-0.7631454467773438,-0.14642944931983948,0.14082837104797363,0.25222015380859375,0.8640232265954914,-0.3423289520161685,0.03518758119361293,0.36747324695231987
1728330016401707500,1.33470751953125,0.8065910935401917,0.4285361170768738,0.6807649731636047,0.31960031390190125,0.5551532506942749,-0.7678935527801514,-0.13594558835029602,-0.07109862565994263,0.24640917778015137,0.8646399916963132,-0.33826677006187256,0.04035863801240433,0.3692484161721961
1728330016411738400,1.34473828125,0.24261412024497986,0.40980222821235657,0.7291575074195862,0.32674354314804077,0.5488868951797485,-0.7693905234336853,-0.10526227951049805,-0.20675432682037354,0.1850857138633728,0.8640932792130829,-0.3366617274404879,0.044312710166973725,0.3715345293824341
1728330016421770500,1.3547705078125,0.035089168697595596,0.4370540976524353,0.6749728322029114,0.33391252160072327,0.5457329154014587,-0.768555760383606,-0.08263084292411804,-0.16229480504989624,0.14309799671173096,0.8628544119933834,-0.33683961683783553,0.04755202575138949,0.3738449277501419
1728330016431801600,1.364801513671875,0.20064038038253784,0.4348408579826355,0.6385583877563477,0.34084928035736084,0.5427191257476807,-0.7676442265510559,-0.0909866988658905,-0.039652109146118164,0.09117639064788818,0.861699004129348,-0.3370497366415228,0.050747902224024075,0.37589474131703315
1728330016441832400,1.37483251953125,0.44815298914909363,0.4745083749294281,0.6776592135429382,0.34789320826530457,0.5379224419593811,-0.7678604125976562,-0.07575279474258423,0.07415330410003662,0.006095945835113525,0.8608967264107421,-0.3363131645429416,0.0544356258405531,0.37787149454681535
1728330016451863600,1.384863525390625,0.5873238444328308,0.5631547570228577,0.7364330291748047,0.3557336628437042,0.5313332676887512,-0.7688552737236023,-0.04128062725067139,0.153359055519104,0.00512242317199707,0.8602827956990649,-0.3348200132604545,0.05888901383169144,0.37992240986551584
1728330016461894400,1.394894287109375,0.5386250019073486,0.6500720381736755,0.7331647872924805,0.36436358094215393,0.5242279767990112,-0.769690990447998,-0.035063713788986206,0.16409599781036377,0.04834699630737305,0.8596435863264937,-0.3332812559065387,0.0638601714102107,0.38191407111740505
1728330016471926500,1.404926513671875,0.33147501945495605,0.6790620684623718,0.7312164306640625,0.37337005138397217,0.5181288123130798,-0.7695046067237854,-0.06592077016830444,0.12653976678848267,0.10281753540039062,0.8587460799082401,-0.33243369876488066,0.06881527228838652,0.383806411346201
1728330016481957400,1.414957275390625,0.1384882628917694,0.6499252319335938,0.7601410150527954,0.38238006830215454,0.513530969619751,-0.7681610584259033,-0.08721411228179932,0.0705145001411438,0.16118168830871582,0.8574554623885401,-0.33246781293196165,0.07338001884672937,0.385811578114998
1728330016491988500,1.424988525390625,0.025996338576078415,0.615086555480957,0.8066360950469971,0.39129626750946045,0.5098863840103149,-0.7660959959030151,-0.08486932516098022,0.010438323020935059,0.14413249492645264,0.8558181582725012,-0.33306963734799516,0.07756681524096015,0.38810216293602673
1728330016502019300,1.435019287109375,-0.05025368928909302,0.5974862575531006,0.841167688369751,0.4001634120941162,0.5067098736763,-0.7636192440986633,-0.07075673341751099,-0.02798062562942505,0.10692673921585083,0.8539466366161829,-0.33398106174633546,0.08152932053529155,0.3906209967953232
1728330016512050700,1.44505078125,-0.16444657742977142,0.5817365646362305,0.8822083473205566,0.4090782403945923,0.5040062665939331,-0.7606790661811829,-0.05144280195236206,-0.05249863862991333,0.10452061891555786,0.8518266038800567,-0.33523451294799583,0.0853128436545454,0.3933585955902789
1728330016522082600,1.45508251953125,-0.3478260040283203,0.5347818732261658,0.9034087061882019,0.41788363456726074,0.502191424369812,-0.7570845484733582,-0.026068508625030518,-0.05831325054168701,0.12173908948898315,0.8493873955306068,-0.3370230457477426,0.08873097675004006,0.3963374035703901
1728330016532113700,1.46511376953125,-0.7269320487976074,0.4836918115615845,0.8921731114387512,0.4262843430042267,0.5023343563079834,-0.7522910833358765,-0.00747641921043396,-0.06205719709396362,0.13493573665618896,0.846473043158192,-0.339856983419688,0.09138756425902833,0.39953588689599545
1728330016542144500,1.47514453125,-1.2752090692520142,0.43513667583465576,0.8870382308959961,0.434251070022583,0.5059746503829956,-0.7452621459960938,-0.007096588611602783,-0.07840806245803833,0.18598175048828125,0.8427563355094956,-0.34459454354775315,0.09286298868254224,0.40297987682445874
1728330016552175600,1.485175537109375,-1.8681217432022095,0.39712873101234436,0.9199668765068054,0.44196105003356934,0.5136522054672241,-0.7354126572608948,-0.016652911901474,-0.10959947109222412,0.24002087116241455,0.8379896937481309,-0.3516290011352385,0.09300921536995725,0.4067916951152868
1728330016562207500,1.49520751953125,-2.5140562057495117,0.38018354773521423,0.9971472024917603,0.4497992694377899,0.525366485118866,-0.7222676873207092,0.0007774531841278076,-0.1601473093032837,0.26317650079727173,0.8319251938999961,-0.36114892731251963,0.09185643817566118,0.41113772307784735
1728330016572238300,1.50523828125,-2.948446273803711,0.1507253497838974,1.0210652351379395,0.45749539136886597,0.5405176281929016,-0.7060726284980774,0.04866907000541687,-0.1621912121772766,0.28837859630584717,0.824580294846872,-0.3728120878238497,0.08930186737042634,0.41605715669407534
1728330016582269400,1.51526953125,-2.85245943069458,0.025388997048139572,0.960719645023346,0.463188499212265,0.5565011501312256,-0.6897556781768799,0.11885794997215271,-0.06817412376403809,0.2650883197784424,0.8169376260535612,-0.3845327649622657,0.08518638340937222,0.4212964645072886
1728330016592300300,1.52530029296875,-2.604302406311035,0.13214969635009766,1.0312178134918213,0.4693669378757477,0.570464551448822,-0.6739916801452637,0.26868537068367004,0.08001762628555298,0.11403989791870117,0.8094746652009288,-0.39538785274545013,0.08168601931841582,0.4263173497611629
1728330016602331400,1.535331298828125,-2.409727096557617,0.2551119327545166,1.1138969659805298,0.4769740402698517,0.5820774435997009,-0.6585450172424316,0.21472206711769104,0.13095051050186157,0.01404428482055664,0.8020273111224121,-0.40551428910799325,0.07928207076404321,0.4313057124689172
1728330016612363500,1.545363525390625,-2.271883487701416,0.1983756422996521,1.017282247543335,0.4848569333553314,0.5921400785446167,-0.6436488628387451,0.057409852743148804,0.0978776216506958,-0.0003330707550048828,0.7947922477092911,-0.414957677834493,0.07736722086774192,0.43603867944611807
1728330016622394600,1.55539453125,-2.2040178775787354,0.12736591696739197,0.9029226899147034,0.4916251599788666,0.6017488837242126,-0.6294466853141785,-0.0074485838413238525,0.05630171298980713,0.015219330787658691,0.7879136468988591,-0.4238354839599649,0.07510094137625843,0.44035840448936975
1728330016632425500,1.565425537109375,-1.9983521699905396,0.15335234999656677,0.8475086688995361,0.4977972209453583,0.6106426119804382,-0.6158844232559204,0.010396689176559448,0.05102425813674927,0.09813845157623291,0.7813761945728217,-0.43215208828706425,0.0728174046402895,0.44428992749334595
1728330016642456600,1.57545654296875,-1.5917891263961792,0.2730044424533844,0.7770430445671082,0.5041185617446899,0.6175792217254639,-0.6037054657936096,0.06030398607254028,0.04842114448547363,0.1209784746170044,0.7755486994895248,-0.439372332132547,0.0714087369182868,0.44763474491301203
1728330016652487400,1.5854873046875,-1.1536469459533691,0.3409461975097656,0.7719441652297974,0.5108540654182434,0.6218870878219604,-0.5935356020927429,0.10924780368804932,0.06748974323272705,0.0644676685333252,0.7706362649198615,-0.4451440852815511,0.07126662075937902,0.4504303060663175
1728330016662519600,1.59551953125,-0.805083692073822,0.24636271595954895,0.6433619260787964,0.5171301960945129,0.623863160610199,-0.5859787464141846,0.12692791223526,0.08568578958511353,0.034159958362579346,0.7667350082525062,-0.4492742325648366,0.07185609325884482,0.45288715017358777
1728330016672550400,1.60555029296875,-0.6770310401916504,0.1903228759765625,0.479208379983902,0.5219237804412842,0.6252312660217285,-0.5802425742149353,0.10496824979782104,0.051419734954833984,0.03313863277435303,0.7637198748545767,-0.45238519243824704,0.07229358288064704,0.45481119078069465
1728330016682581500,1.61558154296875,-0.5639036893844604,0.20873570442199707,0.40501564741134644,0.5257740020751953,0.6265194416046143,-0.5753563046455383,0.11031901836395264,0.08434164524078369,0.0851067304611206,0.7612413929304072,-0.45502834402111253,0.07260197441910107,0.4562779027039534
1728330016692612400,1.6256123046875,-0.5352632403373718,0.29343342781066895,0.46876320242881775,0.5299288034439087,0.627373218536377,-0.5705946683883667,0.13286715745925903,0.08512067794799805,0.0930556058883667,0.7589295615034369,-0.4575237561355373,0.07331218865375044,0.45751858423379754
1728330016702644500,1.63564453125,-0.6151410341262817,0.2757881283760071,0.5789566040039062,0.5349672436714172,0.6277646422386169,-0.5654394030570984,0.1303006410598755,0.03538233041763306,0.06575977802276611,0.7562806538902754,-0.4601658745990015,0.07434832929141948,0.4590853656931257
1728330016712675600,1.645675537109375,-0.8157509565353394,0.269003689289093,0.546627402305603,0.5401145219802856,0.6286643743515015,-0.5595153570175171,0.15815812349319458,-0.01358252763748169,0.06705319881439209,0.753217479656452,-0.46325627279218295,0.07507304488445173,0.4608915995597242
1728330016722706400,1.65570654296875,-0.9793238639831543,0.27477315068244934,0.4598269760608673,0.5448020100593567,0.6309962868690491,-0.5522990822792053,0.14825206995010376,-0.03388941287994385,0.0739513635635376,0.7498273649818137,-0.46712040838331215,0.07515967238460448,0.4625022047556216
1728330016732737500,1.665737548828125,-0.9392529129981995,0.31909534335136414,0.43512266874313354,0.5492669939994812,0.6338965892791748,-0.5445006489753723,0.12588858604431152,-0.004959821701049805,0.06676316261291504,0.7464043868412161,-0.4712884182527319,0.07507936992752474,0.4638219624482707
1728330016742768600,1.6757685546875,-0.8682799935340881,0.34258681535720825,0.4917505383491516,0.5540658235549927,0.6361808776855469,-0.5369216799736023,0.15317898988723755,0.009571075439453125,0.044291675090789795,0.7430614876760652,-0.47524802782850384,0.07535559719727028,0.4651025629357356
1728330016752800500,1.685800537109375,-0.8812312483787537,0.30669015645980835,0.4934600293636322,0.5590269565582275,0.6380603313446045,-0.5294976830482483,0.19735115766525269,0.0029003024101257324,0.02360779047012329,0.7396729152222156,-0.4790778015309046,0.07573385282922837,0.46651128231798733
1728330016762831400,1.695831298828125,-0.8850845694541931,0.26787567138671875,0.4421049654483795,0.5635860562324524,0.6400499939918518,-0.5222132802009583,0.20194733142852783,0.004877984523773193,0.0059931278228759766,0.7363277816487054,-0.48284108250938745,0.07588052593931427,0.4678974148090448
1728330016772862500,1.705862548828125,-0.8819074034690857,0.23941931128501892,0.37261030077934265,0.5675559639930725,0.6423133611679077,-0.5150861144065857,0.16366040706634521,-0.009165167808532715,-0.05826282501220703,0.7331156256068425,-0.48653898424189196,0.07574131675031466,0.469131644538823
1728330016782893300,1.715893310546875,-0.8261868953704834,0.1863502413034439,0.263389527797699,0.5707474946975708,0.6448699235916138,-0.5083208680152893,0.13188916444778442,-0.0063048601150512695,-0.12668895721435547,0.730179151123714,-0.49006939843485137,0.0753097646232535,0.4701050996748582
1728330016792924400,1.72592431640625,-0.6999883651733398,0.1048462763428688,0.1723019927740097,0.5729292631149292,0.6475151181221008,-0.502470076084137,0.11719518899917603,0.010199666023254395,-0.1671009063720703,0.7277090172182703,-0.49315531208391084,0.07458423020769908,0.47082332555729445
1728330016802956500,1.73595654296875,-0.6654239892959595,0.07580476999282837,0.13996349275112152,0.5743677616119385,0.6499509215354919,-0.49765995144844055,0.10548752546310425,-0.006045281887054443,-0.18481987714767456,0.7256612799605637,-0.4957187257026652,0.0737086302555657,0.4714294190751979
1728330016812987600,1.745987548828125,-0.8547642230987549,0.11191802471876144,0.12146303802728653,0.5757262706756592,0.6529186964035034,-0.4921751618385315,0.08656615018844604,-0.06820189952850342,-0.158352792263031,0.723421798403471,-0.49863903293254136,0.07260537744030987,0.4719622897416158
1728330016823018500,1.7560185546875,-1.0805816650390625,0.1340252012014389,0.1044749990105629,0.577124297618866,0.6570085883140564,-0.4850434958934784,0.05521506071090698,-0.1449694037437439,-0.09768959879875183,0.7206586467552438,-0.5024224787314816,0.07106264052870508,0.47241168163701386
1728330016833049600,1.766049560546875,-1.2054613828659058,0.13492444157600403,0.07752247899770737,0.5783884525299072,0.6620460748672485,-0.4766148626804352,0.044994056224823,-0.20084917545318604,-0.07422739267349243,0.7174633275825196,-0.5068785494520982,0.06904129278305811,0.4728147057171734
1728330016843081500,1.77608154296875,-1.1746184825897217,0.1646767407655716,0.01695287600159645,0.5794810652732849,0.6674090623855591,-0.46772509813308716,0.06033515930175781,-0.15765869617462158,-0.05810803174972534,0.7142233819388829,-0.5115297547111709,0.06689363408038204,0.47301945968312503
1728330016853112600,1.786112548828125,-1.0543962717056274,0.13290779292583466,-0.09906347841024399,0.5799875259399414,0.6728267073631287,-0.4592587649822235,0.05908101797103882,-0.03339189291000366,-0.0523531436920166,0.7113597533531374,-0.5159296307491715,0.06470879829199003,0.4728600810077483
1728330016863143400,1.796143310546875,-0.8541985154151917,0.07393687963485718,-0.1754104346036911,0.5795062780380249,0.6779873371124268,-0.452223002910614,0.04340320825576782,0.09039950370788574,-0.057008564472198486,0.7091958032054546,-0.5196027442006383,0.06246189763964369,0.4723905608827451
1728330016873174500,1.806174560546875,-0.7985365986824036,0.08848684281110764,-0.16858156025409698,0.5786773562431335,0.6826569437980652,-0.44621965289115906,0.03681635856628418,0.09239798784255981,-0.03481370210647583,0.7074461136494883,-0.5227312508638712,0.06035078951979572,0.47183661529783016
1728330016883205400,1.816205322265625,-0.7855955362319946,0.1388549506664276,-0.14151212573051453,0.5781651139259338,0.687066912651062,-0.44007280468940735,0.04329472780227661,-0.01809108257293701,-0.05138227343559265,0.7056894235711854,-0.5258713641853994,0.05850560397675911,0.47120987622271854
1728330016893237500,1.826237548828125,-0.783017098903656,0.11216096580028534,-0.08777380734682083,0.5779584050178528,0.6911255121231079,-0.43394652009010315,0.05982840061187744,-0.1678100824356079,-0.07411009073257446,0.7038544124650421,-0.5289591008165576,0.0568243452218192,0.4707039494623006
1728330016903268600,1.8362685546875,-0.8807532787322998,0.17381340265274048,-0.07287687808275223,0.5780707597732544,0.6951133012771606,-0.4273775815963745,0.09581828117370605,-0.23924177885055542,-0.0832882821559906,0.7017860624264106,-0.5322273644249126,0.05518374025002531,0.4703031298677944
1728330016913299500,1.846299560546875,-0.9854021668434143,0.21393324434757233,-0.13205790519714355,0.578230082988739,0.6996416449546814,-0.4197039306163788,0.10751503705978394,-0.18174314498901367,-0.04828307032585144,0.6994595320866851,-0.5359988926200175,0.05341551129872601,0.46968949479630695
1728330016923330600,1.85633056640625,-0.9529217481613159,0.2303321808576584,-0.1743108183145523,0.5780738592147827,0.7046337723731995,-0.4114873707294464,0.06651836633682251,-0.07548338174819946,0.011462926864624023,0.697105502840089,-0.5400075534169615,0.05146029163077242,0.4688150645849867
1728330016933362400,1.866362548828125,-0.7994972467422485,0.2832397520542145,-0.14833514392375946,0.5780135989189148,0.7091457843780518,-0.403748095035553,0.02962183952331543,0.020773649215698242,0.06156975030899048,0.6950409334394194,-0.5437246947795928,0.04989402234460208,0.4677521776487339
1728330016943393500,1.8763935546875,-0.6909002065658569,0.2612937390804291,-0.11201655864715576,0.5782303810119629,0.7128453850746155,-0.39686399698257446,0.016160428524017334,0.05261176824569702,0.019910871982574463,0.6932335183488537,-0.5469821475657058,0.048770178674042965,0.4667539224197677
1728330016953424400,1.88642431640625,-0.586499810218811,0.24390631914138794,-0.11577241867780685,0.5784447193145752,0.7159641981124878,-0.3908922076225281,0.017441391944885254,0.043099403381347656,-0.018256932497024536,0.6916927017867178,-0.5497839757895966,0.04786930654927374,0.46584026763593817
1728330016963455500,1.89645556640625,-0.4809827208518982,0.3095497488975525,-0.06365009397268295,0.5789018273353577,0.7186356782913208,-0.38527312874794006,0.02592599391937256,0.0117415189743042,-0.0019949674606323242,0.6903122789967766,-0.5523806163959248,0.04731908166160201,0.4648714309770723
1728330016973486300,1.906486328125,-0.5292011499404907,0.20042258501052856,0.09993217885494232,0.5800536274909973,0.7203759551048279,-0.3802579939365387,0.052712976932525635,-0.04396909475326538,-0.032232820987701416,0.6888888488310319,-0.5546568672138361,0.04718855493696327,0.4642855215320605
1728330016983518700,1.916518798828125,-0.48629996180534363,0.105601005256176,0.2615783214569092,0.5820124745368958,0.7212817072868347,-0.3755186200141907,0.09079325199127197,-0.12693661451339722,-0.07127398252487183,0.6869137052230206,-0.5568053716936632,0.046994353275442484,0.46465996553541555
1728330016993549600,1.926549560546875,-0.09950459748506546,-0.02863738127052784,0.22896021604537964,0.5840228199958801,0.720949649810791,-0.37302666902542114,0.1504741907119751,-0.296205997467041,-0.16666144132614136,0.6854257460717885,-0.5579128835625494,0.047115533074379094,0.4655157245380517
1728330017003580700,1.93658056640625,0.497232049703598,-0.14273864030838013,0.19200272858142853,0.5852012038230896,0.7189764976501465,-0.3749832808971405,0.15405654907226562,-0.3801092505455017,-0.3689437508583069,0.6855387193761494,-0.5569693972387582,0.04788996110628658,0.46639937558510014
1728330017013611500,1.946611572265625,0.7231281995773315,-0.07670152187347412,0.3491414487361908,0.586615264415741,0.7150567173957825,-0.3802320063114166,0.09546774625778198,-0.1754906177520752,-0.34373652935028076,0.6866927817747714,-0.5544538541552166,0.04964798664532018,0.46751362772517135
1728330017023642600,1.956642578125,0.8710465431213379,-0.11231756955385208,0.26336798071861267,0.5886539220809937,0.7100034952163696,-0.3864991068840027,0.04112201929092407,-0.006146073341369629,-0.17331534624099731,0.6881566868643489,-0.5513903288471836,0.05214553793269735,0.4687109238384542
1728330017033674500,1.966674560546875,0.7382446527481079,-0.06207277998328209,0.21988148987293243,0.5899631977081299,0.7053795456886292,-0.39291632175445557,0.004778563976287842,-0.041393280029296875,-0.11591851711273193,0.6899503614968211,-0.5482470660277255,0.05447008083897964,0.4694962473342621
1728330017043705300,1.976705322265625,0.17335356771945953,-0.0024888142943382263,0.3445477783679962,0.5918177366256714,0.7018582820892334,-0.3964172303676605,-0.03226274251937866,-0.1554105281829834,-0.045538365840911865,0.6905533821912171,-0.5464733449839622,0.056198528438059524,0.4704726976455839
1728330017053736400,1.986736328125,-0.08937326073646545,0.0747956931591034,0.3651838004589081,0.5945751070976257,0.6996666193008423,-0.3961653411388397,0.06274288892745972,-0.13284844160079956,0.06508013606071472,0.6896828818373782,-0.5464670397997221,0.05736817392751245,0.4716143728858396
1728330017063767600,1.996767578125,0.05547553673386574,0.05485234782099724,0.359512597322464,0.5973838567733765,0.69761061668396,-0.3955652713775635,0.10011059045791626,-0.005380392074584961,0.07845711708068848,0.6887126912732372,-0.5466203388975365,0.058511307357275624,0.47271282642279155
1728330017073799700,2.006799560546875,0.3550880253314972,0.12754184007644653,0.2770627439022064,0.6000698208808899,0.6948356628417969,-0.396383136510849,0.07243072986602783,0.10405349731445312,-0.012537181377410889,0.6884208713032219,-0.5460637948962445,0.06018940574920924,0.4735696913480859
1728330017083830500,2.01683056640625,0.8674285411834717,0.24245989322662354,0.11440353095531464,0.6021567583084106,0.6912719011306763,-0.3994376063346863,0.02012711763381958,0.21191108226776123,0.00827854871749878,0.6895597427325222,-0.5443684651488312,0.06280261365157042,0.4735252747769644
1728330017093861600,2.026861572265625,1.1970709562301636,0.29444974660873413,0.04401272535324097,0.6038004755973816,0.6865556240081787,-0.40505102276802063,-0.07853198051452637,0.2867262363433838,0.05348849296569824,0.6921334664981222,-0.5413502516737067,0.06644088496575633,0.47273326342090394
1728330017103892500,2.036892578125,1.2468023300170898,0.44373270869255066,-0.014799727126955986,0.6054183840751648,0.6813400983810425,-0.4113929271697998,-0.09293675422668457,0.34131920337677,0.1208503246307373,0.6953618223969603,-0.5378660497784933,0.07073650538338513,0.4713473216412061
1728330017113923600,2.046923583984375,1.029745101928711,0.4749007523059845,-0.09668341279029846,0.6070812344551086,0.6769014596939087,-0.41624122858047485,-0.08330810070037842,0.2790312170982361,0.22138649225234985,0.6983423888751584,-0.5350352448253672,0.07494443239812613,0.46950878675309216
1728330017123955500,2.05695556640625,0.9202864766120911,0.4586312472820282,-0.17428632080554962,0.60809326171875,0.6736992597579956,-0.4199426770210266,-0.026489317417144775,0.1706610918045044,0.2562616467475891,0.7011116317744877,-0.5327886567421863,0.07851693168437043,0.46734757109683916
1728330017133986600,2.066986572265625,0.8701758980751038,0.3880268335342407,-0.14061518013477325,0.6087439060211182,0.6709246635437012,-0.42342761158943176,0.04010552167892456,0.1191297173500061,0.12986373901367188,0.7036771094171302,-0.530686925544851,0.08159400356195808,0.4653517838920925
1728330017144017400,2.077017333984375,0.930748701095581,0.4483884572982788,-0.07997047901153564,0.6098588109016418,0.6676996350288391,-0.42690664529800415,0.0844464898109436,0.07125294208526611,0.05572137236595154,0.7061505121151973,-0.5285194903473297,0.08493422862306733,0.4634702564780529
1728330017154048500,2.087048583984375,0.7488537430763245,0.4899364411830902,-0.04490622878074646,0.6114917397499084,0.6643550395965576,-0.4297790825366974,0.049610435962677,-0.021197140216827393,-0.002929598093032837,0.7083604647682709,-0.5265808401728771,0.08844813261434949,0.4616436639712744
1728330017164079600,2.09707958984375,0.3893600404262543,0.5481041073799133,0.03977563604712486,0.6137233376502991,0.6619403958320618,-0.43032383918762207,0.010071158409118652,-0.06228524446487427,0.04171299934387207,0.7096139410221818,-0.5257840853443724,0.09159246404625179,0.4600108532622658
1728330017174111500,2.107111572265625,0.17975620925426483,0.5021376609802246,0.08324187994003296,0.6164968609809875,0.6602845788002014,-0.428900808095932,-0.0008658170700073242,-0.06343704462051392,0.1017066240310669,0.7099355997502759,-0.5259783788579362,0.09432038488292535,0.45873944349928136
1728330017184142600,2.117142578125,0.1942075937986374,0.4784819185733795,0.05178622528910637,0.619094967842102,0.6591455936431885,-0.42690563201904297,0.012405157089233398,-0.04511672258377075,0.040675193071365356,0.7099545665396491,-0.5265061212978507,0.09663584367165486,0.45762129609938174
1728330017194173700,2.127173583984375,0.41869208216667175,0.36910057067871094,0.02795945294201374,0.6211876273155212,0.6575449705123901,-0.4263337254524231,0.018414974212646484,-0.005018174648284912,-0.036114394664764404,0.7104894723840441,-0.5263402870494933,0.09899010065041977,0.456477295803636
1728330017204204500,2.13720458984375,0.4618896245956421,0.3418465554714203,0.07103821635246277,0.6230220794677734,0.6553215980529785,-0.42707958817481995,0.010660052299499512,0.043210506439208984,-0.09098684787750244,0.7113751496410599,-0.5255274367834882,0.1013958483711995,0.4555053644369596
1728330017214236400,2.147236328125,0.3683743178844452,0.3544238805770874,0.10663455724716187,0.6251457333564758,0.6529001593589783,-0.4276847839355469,0.027335286140441895,0.06421715021133423,-0.014896392822265625,0.7120990127853514,-0.5247565453901457,0.10386616273629684,0.4547058444221301
1728330017224267500,2.157267578125,0.25562798976898193,0.34447458386421204,0.12065557390451431,0.6274488568305969,0.6508497595787048,-0.42743727564811707,0.028999507427215576,0.02802908420562744,0.022102713584899902,0.7124407286344618,-0.5244187934898143,0.10614278338338778,0.45403406276437763
1728330017234298600,2.167298583984375,0.24661999940872192,0.35412725806236267,0.12974920868873596,0.629776656627655,0.6489831805229187,-0.4268514811992645,0.02535933256149292,0.008594334125518799,0.020937174558639526,0.7126083863864845,-0.5242604328167193,0.10828321846242421,0.4534478841144994
1728330017244329700,2.177329833984375,0.19439008831977844,0.3615524172782898,0.11621101945638657,0.6321730613708496,0.6472241878509521,-0.4259788691997528,0.03388822078704834,0.012626886367797852,0.019286364316940308,0.7126947159610931,-0.5242298392716235,0.1104248481323252,0.4528306025315054
1728330017254360600,2.187360595703125,0.16485722362995148,0.3497167229652405,0.08318089693784714,0.6343737840652466,0.645795464515686,-0.42487406730651855,0.03998827934265137,0.040285468101501465,0.014794111251831055,0.7127360745468116,-0.5243390885791506,0.11238989926501047,0.4521550582680786
1728330017264392700,2.197392822265625,0.12528051435947418,0.355804979801178,0.08828697353601456,0.6364473104476929,0.6446183919906616,-0.42355844378471375,0.03670930862426758,0.059559404850006104,0.021825045347213745,0.7127191115989812,-0.5245717641625739,0.11421574656031529,0.4514537985013336
1728330017274423600,2.207423583984375,0.14298582077026367,0.381111741065979,0.10729209333658218,0.6386787295341492,0.6434071660041809,-0.42203855514526367,0.03861302137374878,0.057474732398986816,0.04365113377571106,0.7126197528344079,-0.5248810223666363,0.11610613809564127,0.45076850291287784
1728330017284454700,2.21745458984375,0.21924570202827454,0.38652727007865906,0.09707780182361603,0.6410028338432312,0.6420098543167114,-0.4206407070159912,0.03606009483337402,0.0448644757270813,0.04817366600036621,0.7126083142915031,-0.5250868885419677,0.11816683902061446,0.4500107452809937
1728330017294485500,2.227485595703125,0.3660447895526886,0.38433218002319336,0.12025343626737595,0.6433875560760498,0.6400123238563538,-0.4200434386730194,0.0073081254959106445,0.029817938804626465,0.01330515742301941,0.712901185831114,-0.5248322437232052,0.120537935131284,0.4492142637654041
1728330017304516600,2.2375166015625,0.43725401163101196,0.369488000869751,0.11192972213029861,0.6457446813583374,0.6375486254692078,-0.4201733469963074,0.010901987552642822,0.01723659038543701,-0.04978209733963013,0.7134573085918373,-0.5241737614029753,0.12310640621802486,0.44840316555501175
1728330017314548500,2.247548583984375,0.6500465869903564,0.36300015449523926,0.12058072537183762,0.6480790972709656,0.6344812512397766,-0.42122095823287964,0.02614569664001465,0.02833002805709839,-0.05830174684524536,0.7143857056936609,-0.5229904437734965,0.12597821277523655,0.4475082106049568
1728330017324579600,2.25757958984375,0.6305056810379028,0.3625972270965576,0.13720844686031342,0.6504557132720947,0.6308730840682983,-0.4229732155799866,0.027827858924865723,0.026567041873931885,-0.06651344895362854,0.7155507870435245,-0.521395200330928,0.12907529832430847,0.4466245843623479
1728330017334610700,2.267610595703125,0.6540011763572693,0.3690641224384308,0.15687483549118042,0.6529707908630371,0.627158522605896,-0.4246188700199127,0.02673184871673584,0.01763206720352173,-0.0023830831050872803,0.7166618851035229,-0.5198100803278785,0.132242370529535,0.445763453623071
1728330017344641800,2.277641845703125,0.6050456166267395,0.3546319305896759,0.14839506149291992,0.6555268168449402,0.6233929991722107,-0.4262225925922394,-0.007730245590209961,0.0026293396949768066,0.007185697555541992,0.7177221152774016,-0.5182247495394107,0.135395025611579,0.44495636575015046
1728330017354673700,2.287673583984375,0.4374452233314514,0.3247881531715393,0.1140378788113594,0.6578372716903687,0.6202913522720337,-0.42718687653541565,-0.0439000129699707,-0.03421658277511597,-0.06976136565208435,0.7185321911814365,-0.5170340554072463,0.1381388780452232,0.4441901119786744
1728330017364704500,2.29770458984375,0.2928012013435364,0.29532745480537415,0.11278246343135834,0.6598910093307495,0.6179665327072144,-0.4273887872695923,-0.05428504943847656,-0.05735868215560913,-0.0785469114780426,0.7190151097679929,-0.5163298239267137,0.14038919621846646,0.44352183717620247
1728330017374735600,2.307735595703125,0.18019330501556396,0.2870692312717438,0.12170938402414322,0.6619014739990234,0.6161709427833557,-0.4268720746040344,-0.021810591220855713,-0.06728178262710571,-0.059059321880340576,0.7191278660026411,-0.5160655700021536,0.14226837018315588,0.4430475366492112
1728330017384766500,2.317766357421875,0.1837342381477356,0.27665600180625916,0.10547315329313278,0.6638597249984741,0.6146435141563416,-0.4260322153568268,-0.0019488930702209473,-0.04149293899536133,0.009589344263076782,0.7191165644960124,-0.5159906075477297,0.1440055008170021,0.4425916495327931
1728330017394797600,2.327797607421875,0.2224697768688202,0.2241174876689911,0.12611424922943115,0.6656508445739746,0.6129717826843262,-0.425646036863327,-0.017579615116119385,-0.005244731903076172,0.02946680784225464,0.7192098049726634,-0.5157105726326021,0.14566943046537692,0.44222197920033857
1728330017404829400,2.337829345703125,0.16029055416584015,0.18586650490760803,0.11470473557710648,0.6672965288162231,0.611271858215332,-0.42551371455192566,-0.017211198806762695,0.02192211151123047,0.04491370916366577,0.7192904309352581,-0.5153494950577486,0.14716672380553142,0.44201588088874066
1728330017414860500,2.347860595703125,-0.01555310096591711,0.22077052295207977,0.09418188035488129,0.6688101887702942,0.6102327704429626,-0.4246278405189514,-0.009676337242126465,0.028500139713287354,0.08061844110488892,0.7191055325333171,-0.5154417516589924,0.14834380708324707,0.44181567770926017
1728330017424891600,2.3578916015625,-0.21485981345176697,0.24459277093410492,0.10957175493240356,0.6704434752464294,0.6100635528564453,-0.4222889244556427,-0.03007793426513672,-0.0044879913330078125,0.07486152648925781,0.7183864268190303,-0.5163302977349492,0.1491930143612644,0.44166204418646793
1728330017434922800,2.3679228515625,-0.3198261260986328,0.21787679195404053,0.1291782259941101,0.672182559967041,0.6103881001472473,-0.4190428853034973,-0.05961853265762329,-0.044714272022247314,0.027777016162872314,0.7172310894932477,-0.517739102474309,0.1497490514888719,0.44170241069485827
1728330017444953600,2.37795361328125,-0.35777536034584045,0.19074450433254242,0.14650554955005646,0.6739156246185303,0.6108948588371277,-0.41550612449645996,-0.08578091859817505,-0.05336916446685791,-0.03433823585510254,0.7158607897457594,-0.519344133317812,0.15009532622151964,0.44192364102373005
1728330017454985700,2.38798583984375,-0.2408161759376526,0.15801532566547394,0.1689232438802719,0.6756256818771362,0.6110931634902954,-0.4124259352684021,-0.0974854826927185,-0.014916956424713135,-0.0714607834815979,0.7145800688988417,-0.5207160740976102,0.15047191846275848,0.44225368328674014
1728330017465016600,2.3980166015625,-0.07234194874763489,0.1539262980222702,0.18865273892879486,0.6773940920829773,0.6105043888092041,-0.41039207577705383,-0.07969212532043457,0.028961002826690674,-0.09519267082214355,0.7136299810568159,-0.5214964761492165,0.15114689635630513,0.4426378700657457
1728330017475047700,2.408047607421875,0.10549721866846085,0.17448139190673828,0.2161751687526703,0.6793250441551208,0.609035074710846,-0.4093821048736572,-0.0661202073097229,0.06692928075790405,-0.06525778770446777,0.7131070717283433,-0.5216379256013205,0.15232471255114519,0.44291010103748046
1728330017485078500,2.41807861328125,0.19022835791110992,0.1888619214296341,0.2319088578224182,0.6814825534820557,0.6068252325057983,-0.4090776741504669,-0.08309400081634521,0.12100368738174438,-0.04249092936515808,0.7128595780417002,-0.5213134044379522,0.15392690943622755,0.4431365062485471
1728330017495110400,2.4281103515625,0.17581667006015778,0.217482328414917,0.24062246084213257,0.683800220489502,0.6043983101844788,-0.4088028371334076,-0.074104905128479,0.13510364294052124,-0.01043236255645752,0.7126543488785425,-0.520912989218939,0.15571843945870587,0.44331142173710825
1728330017505141500,2.4381416015625,0.16865915060043335,0.22701777517795563,0.2332950383424759,0.6861613392829895,0.6020691394805908,-0.40828362107276917,-0.053760826587677,0.10012513399124146,0.016300499439239502,0.7123954257945858,-0.5206189942594188,0.15752478549423315,0.44343509365338096
1728330017515172600,2.448172607421875,0.2592816650867462,0.2594020366668701,0.26530835032463074,0.6886640787124634,0.5995116829872131,-0.4078328311443329,-0.057652175426483154,0.057867467403411865,0.026591956615447998,0.7121647456018927,-0.5202385759355205,0.1594848372213038,0.4435513987975821
1728330017525203700,2.45820361328125,0.35881170630455017,0.2630694508552551,0.293536514043808,0.6914742588996887,0.5962643623352051,-0.40783828496932983,-0.07080787420272827,0.034564435482025146,0.012727230787277222,0.7121335581310179,-0.5194921708095215,0.161891152104133,0.4436043919032842
1728330017535234800,2.46823486328125,0.40183401107788086,0.22008003294467926,0.2946039140224457,0.6942777037620544,0.592614471912384,-0.408394992351532,-0.05206584930419922,0.03139370679855347,0.0035945773124694824,0.7122546655561578,-0.5184340732999699,0.16440379965282642,0.4437236601221847
1728330017545266700,2.4782666015625,0.3296671509742737,0.1819124072790146,0.2835904061794281,0.6968420147895813,0.5890506505966187,-0.40918266773223877,-0.0023536086082458496,0.04104578495025635,0.023013204336166382,0.7124004017996164,-0.5173151104891427,0.16671457128772385,0.44393346668108247
1728330017555297500,2.488297607421875,0.19778460264205933,0.1584499627351761,0.2546903192996979,0.6991772651672363,0.5860456824302673,-0.4095138609409332,0.033534467220306396,0.014036774635314941,0.02348172664642334,0.7123268483873164,-0.516530695225666,0.16863900372586332,0.4442379583180328
1728330017565328600,2.49832861328125,0.07491488009691238,0.13408789038658142,0.22282002866268158,0.7011997103691101,0.5838016867637634,-0.40926095843315125,0.05172991752624512,-0.028885245323181152,0.03987616300582886,0.712015548814149,-0.5161751342967111,0.17009629395288334,0.4445945537110997
1728330017575359500,2.508359375,0.007386435754597187,0.11985164135694504,0.2008766382932663,0.7029925584793091,0.5821450352668762,-0.40854448080062866,0.04723626375198364,-0.036872148513793945,0.04771989583969116,0.7115112302392386,-0.5161595136887815,0.1711931959624528,0.44499883726011485
1728330017585390600,2.518390625,-0.008621026761829853,0.11819781363010406,0.2002260386943817,0.7046695351600647,0.5807280540466309,-0.4076710343360901,0.03260457515716553,-0.00978994369506836,0.05659681558609009,0.7109500613761022,-0.5162654545434276,0.17214663158581636,0.4454047871191175
1728330017595422500,2.52842236328125,0.012278796173632145,0.14239023625850677,0.20399600267410278,0.7064254283905029,0.5792478919029236,-0.4067368805408478,0.0077315568923950195,0.004751682281494141,0.05758526921272278,0.7103655003857965,-0.516380445246435,0.17315539346924755,0.4458129729269786
1728330017605453600,2.53845361328125,0.10007043182849884,0.1666891872882843,0.19614340364933014,0.7082170248031616,0.577631413936615,-0.40591946244239807,-0.0066789984703063965,0.007512688636779785,0.06601464748382568,0.7099214811728354,-0.51637493267008,0.17434790301445366,0.446061926622672
1728330017615484700,2.548484619140625,0.16330492496490479,0.152568519115448,0.20024414360523224,0.7100628614425659,0.5756512880325317,-0.4055075943470001,-0.026301324367523193,0.013124346733093262,0.032796382904052734,0.7096547810852497,-0.5161004266925343,0.17574571994836188,0.446255456322551
1728330017625515800,2.558515869140625,0.21264532208442688,0.1265382468700409,0.17772018909454346,0.7117691040039062,0.5735011100769043,-0.4055629372596741,-0.020530760288238525,0.01815849542617798,0.0027614235877990723,0.7095892565681448,-0.51557793252987,0.1771946073430403,0.4463906225506438
1728330017635547600,2.568547607421875,0.214486762881279,0.08967775851488113,0.17114192247390747,0.7132216691970825,0.5713799595832825,-0.4060046970844269,-0.031291186809539795,0.026871442794799805,-0.018357515335083008,0.7096522095159354,-0.5149069189533375,0.17851756717428974,0.4465378646222432
1728330017645578500,2.57857861328125,0.16509391367435455,0.07314671576023102,0.15984851121902466,0.7145357131958008,0.5693758726119995,-0.40650931000709534,-0.03237634897232056,0.016973674297332764,-0.02839672565460205,0.7096938334962887,-0.5142549433678182,0.17968638908681617,0.4467541505899842
1728330017655609600,2.588609619140625,0.1280752420425415,0.07483990490436554,0.17492227256298065,0.7158093452453613,0.5675827860832214,-0.4067760407924652,-0.039036333560943604,-0.033372581005096436,-0.012291371822357178,0.7096101118940931,-0.5137671340162359,0.18070780841729397,0.44703632723428766
1728330017665640700,2.598640625,0.12651249766349792,0.07070028781890869,0.16859912872314453,0.7171154022216797,0.5658040642738342,-0.40695351362228394,-0.04662907123565674,-0.06856590509414673,0.011338889598846436,0.7094771318971079,-0.5133248492898673,0.18171638303326246,0.44734654170503435
1728330017675671600,2.608671630859375,0.08986872434616089,0.06892465054988861,0.16168902814388275,0.7183673977851868,0.5641440749168396,-0.4070500135421753,-0.03906142711639404,-0.0711478590965271,0.006155848503112793,0.7093211283423146,-0.5129418845435942,0.18266258394199913,0.44764772168048855
1728330017685703400,2.618703369140625,0.050688304007053375,0.057817138731479645,0.14820145070552826,0.7195346355438232,0.562728226184845,-0.4069482088088989,-0.03317910432815552,-0.04823237657546997,0.028408169746398926,0.7090745182552008,-0.5127086112591022,0.18345511677242143,0.4479815147597825
1728330017695734500,2.628734619140625,-0.021851809695363045,0.049228280782699585,0.13773655891418457,0.7206075191497803,0.5615795254707336,-0.406636506319046,-0.01821500062942505,-0.03553271293640137,0.04550671577453613,0.7087348097373419,-0.5126354315348537,0.18408329727497283,0.4483449633477237
1728330017705765400,2.638765380859375,-0.10130162537097931,0.031419988721609116,0.11093982309103012,0.7215035557746887,0.5609093904495239,-0.40597206354141235,-0.011557936668395996,-0.029033780097961426,0.041912615299224854,0.7082443322561045,-0.5128374670991598,0.18442262327826608,0.4487493931321194
1728330017715796700,2.648796630859375,-0.13566452264785767,0.026951365172863007,0.10033831000328064,0.721230685710907,0.5615735650062561,-0.4055384695529938,-0.015908539295196533,-0.025547564029693604,0.03830516338348389,0.7079736325355122,-0.5132302940509182,0.18391690872748573,0.44893498076444244
1728330017725827600,2.65882763671875,-0.08596009016036987,0.032366372644901276,0.08733196556568146,0.721061646938324,0.5619165301322937,-0.405364066362381,-0.018760621547698975,-0.017086148262023926,0.03370565176010132,0.7077444559675906,-0.513456635497265,0.18352179896964543,0.44919912844551224
1728330017735859700,2.668859619140625,-0.022425254806876183,0.03411553427577019,0.0798703208565712,0.7213569283485413,0.5613967180252075,-0.40555864572525024,-0.010678887367248535,0.00835120677947998,0.038188040256500244,0.707585248217322,-0.5133388628571047,0.18358617092137955,0.4495580346147549
1728330017745890600,2.678890625,0.045619308948516846,0.035490792244672775,0.05974747613072395,0.7219542860984802,0.5603808164596558,-0.4059007167816162,-0.0073089599609375,0.02308475971221924,0.036119163036346436,0.7074964523971266,-0.5130276459695466,0.18398989837960875,0.44988791648474885
1728330017755921700,2.688921630859375,0.13854917883872986,0.06505049765110016,0.06316643953323364,0.7226724028587341,0.5589388012886047,-0.4066102206707001,-0.01629739999771118,0.013250529766082764,0.030404776334762573,0.7075925095275586,-0.512436348116349,0.18467237261210162,0.45013083607281734
1728330017765952500,2.698952392578125,0.19171252846717834,0.05519653484225273,0.05180273577570915,0.7234382033348083,0.5576126575469971,-0.4070691466331482,-0.031803131103515625,-0.00448155403137207,0.006632745265960693,0.7077955058016281,-0.5118946987977739,0.18555118542733814,0.4500668064234031
1728330017775983600,2.708983642578125,0.12958991527557373,0.0013983352109789848,0.04242228344082832,0.7241703867912292,0.556547224521637,-0.40722543001174927,-0.03152823448181152,0.0045337677001953125,-0.020432651042938232,0.7079098312391775,-0.5115334570776687,0.1863351892183918,0.449973847070047
1728330017786015500,2.719015380859375,-0.026833252981305122,-0.026871653273701668,0.033350225538015366,0.7246431708335876,0.5560687184333801,-0.4070379436016083,-0.009479045867919922,0.0022351741790771484,-0.00024968385696411133,0.7078003698282056,-0.5115038664875788,0.18666768424989308,0.4500418383690672
1728330017796046600,2.729046630859375,-0.16796228289604187,-0.03374441713094711,0.05186452344059944,0.7249306440353394,0.5562669038772583,-0.4062545895576477,-0.00004667043685913086,-0.0485001802444458,0.022206127643585205,0.7073569950900226,-0.5119401474597859,0.18652073520141021,0.4503037410926644
1728330017806077400,2.739077392578125,-0.2736077308654785,-0.021907733753323555,0.07170453667640686,0.7252421379089355,0.5568509697914124,-0.4048961400985718,-0.005103588104248047,-0.09223610162734985,0.041340172290802,0.7065947123867472,-0.5127553143394697,0.18610188433933675,0.45074607775350367
1728330017816108800,2.74910888671875,-0.29836317896842957,-0.0018720785155892372,0.08374814689159393,0.7256237864494324,0.5578147768974304,-0.40288054943084717,-0.0014111995697021484,-0.07504189014434814,0.05717742443084717,0.7056025021073351,-0.5139311810107778,0.18556526914652052,0.4511821510307724
1728330017826140700,2.759140625,-0.22922377288341522,0.010732130147516727,0.09155866503715515,0.7260617613792419,0.5587335228919983,-0.40081316232681274,-0.0035886764526367188,-0.007616579532623291,0.048762381076812744,0.7046237738069256,-0.5151020898177063,0.18510335646691414,0.4515661198919631
1728330017836171500,2.769171630859375,-0.06657381355762482,0.02191133424639702,0.07167524099349976,0.7264413237571716,0.5592145919799805,-0.3994519114494324,0.0005635619163513184,0.055729806423187256,0.0074994564056396484,0.7040054255009914,-0.5158301651871088,0.18491424877005222,0.4517766750042428
1728330017846202600,2.77920263671875,0.10360058397054672,0.03155144304037094,0.07230907678604126,0.7267347574234009,0.558759868144989,-0.399554580450058,-0.00653529167175293,0.10264754295349121,-0.03374925255775452,0.7039573722194894,-0.5157074817463443,0.18511755172664968,0.45190832348992416
1728330017856233500,2.7892333984375,0.2298840880393982,0.037867769598960876,0.09572092443704605,0.7270998954772949,0.5574995875358582,-0.40064939856529236,-0.022723734378814697,0.12366807460784912,-0.05909794569015503,0.7043140193808036,-0.5149566611075208,0.18572811596791786,0.45195847816155876
1728330017866264600,2.7992646484375,0.16280119121074677,0.02205551788210869,0.08680412918329239,0.7276529669761658,0.5560440421104431,-0.40166670083999634,-0.015250742435455322,0.07203823328018188,-0.07747450470924377,0.7046404080419992,-0.5141873582024947,0.18648861977079434,0.4520123968799346
1728330017876296400,2.80929638671875,0.03287222236394882,0.009874697774648666,0.0809267982840538,0.7283956408500671,0.5547745227813721,-0.40207570791244507,-0.0024893879890441895,-0.00762486457824707,-0.043511420488357544,0.7046323380951547,-0.513759614691276,0.187118167974524,0.4522510298728212
1728330017886327600,2.81932763671875,-0.033057261258363724,0.009436608292162418,0.1055530458688736,0.729363739490509,0.5536273717880249,-0.4019019305706024,0.0015932321548461914,-0.0400928258895874,-0.00990229845046997,0.7042880170737147,-0.5136520025710186,0.18764503617625167,0.4526911716561664
1728330017896358400,2.8293583984375,-0.045930180698633194,-0.006342727690935135,0.09974362701177597,0.730364203453064,0.5527105927467346,-0.40134647488594055,0.010892391204833984,-0.009482383728027344,-0.016912221908569336,0.703785810207838,-0.5137670125635602,0.18806971769627015,0.45316517362323044
1728330017906389800,2.8393896484375,-0.036243464797735214,-0.010128144174814224,0.06660538166761398,0.7308961153030396,0.5524184703826904,-0.40078017115592957,0.019866764545440674,0.023967087268829346,-0.03687244653701782,0.703409707123592,-0.5139933233826309,0.1882040877871803,0.45343678242254726
1728330017916420600,2.849420654296875,-0.022750692442059517,-0.002263297326862812,0.07061849534511566,0.7310119867324829,0.5524893403053284,-0.4004710018634796,0.008398354053497314,0.037659645080566406,-0.03251242637634277,0.70320409783321,-0.5141762628403787,0.18811503738299526,0.45358518773695167
1728330017926452700,2.85945263671875,0.03931054845452309,0.01704595237970352,0.07349125295877457,0.7309672236442566,0.5525403618812561,-0.40048250555992126,-0.013941466808319092,0.04430723190307617,-0.0064694881439208984,0.703162844398423,-0.514203558278644,0.18802514410562463,0.45365557478854146
1728330017936483600,2.869483642578125,0.13388179242610931,0.010826139710843563,0.051275696605443954,0.7307319045066833,0.5524169206619263,-0.4010813534259796,-0.0292854905128479,0.02224433422088623,-0.0066945552825927734,0.7034308741830324,-0.5139067660495096,0.18804031469318766,0.4535698283555617
1728330017946514700,2.8795146484375,0.1971483826637268,0.004198863171041012,0.043405789881944656,0.7305094003677368,0.5517336130142212,-0.40242519974708557,-0.03287762403488159,-0.003256380558013916,-0.021723389625549316,0.7039592849542454,-0.5131662643163296,0.18827583223571837,0.4534908002894008
1728330017956545500,2.889545654296875,0.17956851422786713,-0.00035871192812919617,0.04102492332458496,0.7306414842605591,0.5504941940307617,-0.4038802683353424,-0.027028262615203857,-0.008990228176116943,-0.01207435131072998,0.7044528671636352,-0.5122676649672182,0.18879012144981555,0.4535265965721567
1728330017966576600,2.89957666015625,0.10014133900403976,0.008876864798367023,0.025570066645741463,0.7309909462928772,0.5493557453155518,-0.4047967791557312,-0.012652993202209473,-0.026864290237426758,0.007396876811981201,0.7047285122531297,-0.5116232587729211,0.18932314978676137,0.453603381525787
1728330017976608500,2.9096083984375,0.05848350748419762,0.015951232984662056,0.012548539787530899,0.7311608791351318,0.548790454864502,-0.4052564799785614,-0.011678516864776611,-0.04805803298950195,0.030927836894989014,0.7048843398887237,-0.5112939405784243,0.18960553899520732,0.4536147227183686
1728330017986639600,2.9196396484375,0.06048327311873436,0.03738834708929062,0.021776393055915833,0.7312495112419128,0.5484484434127808,-0.40555959939956665,-0.020617246627807617,-0.035722553730010986,0.04299551248550415,0.7050292898987047,-0.5110670160564991,0.18981754666157039,0.4535566199165568
1728330017996670500,2.92967041015625,0.04000323638319969,0.032572340220212936,0.025279516354203224,0.7313064336776733,0.5482751131057739,-0.40569111704826355,-0.024870336055755615,-0.0037652254104614258,0.03655046224594116,0.7051468077938695,-0.5109391640357821,0.18998845726572477,0.45344627507197477
1728330018006701800,2.939701904296875,0.006356059107929468,0.02122887223958969,0.02152738720178604,0.7311875224113464,0.5485492944717407,-0.40553465485572815,-0.010286152362823486,0.0015910863876342773,0.03798094391822815,0.7052062965401863,-0.5110254432199702,0.1899622927475135,0.45326738282573464
1728330018016732700,2.949732666015625,-0.045395419001579285,0.02095898613333702,0.03536464273929596,0.7307829856872559,0.5491927266120911,-0.4053932726383209,0.004370212554931641,-0.03219437599182129,0.03440624475479126,0.7052473595473895,-0.5112114702335385,0.1896475648955212,0.4531256669680648
1728330018026764500,2.9597646484375,-0.04987219348549843,0.03255092725157738,0.05223124101758003,0.7303882837295532,0.5493643283843994,-0.4058716595172882,-0.010204017162322998,-0.045946359634399414,0.03164982795715332,0.7053280158469951,-0.5110998143907397,0.18931760189011562,0.45326398964029674
1728330018036795600,2.969795654296875,0.0411645732820034,0.028321243822574615,0.07603803277015686,0.7304443120956421,0.5490330457687378,-0.406218945980072,-0.041815221309661865,-0.019095301628112793,0.0046076178550720215,0.7053156316972113,-0.5109301241873085,0.18931701536401765,0.45347472796203825
1728330018046826500,2.979826416015625,0.17400597035884857,0.036090217530727386,0.07772354781627655,0.7312964200973511,0.5475591421127319,-0.40667474269866943,-0.039768218994140625,0.013826906681060791,-0.026140838861465454,0.7053398131994574,-0.5104207385367623,0.1900876199449255,0.45368813733304386
1728330018056857600,2.989857666015625,0.23428456485271454,0.033232431858778,0.06862112879753113,0.7325623631477356,0.5455178022384644,-0.407139390707016,-0.017077863216400146,0.03321748971939087,-0.03939378261566162,0.7054302645449665,-0.5097322778259689,0.19131991065885437,0.45380358490583256
1728330018066889500,2.999889404296875,0.17702314257621765,0.005949144717305899,0.07639223337173462,0.7334506511688232,0.5440276861190796,-0.4075339734554291,-0.0034702420234680176,0.06487429141998291,-0.01249474287033081,0.7055843127717776,-0.5091769518367729,0.1922806447826431,0.4537815840466573
1728330018076920600,3.009920654296875,0.06952457875013351,0.003224039450287819,0.06363515555858612,0.7338306307792664,0.5435128211975098,-0.4075371026992798,0.014674007892608643,0.04840618371963501,0.0034232735633850098,0.7056362343843033,-0.5090190564784745,0.19269417753572748,0.45370268429997435
1728330018086951400,3.019951416015625,-0.04109727591276169,0.0056397924199700356,0.059759464114904404,0.7342813611030579,0.5435857772827148,-0.4066268503665924,0.015825390815734863,-0.005377769470214844,0.01516258716583252,0.7053464472610583,-0.5093918303735157,0.19288995682571325,0.453651611809727
1728330018096982500,3.029982421875,-0.10195783525705338,0.004039658233523369,0.061933670192956924,0.7352529764175415,0.5431341528892517,-0.405472993850708,-0.007500350475311279,-0.022549986839294434,0.018067598342895508,0.7047407193864695,-0.5098226955056282,0.1932467967741033,0.4539570510102168
1728330018107013600,3.040013671875,-0.12255951762199402,-0.008188778534531593,0.05943082645535469,0.7360842227935791,0.5427444577217102,-0.4044855237007141,-0.013382256031036377,0.0004379749298095703,0.01578313112258911,0.7041233496119911,-0.5102326719826953,0.19344214215360905,0.4543711051089739
1728330018117045800,3.050045654296875,-0.12024689465761185,-0.006429014727473259,0.05070018768310547,0.7359260320663452,0.5430901050567627,-0.40430954098701477,0.004918694496154785,0.0060433149337768555,0.011105716228485107,0.7038808336386715,-0.510471053040631,0.1930402352102816,0.45465003178663216
1728330018127076600,3.06007666015625,-0.08531873673200607,0.005593560636043549,0.042671822011470795,0.735190749168396,0.5438227653503418,-0.4046618938446045,0.01802879571914673,0.005356311798095703,0.010100126266479492,0.7038955475115285,-0.5105673782723598,0.1923278671588664,0.4548207830768057
1728330018137107700,3.070107666015625,-0.045284561812877655,0.0036109965294599533,0.04903944209218025,0.7345083951950073,0.5443487763404846,-0.4051937162876129,0.017597317695617676,0.042107582092285156,0.019924461841583252,0.7040014665519865,-0.5105248753650508,0.19174850803676435,0.45494936811862857
1728330018147138600,3.080138671875,-0.006904153153300285,0.015962738543748856,0.03366607800126076,0.7340651154518127,0.5451145768165588,-0.40496718883514404,0.01727759838104248,0.06560319662094116,0.012587428092956543,0.7040153306215932,-0.5107765199333603,0.19137333522733205,0.4548031843612203
1728330018157169700,3.090169677734375,-0.023663491010665894,0.02226947620511055,0.029724864289164543,0.7340570688247681,0.5455539226531982,-0.40438973903656006,0.010327637195587158,0.04342007637023926,0.008927702903747559,0.7038958799736804,-0.5110884868596279,0.1912947723782821,0.4546706174584407
1728330018167203000,3.100203125,-0.009006252512335777,0.008178956806659698,0.05307439714670181,0.7346472144126892,0.5451489090919495,-0.40386393666267395,-0.01160961389541626,0.023210465908050537,0.01737406849861145,0.703615140035252,-0.5112350432229981,0.1915900929955447,0.45481609801543355
1728330018177234000,3.11023388671875,0.004838190507143736,0.006571419537067413,0.050250113010406494,0.7352254390716553,0.544517457485199,-0.4036634564399719,-0.012477695941925049,-0.006202638149261475,-0.005577266216278076,0.7033926960046607,-0.5112150756312855,0.19190471693496336,0.45504984501994067
1728330018187265000,3.12026513671875,0.038672588765621185,0.012728381901979446,0.04819841310381889,0.7355148792266846,0.5442724823951721,-0.40346670150756836,-0.012248337268829346,-0.039633750915527344,-0.02121591567993164,0.7032916528178663,-0.5112437906906472,0.19208443966566818,0.45509804193605685
1728330018197295900,3.1302958984375,0.06449266523122787,0.02173689752817154,0.06359601020812988,0.7359634637832642,0.5437306761741638,-0.4033791720867157,-0.032319724559783936,-0.03143209218978882,-0.02006751298904419,0.7032230231193628,-0.5111534430004662,0.1924385008005396,0.4551559662582957
1728330018207327000,3.140326904296875,0.028201503679156303,0.0039038369432091713,0.06495369225740433,0.736551821231842,0.543036162853241,-0.40324047207832336,-0.026316404342651367,0.005776643753051758,-0.025989234447479248,0.7030980416053441,-0.5110597812328143,0.19286696229797054,0.4552726463841703
1728330018217358800,3.15035888671875,-0.018605416640639305,-0.016141775995492935,0.05913734808564186,0.7367704510688782,0.5431467294692993,-0.40269190073013306,-0.011321961879730225,0.006398499011993408,-0.015017420053482056,0.7028949000947657,-0.5113138930071586,0.1929045153866091,0.4552851725242027
1728330018227389700,3.1603896484375,-0.043642591685056686,-0.003631310537457466,0.06975749880075455,0.7367382645606995,0.5437452793121338,-0.4019426703453064,-0.0038739442825317383,-0.03503239154815674,-0.001972794532775879,0.7026505824729711,-0.5117639782036739,0.1926818542335608,0.45525113132549544
1728330018237420800,3.1704208984375,-0.051152173429727554,0.00044465716928243637,0.07841303944587708,0.7368921041488647,0.5440321564674377,-0.40127167105674744,-0.021804332733154297,-0.04409325122833252,-0.0004006922245025635,0.7023579448362467,-0.5121329774963916,0.19257198814869586,0.45533406945261207
1728330018247452000,3.180451904296875,-0.04948610067367554,-0.009474020451307297,0.07445717602968216,0.7370520830154419,0.5442299246788025,-0.4007095992565155,-0.029288411140441895,-0.011270880699157715,-0.00354158878326416,0.7020590948397544,-0.5124536283966129,0.19244865218303323,0.45548648404604564
1728330018257484000,3.190484130859375,0.031087838113307953,0.015160752460360527,0.06328734755516052,0.7372742295265198,0.5437496304512024,-0.4009527862071991,-0.01202404499053955,0.005673587322235107,0.004758298397064209,0.7019712779159796,-0.5123035692822755,0.19253223089456217,0.4557552016057604
1728330018267515000,3.200514892578125,0.07036253809928894,0.04116865247488022,0.0671023279428482,0.7377713322639465,0.5424678921699524,-0.4017734229564667,-0.008035123348236084,-0.00009429454803466797,0.011026352643966675,0.7020386361914293,-0.5117317641146497,0.19298675998669357,0.45610128600863564
1728330018277546000,3.2105458984375,0.1170538142323494,0.05431939288973808,0.06920808553695679,0.7381212115287781,0.5412707328796387,-0.40274423360824585,-0.018654167652130127,0.016453206539154053,0.021656006574630737,0.702270480572496,-0.5110738487446692,0.1934719753112459,0.4562764195575701
1728330018287576800,3.220576904296875,0.10396651178598404,0.05886887386441231,0.06286763399839401,0.7382286190986633,0.5405172109603882,-0.40355876088142395,-0.017250895500183105,0.024119019508361816,0.011087417602539062,0.7025745311680002,-0.5105407623486528,0.193826584757912,0.4562548454604338
1728330018297608000,3.23060791015625,0.05587387457489967,0.04895184561610222,0.06282981485128403,0.7384865283966064,0.5398973226547241,-0.4039163887500763,-0.003272414207458496,0.019123613834381104,0.009125739336013794,0.702709188239218,-0.5102301051485407,0.19418302323749068,0.45624332651085653
1728330018307639800,3.240639892578125,0.026750613003969193,0.03824247792363167,0.04811931774020195,0.739285945892334,0.5386323928833008,-0.404142826795578,0.00615161657333374,0.014239370822906494,0.0038437247276306152,0.7026180893662134,-0.5098787210631385,0.19481345002642314,0.4565076055710829
1728330018317671000,3.2506708984375,-0.011671610176563263,0.04295600578188896,0.049718014895915985,0.7399236559867859,0.537464439868927,-0.40453049540519714,0.002324819564819336,0.002956092357635498,-0.014094412326812744,0.7025322477353492,-0.5095095231644045,0.19528133129051514,0.45685191035073697
1728330018327701800,3.26070166015625,-0.026236172765493393,0.028468675911426544,0.045808225870132446,0.7398139238357544,0.5375710129737854,-0.4045894742012024,-0.014548540115356445,-0.014759182929992676,-0.02029147744178772,0.7025343922592298,-0.5095218404465915,0.195173669119097,0.45688079699503764
1728330018337732900,3.27073291015625,-0.014914542436599731,0.01763908937573433,0.04492538794875145,0.7398298382759094,0.5379366874694824,-0.4040740132331848,-0.017509400844573975,-0.019275188446044922,-0.022332847118377686,0.7024029236699548,-0.5098045606843262,0.19509561068146603,0.4568009472684722
1728330018347763700,3.280763671875,0.0024934769608080387,0.02504134550690651,0.04102225974202156,0.7400572896003723,0.538052499294281,-0.403502881526947,-0.011923253536224365,-0.014935493469238281,-0.01667836308479309,0.7022286937725727,-0.5100536426001162,0.1951764341890943,0.4567562008109828
1728330018357795800,3.2907958984375,0.016812628135085106,0.036901574581861496,0.041238244622945786,0.7399879693984985,0.5388265252113342,-0.4025963544845581,-0.00945824384689331,-0.01815086603164673,-0.0044318437576293945,0.7021285408029323,-0.5105291317932737,0.1950944109849167,0.45641397404245104
1728330018367827000,3.300826904296875,0.0185756403952837,0.04804237559437752,0.04470061883330345,0.7398064136505127,0.5395027995109558,-0.4020238518714905,-0.01147395372390747,-0.01923912763595581,0.0075078606605529785,0.702128071619057,-0.5108518627429267,0.1949831979594207,0.4561009766059166
1728330018377858000,3.310858154296875,0.029364772140979767,0.051135532557964325,0.047128088772296906,0.7400175929069519,0.5396369695663452,-0.4014548659324646,-0.006039321422576904,-0.0072119832038879395,0.023128390312194824,0.7020417678698563,-0.5110674192975939,0.1951477941394678,0.45592201214100936
1728330018387889000,3.320888916015625,0.020462624728679657,0.049699023365974426,0.0537596270442009,0.7404176592826843,0.539397656917572,-0.4010385572910309,-0.008880853652954102,-0.0022577643394470215,0.022406935691833496,0.7019305461311582,-0.5111565881044251,0.1954473389462132,0.4558649683968641
1728330018397920800,3.330920654296875,0.02820676378905773,0.04849953576922417,0.06469535827636719,0.740771472454071,0.5387019515037537,-0.4013198912143707,-0.014071762561798096,-0.0007228851318359375,0.020521551370620728,0.7019340408049431,-0.5109006619741742,0.19575638161042885,0.45601362000012
1728330018407952000,3.340951904296875,0.029406782239675522,0.048479028046131134,0.06717795878648758,0.7410208582878113,0.5376978516578674,-0.4022054076194763,-0.013329267501831055,0.007254600524902344,0.013701260089874268,0.7020659117306871,-0.5103562426091379,0.19604542439277345,0.45629623494050414
1728330018417982700,3.350982666015625,0.013797463849186897,0.040652796626091,0.07772940397262573,0.7412680387496948,0.5366622805595398,-0.40313202142715454,-0.0095633864402771,0.01321876049041748,0.008539736270904541,0.7021747517944933,-0.5098027056982019,0.19630382894870468,0.4566363173163603
1728330018428013800,3.361013916015625,-0.04034779593348503,0.03484124690294266,0.08284826576709747,0.7416446805000305,0.535810649394989,-0.40357154607772827,-0.0025395750999450684,0.0021074414253234863,0.020850539207458496,0.7020942387698932,-0.5095013429226213,0.19652637156960098,0.45700039950060806
1728330018438044700,3.371044677734375,-0.10082126408815384,0.030574489384889603,0.0976831391453743,0.7422596216201782,0.5351599454879761,-0.40330421924591064,0.0014231204986572266,-0.018833041191101074,0.020568042993545532,0.7017330076511911,-0.5095513757748742,0.19673657722298987,0.45740877732112933
1728330018448077000,3.3810771484375,-0.12325812876224518,0.024153608828783035,0.09710469841957092,0.7429665923118591,0.5347921252250671,-0.40248993039131165,-0.0023813247680664062,-0.020616650581359863,0.014397859573364258,0.7011692942098019,-0.5099008287656279,0.19686590869831572,0.45782814689205525
1728330018458108000,3.39110791015625,-0.10435047745704651,0.01857290230691433,0.09207186102867126,0.7436832785606384,0.5347961783409119,-0.40115854144096375,-0.0012975335121154785,-0.004461705684661865,0.007390230894088745,0.7005132747934631,-0.5105182769099109,0.196956397687806,0.4581051915189083
1728330018468139000,3.401138916015625,-0.07971783727407455,0.027742963284254074,0.08954504877328873,0.7442703247070312,0.5348557233810425,-0.39998871088027954,0.0004652738571166992,0.01491844654083252,-0.0029501020908355713,0.6999683559105909,-0.5110619633941814,0.19703124599503355,0.4582996720617322
1728330018478169900,3.411169921875,-0.07630446553230286,0.031852755695581436,0.08165037631988525,0.7447587251663208,0.5349344611167908,-0.39897310733795166,-0.0010606646537780762,0.02253013849258423,-0.0015243291854858398,0.6995095190988341,-0.5115349355163844,0.1970925075762414,0.4584462822221656
1728330018488201000,3.421200927734375,-0.08303321152925491,0.031004536896944046,0.07799439132213593,0.7450606226921082,0.5351669192314148,-0.39809688925743103,-0.0006453990936279297,0.01535499095916748,0.007456600666046143,0.6991229148855985,-0.5119824386318915,0.1970419646574216,0.45855820189104674
1728330018498232800,3.43123291015625,-0.09165279567241669,0.02618757076561451,0.06664186716079712,0.7452390193939209,0.5354734659194946,-0.3973498046398163,0.01081860065460205,0.003543257713317871,0.015910595655441284,0.698771327232972,-0.5124019662249005,0.19689928060610049,0.45868661683844564
1728330018508264000,3.441263916015625,-0.09894853085279465,0.03942028433084488,0.0607011578977108,0.7457156777381897,0.5356276035308838,-0.39624613523483276,0.019298851490020752,-0.009153664112091064,0.017965465784072876,0.6982910905448125,-0.5129258405102781,0.1969365924828548,0.4588163763515612
1728330018518294800,3.451294677734375,-0.08043403178453445,0.04531508684158325,0.07064113765954971,0.7465660572052002,0.5351963043212891,-0.3952266573905945,0.00846928358078003,-0.008569717407226562,0.016900241374969482,0.6977368667765849,-0.5133056450687057,0.1972409243857999,0.4591041476416234
1728330018528326000,3.461325927734375,-0.03713635727763176,0.04857080057263374,0.07099933177232742,0.7473710179328918,0.5345600247383118,-0.3945657014846802,0.0045972466468811035,0.005387544631958008,0.013034939765930176,0.6973165972665462,-0.5134837721392311,0.19761469533824702,0.4593826125634214
1728330018538356700,3.471356689453125,0.005804318934679031,0.04775800555944443,0.08029136806726456,0.747949481010437,0.5340368747711182,-0.3941778540611267,0.004262983798980713,0.023687124252319336,-0.0023828744888305664,0.6970674604305205,-0.513549724299063,0.1979337227504355,0.459549607356679
1728330018548388900,3.481388916015625,0.025371627882122993,0.04127001017332077,0.07793579995632172,0.7482621669769287,0.5336663722991943,-0.39408639073371887,0.006010234355926514,0.04052191972732544,-0.004625797271728516,0.6969879845973814,-0.513508769632019,0.19815535539249451,0.4596205223022846
1728330018558420000,3.491419921875,-0.00948462262749672,0.0369131863117218,0.08062612265348434,0.748473048210144,0.5335268378257751,-0.39387455582618713,0.008027076721191406,0.034710466861724854,-0.013947099447250366,0.6968959597152226,-0.5135644468806667,0.19827829835593064,0.45964472550316404
1728330018568450800,3.501450927734375,-0.060610655695199966,0.025320446118712425,0.09259916096925735,0.7488533854484558,0.5334306359291077,-0.3932814300060272,0.006059825420379639,0.002778470516204834,-0.010435611009597778,0.6966033575076663,-0.5138133929653858,0.1983811721266854,0.45976556101644217
1728330018578482000,3.51148193359375,-0.06849014759063721,0.019845040515065193,0.09368307143449783,0.7495601177215576,0.5331050157546997,-0.39237555861473083,-0.001498103141784668,-0.029214024543762207,-0.003712087869644165,0.696102431099098,-0.5141695655979535,0.19859978160601552,0.46003164656309975
1728330018588513800,3.521513671875,-0.03571809083223343,0.017509713768959045,0.10534132272005081,0.7505095601081848,0.5323965549468994,-0.39152175188064575,-0.014501869678497314,-0.03299158811569214,-0.0072972774505615234,0.6955581127018347,-0.5144300046157566,0.19899972864333987,0.46039094709689726
1728330018598545000,3.531544921875,0.009488336741924286,0.013470976613461971,0.10945910215377808,0.7513222098350525,0.5315724611282349,-0.3910827934741974,-0.029718875885009766,-0.029558241367340088,-0.0088043212890625,0.6951762172513032,-0.5144859930929524,0.19940601625144905,0.4607293301313415
1728330018608575700,3.54157568359375,0.03568372130393982,0.01999092847108841,0.1159747913479805,0.7519767880439758,0.5308113694190979,-0.3908580243587494,-0.033883094787597656,-0.0217781662940979,-0.011287331581115723,0.694928302988969,-0.514447218222026,0.19978750932462566,0.46098101010662773
1728330018618606800,3.55160693359375,0.04584607854485512,0.018994905054569244,0.1167612224817276,0.7524301409721375,0.530119776725769,-0.3909243047237396,-0.031421959400177,-0.010268092155456543,-0.005117565393447876,0.6948094821615101,-0.5142984180565737,0.20008742667721013,0.4611960877495499
1728330018628637700,3.5616376953125,0.02353118360042572,0.014077911153435707,0.10231491178274155,0.7526854276657104,0.5297707319259644,-0.3909059166908264,-0.011581480503082275,-0.005783975124359131,-0.0020841360092163086,0.6947258086987093,-0.514246482348111,0.20024385373613587,0.46131215553930266
1728330018638669800,3.571669921875,-0.0015223039081320167,0.013892661780118942,0.08861028403043747,0.752826452255249,0.5295184254646301,-0.3909763693809509,0.011623561382293701,0.002799689769744873,0.007553517818450928,0.6946507845748633,-0.5141943903007743,0.2002896530163024,0.46146332204030327
1728330018648701000,3.581700927734375,-0.06159043312072754,0.012556287460029125,0.08696018904447556,0.7532129883766174,0.5289933681488037,-0.39094284176826477,0.028464198112487793,0.009611427783966064,0.022092103958129883,0.6944237421944544,-0.5141615793687635,0.20041568237729718,0.46178690123694877
1728330018658732000,3.59173193359375,-0.0827304795384407,0.023323874920606613,0.06831726431846619,0.7538281083106995,0.528293251991272,-0.39070358872413635,0.035371601581573486,0.006878256797790527,0.03898850083351135,0.6940404185870462,-0.5142011522399658,0.20061249736801307,0.4622332673390884
1728330018668763000,3.601762939453125,-0.0634571760892868,0.02979402430355549,0.0700022429227829,0.7543161511421204,0.5276931524276733,-0.3905724883079529,0.028535902500152588,0.0005356073379516602,0.04494568705558777,0.6937304270722329,-0.5142085959918461,0.2007567576519352,0.4626274385843398
1728330018678794000,3.6117939453125,-0.02994382567703724,0.023985935375094414,0.08870482444763184,0.7546748518943787,0.5270546078681946,-0.3907419443130493,0.0027866363525390625,0.00622481107711792,0.02889496088027954,0.6935419725603759,-0.5140782537394213,0.20087952642532877,0.4630015832553112
1728330018688825900,3.621825927734375,-0.03288635239005089,0.022377653047442436,0.09102710336446762,0.7549462914466858,0.52643883228302,-0.3910475969314575,-0.014299988746643066,0.003270089626312256,0.00910484790802002,0.6934118991151584,-0.5138946346907627,0.2009689243741861,0.4633613362781914
1728330018698856700,3.631856689453125,-0.04690450057387352,0.019514648243784904,0.09644370526075363,0.7551940083503723,0.5260565280914307,-0.391083687543869,-0.02742624282836914,-0.016733407974243164,-0.0025167763233184814,0.6932232949802163,-0.5138656508517903,0.200998146868976,0.4636628661061371
1728330018708887800,3.6418876953125,-0.06212766095995903,0.013070597313344479,0.09988877177238464,0.7556488513946533,0.5256169438362122,-0.3907962441444397,-0.029711902141571045,-0.028805971145629883,-0.007610797882080078,0.6928869505932009,-0.5139661283434597,0.20109871185248135,0.46401065846331885
1728330018718919000,3.6519189453125,-0.06673579663038254,0.0008136117830872536,0.09326761960983276,0.756255567073822,0.5252058506011963,-0.3901747763156891,-0.022719860076904297,-0.02741837501525879,-0.0079423189163208,0.6924326950005658,-0.5142085613317494,0.20125150345145543,0.46435370210130816
1728330018728949800,3.66194970703125,-0.036678291857242584,0.008818808011710644,0.08399049937725067,0.7569321393966675,0.5248213410377502,-0.3893793821334839,-0.016239941120147705,-0.019145071506500244,-0.009103953838348389,0.6919579798391048,-0.5145102955346083,0.20146825615330094,0.4646330974321607
1728330018738982000,3.67198193359375,0.01600242778658867,0.035497717559337616,0.0679449513554573,0.7577760815620422,0.5243382453918457,-0.388387531042099,-0.010293841361999512,-0.020950794219970703,-0.0016271471977233887,0.691514596494411,-0.514821055380723,0.20190471794858775,0.4647595065343352
1728330018749013000,3.682012939453125,0.0306953527033329,0.04119395092129707,0.06775586307048798,0.7586557269096375,0.5237882733345032,-0.38741105794906616,-0.011127710342407227,-0.023330509662628174,0.005376756191253662,0.6911585174638066,-0.5150719240556708,0.20247317673066728,0.464763810894813
1728330018759043800,3.6920439453125,0.02327212505042553,0.03992234542965889,0.06390626728534698,0.7592224478721619,0.5234386324882507,-0.3867730498313904,-0.01190793514251709,-0.001526951789855957,0.01010972261428833,0.6909478965317946,-0.515228608778482,0.20286192633621014,0.46473388017084805
1728330018769075000,3.702074951171875,-0.03353682905435562,0.045199401676654816,0.04294905811548233,0.7594737410545349,0.5233423709869385,-0.3864098787307739,0.005037426948547363,-0.010662198066711426,0.01087576150894165,0.6908218117772283,-0.5153478867487677,0.2030064523094916,0.4647260599238518
1728330018779106800,3.71210693359375,-0.06839034706354141,0.03691313415765762,0.03224474936723709,0.7595751285552979,0.5233038067817688,-0.3862623870372772,0.009269356727600098,-0.040058016777038574,0.007523983716964722,0.6906940998351528,-0.5154298465751944,0.20297998868268036,0.46483624161905746
1728330018789138000,3.722137939453125,-0.07219654321670532,0.0183679461479187,0.04879416525363922,0.7597167491912842,0.5230526924133301,-0.38632410764694214,-0.001553356647491455,-0.0338863730430603,-0.006162464618682861,0.6905367916977043,-0.5154161372088641,0.20293879687964797,0.4651031304680391
1728330018799168800,3.732168701171875,-0.036260511726140976,0.008743174374103546,0.03453453257679939,0.7598809599876404,0.5226917266845703,-0.38648974895477295,-0.004113197326660156,-0.015260696411132812,-0.03305065631866455,0.6903960749493343,-0.5153400593547559,0.20292792941719756,0.46540111844952764
1728330018809199900,3.742199951171875,0.001232803100720048,0.01622825488448143,0.028151201084256172,0.7599799633026123,0.522361159324646,-0.3867417573928833,-0.00476151704788208,-0.014609694480895996,-0.0469893217086792,0.6903665007106757,-0.515202145883,0.20296765699559638,0.46558021100616664
1728330018819230700,3.752230712890625,0.012911430560052395,0.009879225865006447,0.03395742550492287,0.7602261900901794,0.521879255771637,-0.38690856099128723,-0.014651298522949219,-0.010725021362304688,-0.047127723693847656,0.6903265809709569,-0.5150494443937339,0.20314968460177157,0.4657289937448756
1728330018829262800,3.762262939453125,0.02500218152999878,0.010786297731101513,0.018182722851634026,0.760490894317627,0.5214157700538635,-0.3870130777359009,-0.009789049625396729,-0.010887205600738525,-0.02772080898284912,0.6902948773802392,-0.5149134624361721,0.2033656339146325,0.4658320439099782
1728330018839294000,3.7722939453125,0.04979833960533142,0.010080721229314804,0.0042818221263587475,0.7605403065681458,0.5213268399238586,-0.38703587651252747,-0.0018733739852905273,-0.024958431720733643,-0.017367839813232422,0.6903546777562279,-0.5148579073815891,0.20347824341650994,0.46575566764600573
1728330018849325000,3.782324951171875,0.07101601362228394,0.010770212858915329,-0.00286477105692029,0.7607412338256836,0.5210054516792297,-0.3870736360549927,-0.0047904253005981445,-0.016427814960479736,-0.0025137364864349365,0.6904245455066431,-0.5147319725938301,0.20375029365959013,0.4656723011129527
1728330018859356000,3.79235595703125,0.06977817416191101,0.015119687654078007,-0.007430494297295809,0.7611939907073975,0.5201419591903687,-0.3873447775840759,-0.009927570819854736,0.005645394325256348,0.008072316646575928,0.6904923204165548,-0.5144037687093883,0.20424586612054715,0.4657174359091497
1728330018869387000,3.802386962890625,0.021315034478902817,0.01414896547794342,-0.02277456410229206,0.7613819241523743,0.5195522904396057,-0.3877665102481842,-0.011031091213226318,-0.009985029697418213,0.016138702630996704,0.6906160310208869,-0.5140869932855822,0.20452702178390342,0.4657603007742864
1728330018879419000,3.8124189453125,-0.026021189987659454,0.01357878278940916,-0.024377521127462387,0.7611610293388367,0.519456148147583,-0.3883287310600281,-0.012824296951293945,-0.031098604202270508,0.0378495454788208,0.6907948759773864,-0.5138438294633968,0.20445087085142147,0.4657969834196547
1728330018889449700,3.82244970703125,-0.04680423066020012,0.016215045005083084,-0.018178479745984077,0.7609129548072815,0.5194963216781616,-0.3887609839439392,-0.01144707202911377,-0.02781236171722412,0.04493468999862671,0.690903845125878,-0.5136999811858922,0.20428372126186523,0.46586738708401354
1728330018899480800,3.832480712890625,-0.06722967326641083,0.02475026249885559,-0.02366379275918007,0.7606428861618042,0.5197276473045349,-0.38898029923439026,-0.010902225971221924,-0.025037646293640137,0.036563217639923096,0.6909508956502218,-0.5136871838848641,0.20404737505145026,0.4659153065500348
1728330018909511700,3.84251171875,-0.06690050661563873,0.018747763708233833,-0.01397654414176941,0.7605039477348328,0.5200469493865967,-0.3888249695301056,-0.013876259326934814,-0.01562190055847168,0.03062489628791809,0.6908825245720137,-0.5138411699372388,0.20384986766164534,0.465933204619328
1728330018919543800,3.852543701171875,0.014031223021447659,0.012496420182287693,0.0038999239914119244,0.7606004476547241,0.5199009776115417,-0.3888314366340637,-0.014048993587493896,-0.004718482494354248,0.01187831163406372,0.690827765700613,-0.5138244043204054,0.20388419376519704,0.466017857098471
1728330018929574700,3.86257470703125,0.09813731163740158,0.0155129823833704,0.017578717321157455,0.7607735395431519,0.5194587111473083,-0.3890838921070099,-0.005707681179046631,-0.0030860304832458496,-0.0130615234375,0.6909248089270346,-0.5136008155469467,0.20413783902999316,0.4660095401253546
1728330018939606000,3.87260595703125,0.1588759571313858,0.010772236622869968,0.02554556541144848,0.7608984708786011,0.5189022421836853,-0.3895815908908844,0.001110076904296875,0.022815287113189697,-0.02280247211456299,0.6911971713855978,-0.5132088208311641,0.2045138413373101,0.4658724681389814
1728330018949636900,3.882636962890625,0.16547633707523346,0.002689010463654995,0.04527026787400246,0.7611690759658813,0.5179843902587891,-0.3902738392353058,0.0046389102935791016,0.05800431966781616,-0.028976649045944214,0.6914976920656667,-0.5126588247987234,0.2050463575971967,0.465798015158281
1728330018959668000,3.89266796875,0.11868373304605484,0.005019542761147022,0.04166301712393761,0.761653482913971,0.516974925994873,-0.3906671106815338,0.013691306114196777,0.05431413650512695,-0.025867342948913574,0.6916433663563111,-0.5122254382326927,0.20564909739656403,0.465792757496259
1728330018969699800,3.902699951171875,0.0880720317363739,-0.0003539174795150757,0.03956764191389084,0.7621456384658813,0.5162107348442078,-0.3907178044319153,0.0170290470123291,0.02655959129333496,-0.010069578886032104,0.6916666761531257,-0.5119961444213644,0.20615783350936256,0.46578536684106897
1728330018979731000,3.91273095703125,0.04329816624522209,0.002303064800798893,0.04615870118141174,0.7626221179962158,0.5155794620513916,-0.3906216621398926,0.01617109775543213,0.013885259628295898,0.003002673387527466,0.6916056274984294,-0.5118759132236943,0.20657254033945455,0.46582445920823695
1728330018989761800,3.92276171875,-0.011389847844839096,0.006955607328563929,0.0415508970618248,0.7629896998405457,0.5152584314346313,-0.3903275728225708,0.01565110683441162,0.005875110626220703,0.009315550327301025,0.6914487866642841,-0.5119306724458988,0.20679264265384792,0.46589966051862947
1728330018999793000,3.93279296875,-0.05263109505176544,0.009668569080531597,0.03910345211625099,0.7631769180297852,0.5152498483657837,-0.38997262716293335,0.013266444206237793,-0.021994173526763916,0.02180856466293335,0.691253957839438,-0.5121018192717421,0.20679799943324767,0.4659982183369257
1728330019009823700,3.94282373046875,-0.056847941130399704,-0.0052363453432917595,0.05101071298122406,0.763312578201294,0.5151386857032776,-0.38985374569892883,-0.0017769932746887207,-0.03390699625015259,0.029456377029418945,0.6910610229995314,-0.5121864326078251,0.20673214407165583,0.466220384451609
1728330019019855600,3.952855712890625,-0.05240719020366669,-0.014659833163022995,0.04750972241163254,0.7632908821105957,0.5151752233505249,-0.38984814286231995,-0.009460926055908203,-0.016212761402130127,0.012193024158477783,0.6909099083767488,-0.5122646838084705,0.20654496689901056,0.46644146827494654
1728330019029887000,3.962886962890625,-0.023324405774474144,-0.008448543027043343,0.03676759451627731,0.7630370855331421,0.5155070424079895,-0.3899063169956207,-0.00888681411743164,-0.007938623428344727,-0.00427401065826416,0.6908708338689374,-0.5123574139871814,0.20624432640259457,0.46653051344652835
1728330019039917800,3.972917724609375,0.0030501438304781914,-0.009852401912212372,0.03679502382874489,0.762837827205658,0.5157037377357483,-0.39003586769104004,-0.01334148645401001,-0.004335939884185791,-0.0022217929363250732,0.6908847013251307,-0.5123725296611233,0.20604963237282362,0.4665792063001936
1728330019049949000,3.982948974609375,-0.021734565496444702,-0.00369863398373127,0.032139819115400314,0.7628812193870544,0.5156394839286804,-0.3900359272956848,-0.015063345432281494,0.005631208419799805,0.010320991277694702,0.6908189197349477,-0.5123842064905181,0.20602054590341815,0.46667658136223267
1728330019059980000,3.99297998046875,-0.08505447953939438,-0.004547277465462685,0.01352006010711193,0.7630195021629333,0.5157661437988281,-0.38959792256355286,-0.0083351731300354,-0.01256173849105835,0.01688671112060547,0.6905970896607556,-0.5126242046831734,0.20595501640827252,0.466770448262571
1728330019070012000,4.003011962890625,-0.10852997750043869,-0.01444518193602562,0.006900773849338293,0.7631276249885559,0.5161034464836121,-0.388938844203949,-0.001485288143157959,-0.03316277265548706,0.019828766584396362,0.6902672043295475,-0.5130230524562852,0.20576180334511823,0.4669053087476105
1728330019080042800,4.013042724609375,-0.10204797983169556,-0.025158705189824104,0.0003699040971696377,0.7633694410324097,0.5162234902381897,-0.3883044719696045,0.007718145847320557,-0.023395121097564697,0.005812406539916992,0.6898954668995476,-0.5133755954591047,0.20565326663772934,0.467115059541854
1728330019090073900,4.023073974609375,-0.13288338482379913,-0.03447151184082031,-0.012155208736658096,0.7635336518287659,0.5164316296577454,-0.3877042531967163,0.00810319185256958,-0.005979418754577637,-0.012457460165023804,0.6895206763219329,-0.5137446218497935,0.20546128445865247,0.46734703465039684
1728330019100104700,4.033104736328125,-0.15872390568256378,-0.018957482650876045,-0.022543400526046753,0.763417661190033,0.5170361995697021,-0.38712644577026367,0.00399249792098999,-0.013252079486846924,-0.006794482469558716,0.6891823026337172,-0.5141985072725085,0.2050284772870872,0.46753699230460827
1728330019110136800,4.04313671875,-0.16217243671417236,-0.013401329517364502,-0.02223181165754795,0.7631773948669434,0.5177487730979919,-0.38664770126342773,-0.006600916385650635,-0.03146642446517944,0.007848262786865234,0.6888839255987385,-0.5146388551163831,0.20450670680303462,0.46772082623302874
1728330019120167700,4.053167724609375,-0.15272434055805206,-0.009749602526426315,-0.01951405592262745,0.7629014849662781,0.518486738204956,-0.3862031400203705,-0.02098870277404785,-0.025627851486206055,0.006823837757110596,0.688611417680227,-0.5150656673279865,0.20397497689305788,0.46788451601592507
1728330019130199000,4.063198974609375,-0.16031941771507263,-0.00917808897793293,-0.032184042036533356,0.7626070976257324,0.5194995999336243,-0.38542261719703674,-0.021976053714752197,-0.018690884113311768,-0.0021353960037231445,0.6883136073266513,-0.5156598435504478,0.20342964475299705,0.4679056637353779
1728330019140230000,4.07322998046875,-0.17222753167152405,-0.015764672309160233,-0.028948569670319557,0.7625057697296143,0.5202755331993103,-0.38457533717155457,-0.02552163600921631,-0.026852130889892578,0.00031325221061706543,0.687928634582051,-0.5162447372617986,0.20298696088511853,0.4680190136517095
1728330019150261000,4.083260986328125,-0.18593481183052063,-0.010077757760882378,-0.030494268983602524,0.7625666260719299,0.5208508968353271,-0.3836749494075775,-0.023522496223449707,-0.02982306480407715,0.00034362077713012695,0.6874637196814409,-0.5168236784850591,0.20262235028146827,0.468221200766669
1728330019160292900,4.09329296875,-0.17678093910217285,-0.011858081445097923,-0.036945510655641556,0.7625192999839783,0.5215365886688232,-0.38283663988113403,-0.022300243377685547,-0.03470492362976074,0.004205048084259033,0.6870387323592808,-0.5173986876395346,0.20218871506434533,0.46839732209004903
1728330019170322700,4.10332275390625,-0.14497001469135284,-0.012899644672870636,-0.025322142988443375,0.7623324990272522,0.5222157835960388,-0.38228216767311096,-0.027072608470916748,-0.031615257263183594,0.003711611032485962,0.6867220361863526,-0.5178538094604455,0.2017085826043678,0.46856568214687616
