time,seconds_elapsed,rotationRateX,rotationRateY,rotationRateZ,gravityX,gravityY,gravityZ,accelerationX,accelerationY,accelerationZ,quaternionW,quaternionX,quaternionY,quaternionZ
1728064581548603100,0.07860302734375,-0.051078252494335175,0.07533196359872818,0.04818883538246155,0.23304805159568787,-0.006969270762056112,-0.972440242767334,0.047973036766052246,0.03162747621536255,-0.040224552154541016,0.9930861375942021,0.0035088954450203922,0.11733526647628525,-1.922822196601773e-17
1728064581558633200,0.08863330078125,-0.01976899802684784,0.029918033629655838,0.008981781080365181,0.23263943195343018,-0.006748528685420752,-0.9725396633148193,0.05977995693683624,0.04639086127281189,-0.044290781021118164,0.9931111422080084,0.0033782709088438084,0.11712714493974861,0.00016448623774863714
1728064581568664000,0.0986640625,-0.006210046820342541,-0.036459922790527344,0.008348215371370316,0.2321511059999466,-0.0063653071410954,-0.9726588726043701,0.033916354179382324,0.04904414340853691,-0.05492901802062988,0.9931411484823477,0.003182516622994788,0.11687780170966298,0.00018793471571142525
1728064581578694100,0.108694091796875,-0.012293039821088314,-0.06857913732528687,0.011287013068795204,0.23136353492736816,-0.005913499742746353,-0.9728493690490723,0.018590644001960754,0.04654765501618385,-0.06531280279159546,0.9931891298542015,0.0029508050148136637,0.1164757298585176,0.00022358676210311617
1728064581588725000,0.11872509765625,-0.019597824662923813,-0.05619117617607117,-0.0029001785442233086,0.2302815169095993,-0.005624014884233475,-0.9731078147888184,0.0440409779548645,0.05088158696889877,-0.06996774673461914,0.9932541626355204,0.002802826333544967,0.11592343751664898,0.00024230319888703103
1728064581598755000,0.128755126953125,-0.008131450042128563,-0.03445754945278168,-0.0056083472445607185,0.2290351837873459,-0.005486697889864445,-0.9734026789665222,0.043456241488456726,0.04399988055229187,-0.07153445482254028,0.993328455297727,0.002735821631265644,0.11528734737122504,0.00022360965843955211
1728064581608785000,0.138784912109375,-0.008755162358283997,-0.018010132014751434,-0.0033553126268088818,0.22829870879650116,-0.005332471802830696,-0.973576545715332,0.015094220638275146,0.031714919954538345,-0.08201122283935547,0.9933721762608323,0.0026591511461960537,0.11491153851295777,0.00021502755373827364
1728064581618814700,0.148814697265625,-0.010432088747620583,-0.025593001395463943,-0.021870940923690796,0.22820304334163666,-0.004987630061805248,-0.9736008048057556,0.0033185333013534546,0.027189169079065323,-0.08036953210830688,0.9933783142257081,0.00249372329671083,0.1148624643287752,0.00014455809492141226
1728064581628845600,0.158845458984375,-0.008398499339818954,-0.02887614816427231,-0.028944827616214752,0.22827115654945374,-0.004590172786265612,-0.9735867977142334,0.003738701343536377,0.025036949664354324,-0.0689089298248291,0.9933747102504248,0.0023097066195101727,0.11489681394157666,0.000005937676236660026
1728064581638875600,0.168875732421875,-0.009245317429304123,-0.013768353499472141,-0.018901249393820763,0.22842289507389069,-0.00412531616166234,-0.9735532402992249,0.007737353444099426,0.023824414238333702,-0.056064069271087646,0.9933663053505557,0.002090849238386672,0.11497388727826047,-0.00012455931292852817
1728064581648906800,0.17890673828125,0.007237784564495087,-0.0355098657310009,-0.004657332319766283,0.22834618389606476,-0.0038232600782066584,-0.9735724925994873,0.007844582200050354,0.020867327228188515,-0.045897722244262695,0.9933711244811444,0.001946193439010797,0.11493460915547413,-0.00018847485565005802
1728064581658936800,0.188936767578125,0.0010232317727059126,-0.0680004358291626,-0.026362095028162003,0.22788216173648834,-0.0036109008360654116,-0.9736820459365845,0.00713367760181427,0.016580870375037193,-0.030498862266540527,0.9933987239797097,0.0018477399329058823,0.11469774802097561,-0.00026235996703919074
1728064581668967700,0.1989677734375,-0.014673439785838127,-0.054861195385456085,-0.04970603436231613,0.2273966670036316,-0.003185716224834323,-0.9737970232963562,0.01892593502998352,0.012127367779612541,-0.015216648578643799,0.9934275069568871,0.0016573192341856149,0.11444977877589159,-0.00046805205099877036
1728064581678997800,0.208997802734375,-0.016332920640707016,-0.02195054292678833,-0.07950574159622192,0.2271808534860611,-0.0026625373866409063,-0.9738489389419556,0.014731958508491516,0.005622743628919125,0.0033899545669555664,0.9934404434248123,0.001431220522993005,0.11433930722650563,-0.0007920609505176852
1728064581689028900,0.21902880859375,-0.039318401366472244,-0.009132749401032925,-0.132586270570755,0.22704477608203888,-0.001966281561180949,-0.9738823175430298,-0.011255025863647461,-0.003969388082623482,0.01488274335861206,0.9934482874258757,0.0011409763028763793,0.11426954491584805,-0.0013158377071776316
1728064581699058700,0.22905859375,-0.053389810025691986,-0.032654162496328354,-0.11843476444482803,0.22676604986190796,-0.001008130144327879,-0.9739487171173096,-0.02592991292476654,-0.013014695607125759,0.017588913440704346,0.993463908611365,0.0007313190214571602,0.11412754514974416,-0.0019493450503812633
1728064581709089800,0.23908984375,-0.038038015365600586,-0.043242890387773514,-0.07053089141845703,0.22629301249980927,-0.0001415216102031991,-0.9740592837333679,-0.017400234937667847,-0.01673469878733158,0.02966231107711792,0.9934906895455144,0.0003451009627034244,0.11388701033072225,-0.0023891556192124214
1728064581719120000,0.249119873046875,-0.0332627035677433,-0.03942684456706047,-0.06245432049036026,0.22584670782089233,0.0005740083288401365,-0.9741626977920532,0.0010972470045089722,-0.017022982239723206,0.03994333744049072,0.9935160236323506,0.00002136397714289758,0.1136602637466831,-0.002711850405056072
1728064581729150700,0.259150634765625,-0.036226801574230194,-0.03962711617350578,-0.07228884100914001,0.22547465562820435,0.001257371623069048,-0.9742482304573059,0.011616379022598267,-0.01079411432147026,0.03253680467605591,0.9935366308108909,-0.0002861289438296136,0.11347160330321293,-0.0030351754709274374
1728064581739180800,0.269180908203125,-0.053608790040016174,-0.052735835313797,-0.08256171643733978,0.22506682574748993,0.002001675311475992,-0.9743412733078003,0.0038912594318389893,0.00018033268861472607,0.028891444206237793,0.9935587477773438,-0.0006203193640331597,0.11326509037131399,-0.0033948138876018774
1728064581749212000,0.2792119140625,-0.06828653067350388,-0.018040969967842102,-0.09778062254190445,0.2249118983745575,0.0028868215158581734,-0.9743748307228088,0.005968809127807617,0.011746358126401901,0.026178419589996338,0.993565763069982,-0.0010182213786571787,0.11318810968183732,-0.0038143656957235258
1728064581759241700,0.28924169921875,-0.08006849139928818,0.02702498808503151,-0.1276567578315735,0.22521592676639557,0.0038835681043565273,-0.9743011593818665,0.009174302220344543,0.015708716586232185,0.025570690631866455,0.9935451101588626,-0.0014599211524847432,0.11334592847237063,-0.004334399206339625
1728064581769272800,0.29927294921875,-0.103217214345932,0.027310211211442947,-0.150634765625,0.22540728747844696,0.004905702546238899,-0.9742522835731506,-0.017231658101081848,-0.005104065872728825,0.024072229862213135,0.9935297800037343,-0.0019021167519865639,0.11344711203556226,-0.004963030978080088
1728064581779303000,0.309302978515625,-0.12669996917247772,0.004462901037186384,-0.1564583033323288,0.22509528696537018,0.005969483405351639,-0.9743184447288513,-0.03971630334854126,-0.02736230567097664,0.026381492614746094,0.9935427911644114,-0.0023611458465421964,0.11329250868805459,-0.005638874858131927
1728064581789333000,0.3193330078125,-0.13681651651859283,-0.005033665336668491,-0.155938982963562,0.2247948795557022,0.006901114247739315,-0.974381685256958,-0.021212130784988403,-0.02244982123374939,0.03904843330383301,0.993554766636189,-0.0027557679053052623,0.11314403113440703,-0.00629773253009572
1728064581799363800,0.32936376953125,-0.1525583416223526,0.005683214403688908,-0.16611891984939575,0.2251623570919037,0.00784161314368248,-0.9742897152900696,0.008403897285461426,-0.008497740142047405,0.04673844575881958,0.9935271995427228,-0.0031523273251125427,0.11333672552726136,-0.006960529433156445
1728064581809394000,0.339393798828125,-0.15265528857707977,0.0072832414880394936,-0.17028464376926422,0.2257116585969925,0.00931584183126688,-0.9741495847702026,0.017650723457336426,-0.00959050189703703,0.03841966390609741,0.9934865259446646,-0.0038084466485187526,0.11362522956177164,-0.007694423470983149
1728064581819424800,0.3494248046875,-0.10403028130531311,0.005684332922101021,-0.12394244968891144,0.22591686248779297,0.010789381340146065,-0.9740868210792542,0.009266838431358337,-0.018968094140291214,0.03895193338394165,0.9934654864495956,-0.004474637665819732,0.11373900485511312,-0.008346237305634408
1728064581829454800,0.359454833984375,-0.07000147551298141,0.02306891605257988,-0.09482477605342865,0.22620880603790283,0.011913595721125603,-0.9740059971809387,0.00409206748008728,-0.013958274386823177,0.03232508897781372,0.9934408727273305,-0.00498188902037781,0.11389553034755837,-0.008846579580220693
1728064581839486000,0.36948583984375,-0.06738851964473724,0.02363201603293419,-0.09044814109802246,0.22664116322994232,0.012899596244096756,-0.9738929271697998,0.01418827474117279,0.008539002388715744,0.014191389083862305,0.993408461922472,-0.005426321544704906,0.1141231941175308,-0.009281589043086114
1728064581849516000,0.37951611328125,-0.10007535666227341,0.027173221111297607,-0.07955341041088104,0.2266848236322403,0.013678750954568386,-0.9738721251487732,0.020095542073249817,0.02246931940317154,0.010798394680023193,0.9933997032873211,-0.0057759756376751,0.11415158387606104,-0.009649653260420435
1728064581859547000,0.389546875,-0.15220986306667328,0.04381339251995087,-0.08681931346654892,0.22644224762916565,0.014531414024531841,-0.9739161729812622,0.021024763584136963,0.0035655098035931587,0.020852208137512207,0.9934076795566469,-0.006170471685679567,0.11403434269585144,-0.009961149619121206
1728064581869576700,0.39957666015625,-0.18227800726890564,0.09711842983961105,-0.10155298560857773,0.22687841951847076,0.01588023640215397,-0.973793625831604,0.013157561421394348,-0.01742137409746647,0.033791184425354004,0.9933734002404274,-0.006808327811747091,0.1142665348440025,-0.010299660867890364
1728064581879607800,0.40960791015625,-0.23398715257644653,0.1641838103532791,-0.11784487217664719,0.22839213907718658,0.01788870431482792,-0.9734048843383789,-0.021681353449821472,-0.02759329415857792,0.049347877502441406,0.993271084024278,-0.00776268766439232,0.11505350876774134,-0.010724567259317317
1728064581889637600,0.4196376953125,-0.32223790884017944,0.2064039707183838,-0.11687042564153671,0.23051810264587402,0.020626306533813477,-0.972849428653717,-0.03110101819038391,-0.03377938270568848,0.05272918939590454,0.9931266434582023,-0.009081100573323564,0.1161586487057729,-0.011143986423673468
1728064581899668700,0.429668701171875,-0.3674335479736328,0.20984631776809692,-0.1222769096493721,0.23270298540592194,0.023968437686562538,-0.9722524285316467,-0.024313747882843018,-0.03762505576014519,0.0658499002456665,0.9929717644934314,-0.010705608221597301,0.11729946027009434,-0.011541844523328999
1728064581909698800,0.43969873046875,-0.3595580458641052,0.168021097779274,-0.10232796519994736,0.2345830351114273,0.027568379417061806,-0.9717050790786743,-0.005685985088348389,-0.033565081655979156,0.06783545017242432,0.992829681393082,-0.012465665867807512,0.11828805380819499,-0.011902353624113775
1728064581919729700,0.449729736328125,-0.2197907567024231,0.09588512033224106,-0.08481049537658691,0.23601868748664856,0.030346782878041267,-0.9712745547294617,0.02222101390361786,-0.023907573893666267,0.05948561429977417,0.9927183982804846,-0.013828038206045586,0.11904414999647193,-0.01214712021105043
1728064581929759700,0.459759765625,-0.2866571545600891,0.009507620707154274,-0.1905646175146103,0.23631685972213745,0.033192574977874756,-0.9711089730262756,0.06225182116031647,-0.0034989751875400543,0.039880335330963135,0.9926694330224078,-0.015190956304139688,0.11922566856240797,-0.012721166123487766
1728064581939790800,0.469790771484375,-0.3240647315979004,0.003166101174429059,-0.15353868901729584,0.23652984201908112,0.03646859899163246,-0.970939576625824,0.0577206164598465,0.01072683185338974,0.08254235982894897,0.9926172035608315,-0.016753156483003424,0.11937144192321608,-0.013443993037143859
1728064581949820700,0.479820556640625,-0.4350952208042145,0.04293135553598404,-0.05609495937824249,0.23676694929599762,0.03999676927924156,-0.9707428216934204,0.0483282208442688,-0.02376142516732216,0.10750740766525269,0.9925639460430083,-0.018496347768780924,0.11952599943919831,-0.013717329038392458
1728064581959851800,0.489851806640625,-0.6125012040138245,0.11248241364955902,0.026706183329224586,0.23750239610671997,0.04520644247531891,-0.9703344702720642,0.05796876549720764,-0.06295241415500641,0.10223144292831421,0.9924631831695548,-0.02113587166542452,0.11994182352762295,-0.01356196881039984
1728064581969881900,0.4998818359375,-0.6712211966514587,0.07755506038665771,0.35777971148490906,0.23860597610473633,0.051094572991132736,-0.9697713851928711,0.034190624952316284,-0.07579855620861053,0.1249837875366211,0.9923390561515941,-0.024262474672817835,0.12052236809095106,-0.012202595734550264
1728064581979912700,0.50991259765625,-0.739562451839447,0.027621909976005554,0.425146222114563,0.23940275609493256,0.05695565789937973,-0.969248354434967,0.09136198461055756,-0.07215341180562973,0.12647491693496704,0.992234158220278,-0.027509889737256356,0.12090917556163808,-0.00977243696836202
1728064581989942800,0.51994287109375,-0.8248357772827148,0.03180014342069626,0.35042351484298706,0.23983436822891235,0.06367785483598709,-0.9687231779098511,0.09524860978126526,-0.10129076987504959,0.12018191814422607,0.992122526258884,-0.03119001110083815,0.12110156801886511,-0.007387310432500741
1728064581999974000,0.529973876953125,-0.8051289916038513,0.20202337205410004,0.3099115192890167,0.24112290143966675,0.07091472297906876,-0.9679002165794373,-0.025546759366989136,-0.12931010127067566,0.12225812673568726,0.9919288911916053,-0.035105970593868684,0.12172698003819207,-0.005214406840960061
1728064582010003700,0.540003662109375,-0.3389618396759033,0.2143370360136032,-0.27715784311294556,0.2432144433259964,0.07649829238653183,-0.9669512510299683,-0.11569677293300629,-0.15665271878242493,0.09619319438934326,0.9916940914670863,-0.03803720113979173,0.12279063054376997,-0.004299021226854782
1728064582020034800,0.550034912109375,-0.07198652625083923,0.032725006341934204,-0.8909107446670532,0.24357376992702484,0.0793805792927742,-0.9666284322738647,-0.17030107975006104,-0.2125440239906311,0.027617812156677246,0.9915932834750003,-0.03908944615189829,0.12311699219051693,-0.007549377351581392
1728064582030065000,0.56006494140625,-0.2211720198392868,0.2581690549850464,-0.30776262283325195,0.24434280395507812,0.08255060762166977,-0.9661687016487122,-0.2790718376636505,-0.22940120100975037,-0.012255311012268066,0.9914471038181077,-0.040282156527885256,0.12366482251021854,-0.010816963232959772
1728064582040095700,0.570095703125,-0.2908681333065033,1.0265274047851562,1.3534901142120361,0.2495994120836258,0.08403033763170242,-0.9646963477134705,-0.07564923167228699,-0.04457110911607742,0.05307525396347046,0.9910945261144793,-0.0412545598311492,0.12629287282896612,-0.008931629563182364
1728064582050125800,0.580125732421875,-0.5001731514930725,0.6232523918151855,2.4851126670837402,0.26041120290756226,0.08267424255609512,-0.9619516730308533,0.18603038787841797,0.09379365295171738,0.0033029913902282715,0.99044094167673,-0.04195466747488446,0.1313924642289737,0.0016477355638402336
1728064582060157000,0.590156982421875,-0.4818035662174225,0.33613458275794983,1.47854745388031,0.2662844657897949,0.08202768117189407,-0.9603978395462036,0.5661892890930176,0.15129445493221283,0.01853388547897339,0.9899784514535607,-0.04303904160504748,0.1339728041171253,0.011897071252463186
1728064582070186800,0.600186767578125,-0.6434057354927063,0.12340819090604782,0.9360705018043518,0.2697641849517822,0.08433271199464798,-0.9592263698577881,0.10758563876152039,-0.020810388028621674,0.12052708864212036,0.9895907147268703,-0.045071599363864776,0.135481932377773,0.017980836272656182
1728064582080217900,0.6102177734375,-0.64045649766922,-0.12598954141139984,0.8326010704040527,0.27041861414909363,0.08818810433149338,-0.9586952924728394,-0.18214654922485352,-0.15149682760238647,0.050995707511901855,0.9893573901063555,-0.04769134428085438,0.1355651091870874,0.022791507205607426
1728064582090248000,0.620248046875,-0.7605085968971252,-0.16076962649822235,0.9695472121238708,0.26967257261276245,0.09243839979171753,-0.9585049748420715,0.06127527356147766,-0.25257939100265503,0.09938937425613403,0.9891849426421381,-0.050497680909757585,0.13489804549441117,0.027667897543795426
1728064582100278800,0.63027880859375,-0.8852283358573914,-0.03172546252608299,1.2097734212875366,0.2697770595550537,0.09741511195898056,-0.95798259973526,0.0619184672832489,-0.31840816140174866,0.01488262414932251,0.9888640851299259,-0.05384892660787194,0.13456968291707366,0.03374990451044485
1728064582110308900,0.640308837890625,-0.8869261145591736,0.1493455320596695,1.2548000812530518,0.2715788781642914,0.10266284644603729,-0.9569249153137207,-0.013537555932998657,-0.2300584763288498,0.009445667266845703,0.9883430289600139,-0.057470714112025166,0.13503581409652038,0.04050301461044146
1728064582120340000,0.650340087890625,-0.7845252752304077,0.2596356272697449,1.2018086910247803,0.2749071419239044,0.1073012501001358,-0.9554645419120789,-0.061467260122299194,-0.1742415577173233,-0.018534481525421143,0.9876798397152727,-0.0608215290425288,0.13626616885023402,0.04712522527528612
1728064582130369800,0.660369873046875,-0.7801026105880737,0.32211554050445557,1.1127617359161377,0.27903562784194946,0.11151184886693954,-0.953784167766571,-0.08975037932395935,-0.14726318418979645,-0.002636730670928955,0.9869409820678747,-0.06393991132134157,0.13791158403215134,0.05328773495080947
1728064582140401000,0.67040087890625,-0.7711530327796936,0.15757767856121063,0.8225186467170715,0.2825584411621094,0.11625625193119049,-0.9521791934967041,-0.07304003834724426,-0.09495498239994049,-0.013625860214233398,0.986230419266484,-0.06722025294248593,0.13925459186329142,0.05864462345018418
1728064582150431000,0.680430908203125,-0.76783287525177,0.40100523829460144,0.9463343024253845,0.28610482811927795,0.12111669778823853,-0.9505128860473633,-0.05716198682785034,-0.046897947788238525,-0.01672649383544922,0.9855263929866444,-0.07046619012044571,0.14063452120530173,0.06319886400117085
1728064582160461800,0.6904619140625,-0.7990468740463257,0.4526557922363281,1.3164300918579102,0.29158416390419006,0.12526032328605652,-0.9483082294464111,-0.11362093687057495,0.022490516304969788,-0.010904967784881592,0.9845634159473694,-0.07365619243518354,0.1429008207911712,0.06920204518743231
1728064582170491600,0.70049169921875,-0.8466663360595703,0.4330858290195465,1.7098748683929443,0.2978435456752777,0.12857890129089355,-0.9459157586097717,0.050453513860702515,0.08130572736263275,0.068672776222229,0.9833646788571347,-0.07678533900548438,0.1454170497607935,0.07714734399665776
1728064582180523000,0.71052294921875,-0.9710428714752197,0.29680585861206055,1.6600793600082397,0.3035968244075775,0.13192906975746155,-0.9436226487159729,0.10481992363929749,-0.005479484796524048,0.0852242112159729,0.982035781215175,-0.08011085519335492,0.1475497649839387,0.08612137689259798
1728064582190552800,0.720552734375,-1.1503878831863403,0.16410081088542938,1.3568185567855835,0.3077479600906372,0.13733156025409698,-0.9415047764778137,0.06738936901092529,-0.1301293969154358,0.04175502061843872,0.9807485939302553,-0.08431377404806244,0.14879111610473214,0.09425856893200442
1728064582200583700,0.730583740234375,-1.2961196899414062,0.14678862690925598,1.0877610445022583,0.31094467639923096,0.1451306939125061,-0.9392818808555603,-0.05491751432418823,-0.2008252739906311,0.0320858359336853,0.9794997453166545,-0.08951352899129164,0.1494870524041531,0.10109996171383956
1728064582210613800,0.74061376953125,-1.356199860572815,0.19356705248355865,0.998385488986969,0.3140886425971985,0.1544450968503952,-0.9367470741271973,-0.09732231497764587,-0.1870683878660202,-0.00491863489151001,0.9782173228612284,-0.0953717380957244,0.15010232639009502,0.10707185312678201
1728064582220643800,0.750643798828125,-1.3395270109176636,0.23195868730545044,1.0730746984481812,0.31777307391166687,0.16386382281780243,-0.9338998794555664,-0.06496548652648926,-0.12539641559123993,-0.02967745065689087,0.9768171337264534,-0.10134254708312483,0.15092966161322163,0.113040877385938
1728064582230674700,0.7606748046875,-1.2545859813690186,0.25556257367134094,1.204948902130127,0.32198238372802734,0.17237699031829834,-0.9309207797050476,-0.01753905415534973,-0.048567160964012146,-0.003969967365264893,0.975287973849967,-0.10698802265023188,0.1519643618719921,0.11947299146614732
1728064582240704800,0.770704833984375,-1.2043449878692627,0.3001573085784912,1.3145744800567627,0.3267817497253418,0.1796736866235733,-0.9278637170791626,0.007461994886398315,0.019239887595176697,-0.006813406944274902,0.9736256480668554,-0.11217102045956252,0.15325081243661848,0.12643155074486725
1728064582250735900,0.78073583984375,-1.2224888801574707,0.38190382719039917,1.359544038772583,0.3324126601219177,0.18651142716407776,-0.9245081543922424,0.000457763671875,0.04212626814842224,-0.02103322744369507,0.9717903222350165,-0.1172746824264358,0.15489536745346372,0.13370761137827702
1728064582260765700,0.790765625,-1.3385663032531738,0.4900442361831665,1.3660011291503906,0.33907008171081543,0.19370172917842865,-0.9206036925315857,-0.036976635456085205,0.014962196350097656,-0.004231512546539307,0.9697414886870903,-0.12270943465956424,0.1569731229087935,0.1410786966328893
1728064582270796800,0.800796875,-1.608577013015747,0.5574645400047302,1.3598002195358276,0.34665459394454956,0.20252364873886108,-0.9158682823181152,-0.07198116183280945,-0.04036848247051239,-0.007853031158447266,0.9674029809654182,-0.1291402297294503,0.15933816390438976,0.14854457587838396
1728064582280827000,0.810826904296875,-1.8765286207199097,0.5357130169868469,1.3086416721343994,0.35449647903442383,0.21380764245986938,-0.9102848768234253,-0.07950261235237122,-0.09715420007705688,0.022635340690612793,0.9647738479856051,-0.13694176766829894,0.16156892350507404,0.15605732925487725
1728064582290857700,0.820857666015625,-2.111048698425293,0.4960356056690216,1.2156968116760254,0.36202070116996765,0.22741428017616272,-0.9040042757987976,-0.06845688819885254,-0.1445438116788864,0.04089087247848511,0.9619225134618793,-0.14596481527944039,0.1633772511630445,0.16342360364682143
1728064582300887800,0.8308876953125,-2.401010751724243,0.42804425954818726,1.1017016172409058,0.36894235014915466,0.24356727302074432,-0.8969707489013672,-0.04957595467567444,-0.15947607159614563,0.019224166870117188,0.9588604522932707,-0.1562773530511335,0.16459652393856353,0.17050505709495906
1728064582310919000,0.8409189453125,-2.630052328109741,0.36321812868118286,1.0516784191131592,0.37523430585861206,0.26211783289909363,-0.8890969753265381,-0.031087607145309448,-0.12059253454208374,0.052747488021850586,0.9555506210313869,-0.16782311605870018,0.16518749417125655,0.17740187414241684
1728064582320948700,0.85094873046875,-2.82149600982666,0.2800835072994232,1.0756590366363525,0.38100412487983704,0.28235307335853577,-0.8804047703742981,-0.010291874408721924,-0.05009901523590088,0.0736878514289856,0.9519321552531101,-0.18031389230382536,0.16518021706720892,0.18446554810249605
1728064582330979800,0.860979736328125,-2.8804502487182617,0.21591012179851532,1.1426948308944702,0.38645318150520325,0.303230881690979,-0.87103670835495,0.020849645137786865,0.009208083152770996,0.05229586362838745,0.9480002973475166,-0.19326790689895698,0.16470934455463185,0.19186884660692655
1728064582341010000,0.871010009765625,-2.897243022918701,0.1808079481124878,1.1894745826721191,0.39186474680900574,0.32377758622169495,-0.861167848110199,0.032024383544921875,0.036116212606430054,0.014152467250823975,0.9437953700593907,-0.2062093307679218,0.1639932180497777,0.19958521479954275
1728064582351040800,0.881040771484375,-2.916053533554077,0.15544453263282776,1.1935886144638062,0.3973012864589691,0.3440316915512085,-0.8507607579231262,0.033103346824645996,0.045097947120666504,-0.04311436414718628,0.9393343776852292,-0.21914063799245323,0.16308588544597893,0.20743969653544325
1728064582361070800,0.89107080078125,-2.8849270343780518,0.14975214004516602,1.1371791362762451,0.40277448296546936,0.36398568749427795,-0.839813768863678,0.014950037002563477,0.04209643602371216,-0.05644172430038452,0.9346803935334059,-0.23201142630261148,0.16206116638619963,0.21512670573767817
1728064582371102000,0.90110205078125,-2.8226990699768066,0.14223936200141907,1.0603506565093994,0.40814515948295593,0.3833746910095215,-0.8285175561904907,-0.00758671760559082,0.0363183319568634,-0.08224904537200928,0.9299450235314145,-0.2446179102773585,0.16094502029495475,0.22239810067787924
1728064582381131800,0.9111318359375,-2.7663328647613525,0.07961991429328918,1.0373457670211792,0.4132080078125,0.4021659791469574,-0.8170199990272522,-0.026702910661697388,0.0486702024936676,-0.0832485556602478,0.9251514242912625,-0.25692441670682503,0.1596240662714794,0.22935761941718738
1728064582391163000,0.921162841796875,-2.641923427581787,-0.012611211277544498,1.0807979106903076,0.4178643822669983,0.4198017120361328,-0.8057021498680115,-0.02101382613182068,0.08622550964355469,-0.033683836460113525,0.9203163967905994,-0.26865965017783944,0.158021903722177,0.23636610544619832
1728064582401193000,0.93119287109375,-2.499199867248535,-0.0967983677983284,1.1376513242721558,0.4221835434436798,0.43573492765426636,-0.794918954372406,0.005535513162612915,0.11702996492385864,-0.04143059253692627,0.9154931324731003,-0.2795381269396651,0.15620169628370897,0.2435810638860826
1728064582411223800,0.941223876953125,-2.4205880165100098,-0.12736745178699493,1.1437736749649048,0.42639556527137756,0.45028921961784363,-0.784491240978241,0.02010709047317505,0.12130504846572876,-0.07520419359207153,0.9106592699198178,-0.2897397496999509,0.15428954859462626,0.25088918969645985
1728064582421254000,0.95125390625,-2.4439544677734375,-0.13030466437339783,1.1090468168258667,0.43056589365005493,0.464392751455307,-0.7739201784133911,0.01195421814918518,0.1026695966720581,-0.09590709209442139,0.9057338599596857,-0.2997528063656779,0.15227662662404237,0.2580821787212842
1728064582431285000,0.961284912109375,-2.5024986267089844,-0.1423799693584442,1.0699100494384766,0.4346761405467987,0.4786623418331146,-0.7628492116928101,-0.009154349565505981,0.07794773578643799,-0.09416061639785767,0.9006351372485909,-0.30991599683104815,0.1500914958441941,0.2651053481482503
1728064582441314800,0.971314697265625,-2.600231885910034,-0.14474011957645416,1.037658929824829,0.4387392997741699,0.4934180676937103,-0.7510303258895874,-0.01604035496711731,0.05106130242347717,-0.0831371545791626,0.8952925491884866,-0.32042644874120096,0.1476879809530515,0.2719678707193406
1728064582451346000,0.981345947265625,-2.534862995147705,-0.2302270531654358,1.0264544486999512,0.4425877630710602,0.5081723928451538,-0.7388348579406738,-0.01587575674057007,0.04393637180328369,-0.05591917037963867,0.8897700214919914,-0.33099628893671806,0.14499660580635193,0.27879541807650204
1728064582461375700,0.991375732421875,-2.2575454711914062,-0.34263208508491516,1.0008718967437744,0.44574183225631714,0.5213356018066406,-0.7276836037635803,-0.003923654556274414,0.0348319411277771,-0.005165517330169678,0.8844872555968359,-0.34056282335142984,0.14203930606693618,0.28552429377228555
1728064582471406600,1.001406494140625,-1.8737646341323853,-0.4031694829463959,0.9686204195022583,0.44821232557296753,0.5319621562957764,-0.7184162735939026,0.019576311111450195,0.04749035835266113,-0.020551562309265137,0.8797417537296808,-0.3484989166516728,0.13906964297211885,0.29199745785957437
1728064582481436700,1.011436767578125,-1.3418974876403809,-0.411947101354599,0.9610349535942078,0.45046156644821167,0.5392033457756042,-0.7115785479545593,0.04106977581977844,0.11120253801345825,-0.0448606014251709,0.8757509269780356,-0.3543394530392782,0.13658062597284576,0.2980762590105151
1728064582491467800,1.0214677734375,-0.7997226119041443,-0.399580180644989,0.9560045003890991,0.45282605290412903,0.5423843860626221,-0.7076494693756104,0.050774991512298584,0.1809738278388977,-0.06844305992126465,0.8726748661492377,-0.35772596636293524,0.13493475219070172,0.30374887497102776
1728064582501497900,1.031497802734375,-0.3804217278957367,-0.2966160476207733,0.9234012961387634,0.455516517162323,0.5421400666236877,-0.7061082720756531,0.049900323152542114,0.20825666189193726,-0.08573132753372192,0.8704291568287964,-0.3590596985943059,0.13424604730806525,0.308880617334992
1728064582511528700,1.04152880859375,-0.30161720514297485,-0.1706426590681076,0.8579506278038025,0.4587111473083496,0.5403569340705872,-0.7054066061973572,0.032743871212005615,0.18736523389816284,-0.10198169946670532,0.8686067147317318,-0.35951672284863534,0.13432957619333558,0.31340963892600093
1728064582521558800,1.051558837890625,-0.43977120518684387,-0.08092710375785828,0.785724937915802,0.4623226523399353,0.5390921831130981,-0.7040151357650757,0.010791301727294922,0.14802628755569458,-0.07517486810684204,0.8667399379147382,-0.36033328706642964,0.13473071056995248,0.3174417773287068
1728064582531589600,1.061589599609375,-0.7673437595367432,-0.06891651451587677,0.6898173093795776,0.4658672511577606,0.5398322939872742,-0.7011054158210754,-0.004258394241333008,0.0738152265548706,-0.00894707441329956,0.8645219634609688,-0.36230710010834705,0.1348363985833757,0.3211767083832317
1728064582541619700,1.07161962890625,-0.9400414824485779,-0.1705329865217209,0.594763994216919,0.46857771277427673,0.5430153608322144,-0.6968279480934143,-0.002696424722671509,-0.007035195827484131,0.04039490222930908,0.8619406221509157,-0.36552007680385595,0.13409362277976036,0.32476494925837857
1728064582551650800,1.08165087890625,-0.7272713780403137,-0.22114530205726624,0.506058931350708,0.47017014026641846,0.5463324785232544,-0.6931528449058533,0.0016926229000091553,-0.049628376960754395,0.0823739767074585,0.8596191073531103,-0.36847685011039594,0.13284726776752914,0.32807221995896085
1728064582561681000,1.091680908203125,-0.3620181381702423,-0.21194279193878174,0.48115143179893494,0.4713836908340454,0.5479050874710083,-0.6910842061042786,0.023153632879257202,-0.024025142192840576,0.011183083057403564,0.8579127440843286,-0.3702116996230612,0.1319136077054222,0.3309497617719402
1728064582571711700,1.101711669921875,0.3300929367542267,-0.2047613114118576,0.5146686434745789,0.47260576486587524,0.5458219647407532,-0.691897451877594,0.04581153392791748,0.11943066120147705,0.01570427417755127,0.8571674675122369,-0.36968438381539165,0.13185114474587908,0.33348545680508357
1728064582581741800,1.111741943359375,1.1223750114440918,-0.12324931472539902,0.6235370635986328,0.47457367181777954,0.5380380749702454,-0.6966310143470764,0.08093777298927307,0.29504597187042236,-0.007943511009216309,0.8576672773379905,-0.3658967283986087,0.13343192108567642,0.33574128811658194
1728064582591772700,1.121772705078125,1.7216451168060303,-0.03347308188676834,0.6953249573707581,0.4775829613208771,0.5247392058372498,-0.7046723961830139,0.11381712555885315,0.39698314666748047,-0.12497848272323608,0.8592088583363854,-0.3591184316671578,0.13673975392666476,0.33778126908793465
1728064582601802800,1.131802734375,1.9846165180206299,0.0935048907995224,0.6979918479919434,0.4814611077308655,0.5080015063285828,-0.7142336368560791,0.11483708024024963,0.39319783449172974,-0.1254270076751709,0.8613342775573447,-0.3505862094708992,0.1413240427726482,0.3394409345103605
1728064582611834000,1.141834228515625,1.8904428482055664,0.1522478312253952,0.6491718888282776,0.48582857847213745,0.49060648679733276,-0.7233781218528748,0.08011987805366516,0.31116652488708496,-0.08568865060806274,0.8634722194214947,-0.34186753817179655,0.14641562943934272,0.34074148755334416
1728064582621864200,1.1518642578125,1.556950330734253,0.12171043455600739,0.5645440816879272,0.48983198404312134,0.4749506413936615,-0.7310858964920044,0.048025041818618774,0.1836187243461609,-0.008232951164245605,0.8652626677975827,-0.334129916449114,0.1510439067433317,0.34185307859829484
1728064582631895000,1.16189501953125,1.0368093252182007,0.05263309180736542,0.4736674129962921,0.4929497539997101,0.46276453137397766,-0.7367832660675049,0.03134220838546753,0.04637548327445984,0.07650494575500488,0.8664680853468655,-0.3282130814561654,0.15454622205177537,0.34296471380447474
1728064582641924900,1.1719248046875,0.43736591935157776,0.025668267160654068,0.3998054563999176,0.49523648619651794,0.45514529943466187,-0.7399889230728149,0.02780422568321228,-0.06090393662452698,0.13485586643218994,0.8668958505865356,-0.3247336135368098,0.15669593097234963,0.344218123683213
1728064582651955000,1.181954833984375,-0.10303819179534912,0.019091857597231865,0.3645622432231903,0.4971713423728943,0.4520584046840668,-0.7405834197998047,0.026418715715408325,-0.10914763808250427,0.1662883758544922,0.8664732752239063,-0.32378448196198006,0.1577082334936567,0.3457104994156823
1728064582661985800,1.19198583984375,-0.514154851436615,-0.03269096836447716,0.33935701847076416,0.4987678825855255,0.452645480632782,-0.7391499280929565,0.0325583815574646,-0.11135217547416687,0.17076003551483154,0.8653399057575654,-0.32488173170742335,0.157724093629453,0.3475079764806073
1728064582672016000,1.202015869140625,-0.8095899820327759,-0.1264004111289978,0.29490965604782104,0.4996821880340576,0.4560336470603943,-0.7364448308944702,0.053326815366744995,-0.0929202139377594,0.13923108577728271,0.8637432433960737,-0.3274213106744159,0.1567573747007044,0.34952817853361773
1728064582682047000,1.212046875,-0.8956435918807983,-0.24716761708259583,0.2580491304397583,0.49957042932510376,0.4610247015953064,-0.7334067821502686,0.06564557552337646,-0.058223217725753784,0.10729295015335083,0.8619788497147561,-0.33061746924428004,0.1548828180545279,0.3517040476830186
1728064582692076800,1.222076904296875,-0.8534793853759766,-0.2946041226387024,0.2518173158168793,0.4987582564353943,0.46622681617736816,-0.7306659817695618,0.07936671376228333,-0.021875619888305664,0.08309823274612427,0.8602694610758966,-0.33374916479894706,0.15257296161165765,0.3539342896140085
1728064582702108000,1.23210791015625,-0.7183136343955994,-0.28584742546081543,0.2954729199409485,0.49790042638778687,0.4706301987171173,-0.7284245491027832,0.08855581283569336,0.012798786163330078,0.026611804962158203,0.8586764680463176,-0.33642035526423786,0.15036316092272456,0.3562118342298851
1728064582712138000,1.242137939453125,-0.5495662093162537,-0.24228636920452118,0.34671321511268616,0.4975157678127289,0.4736482799053192,-0.7267292141914368,0.08190613985061646,0.038360387086868286,0.018324673175811768,0.8572198263695874,-0.3384384547156221,0.1486432440559643,0.3585229561666401
1728064582722168800,1.2521689453125,-0.3995141386985779,-0.1785726398229599,0.3491230905056,0.49766018986701965,0.475315123796463,-0.7255411148071289,0.06319186091423035,0.039730072021484375,0.026169776916503906,0.8559388660322796,-0.3398184233220683,0.147488611198076,0.36074810731723045
1728064582732199000,1.262198974609375,-0.31236618757247925,-0.11517689377069473,0.30477374792099,0.4981887638568878,0.4762302339076996,-0.7245776057243347,0.03885951638221741,0.01794084906578064,0.03634518384933472,0.8548440055608992,-0.3408262808993554,0.1467946074168977,0.36267123262429
1728064582742230000,1.27222998046875,-0.28989309072494507,-0.079337939620018,0.24140863120555878,0.49883773922920227,0.4769994020462036,-0.7236245274543762,0.015139251947402954,-0.015176892280578613,0.04260951280593872,0.8539045541116282,-0.34172218355848344,0.1463341738523337,0.3642240875480263
1728064582752260000,1.282260009765625,-0.34545621275901794,-0.06322368234395981,0.17489326000213623,0.4993438422679901,0.47823959589004517,-0.7224559187889099,0.0023193359375,-0.048994600772857666,0.05996507406234741,0.853036315453995,-0.3427914805472071,0.14582880322056294,0.36545439894901294
1728064582762291000,1.292291015625,-0.35824286937713623,-0.09882482141256332,0.16153484582901,0.49957898259162903,0.4799879789352417,-0.7211326956748962,0.002633512020111084,-0.05260458588600159,0.07901233434677124,0.8521727645693317,-0.3440522176670342,0.145126576339234,0.3665623153483125
1728064582772321000,1.302321044921875,-0.2843174934387207,-0.11777400970458984,0.17839638888835907,0.4996662735939026,0.4814569652080536,-0.720092236995697,0.018751055002212524,-0.02822515368461609,0.11280769109725952,0.8513681892567933,-0.3451179118844262,0.14438665606468273,0.36772051616556384
1728064582782352000,1.312351806640625,-0.1530715972185135,-0.11808346956968307,0.18107818067073822,0.4996960163116455,0.48218169808387756,-0.7195865511894226,0.049299925565719604,-0.0026437044143676758,0.10325348377227783,0.8507307619008148,-0.3457341266501341,0.14378680484624232,0.36885033637201103
1728064582792382000,1.3223818359375,0.05819377675652504,-0.08898470550775528,0.19329357147216797,0.49985942244529724,0.48163163661956787,-0.7198413014411926,0.05713212490081787,0.029202133417129517,0.0841602087020874,0.8503674064255988,-0.34563742274300774,0.1435761411485243,0.36985939023473846
1728064582802413000,1.3324130859375,0.2887617349624634,-0.030813544988632202,0.217258021235466,0.5004255175590515,0.4793144464492798,-0.72099369764328,0.04785323143005371,0.042459845542907715,0.0730445384979248,0.8503302092543874,-0.344623396429521,0.14400648400644592,0.3707226531173353
1728064582812443100,1.342443115234375,0.4076545834541321,0.056358907371759415,0.20977161824703217,0.5015643239021301,0.47561389207839966,-0.7226510643959045,0.03856617212295532,0.025942504405975342,0.048807740211486816,0.8505340457659024,-0.3429556437127273,0.14510647621834838,0.3713721510577502
1728064582822474000,1.352473876953125,0.35935360193252563,0.1461055725812912,0.1808805763721466,0.503271222114563,0.47176599502563477,-0.7239854335784912,0.02129542827606201,-0.007654666900634766,0.03247237205505371,0.8507626926567574,-0.34133135936794057,0.14662938431076386,0.3717466609238238
1728064582832504000,1.362504150390625,0.1825104057788849,0.1941862851381302,0.1444442719221115,0.5053213834762573,0.46893051266670227,-0.7243994474411011,-0.007320284843444824,-0.04653671383857727,0.048221468925476074,0.8508008558026,-0.3403588029048795,0.14817614548947539,0.37193776668000916
1728064582842535000,1.372534912109375,-0.022450203076004982,0.17979855835437775,0.08483313769102097,0.5072647333145142,0.4677613377571106,-0.7237968444824219,-0.02748262882232666,-0.08426216244697571,0.09400558471679688,0.8505751953968148,-0.3402914814880354,0.14934285176988588,0.372048768770869
1728064582852565000,1.38256494140625,-0.20860277116298676,0.13190746307373047,0.0263714250177145,0.5086936950683594,0.4683442711830139,-0.7224156260490417,-0.03059011697769165,-0.11513379216194153,0.11986130475997925,0.8501464423856068,-0.3410596363023339,0.14990165104794415,0.37210061648373316
1728064582862596000,1.39259619140625,-0.2971203923225403,0.094817616045475,0.01541571132838726,0.5095992684364319,0.4701504707336426,-0.7206019163131714,-0.02230989933013916,-0.11724519729614258,0.1297816038131714,0.8495791420301254,-0.3423752518205654,0.14992744659218143,0.3721776287241314
1728064582872626200,1.402626220703125,-0.22692425549030304,0.08763746917247772,0.0582856759428978,0.5104054808616638,0.471925288438797,-0.7188690304756165,-0.004729211330413818,-0.07650905847549438,0.11343085765838623,0.8489807085082688,-0.34366775358669427,0.14985975711730962,0.3723791061330532
1728064582882657000,1.412656982421875,-0.07894091308116913,0.14102160930633545,0.0924079641699791,0.511574387550354,0.4726455807685852,-0.7175637483596802,0.01976710557937622,-0.02631080150604248,0.05316561460494995,0.8484842617914364,-0.34447775879682235,0.15017723131981697,0.3726341543363438
1728064582892687000,1.42268701171875,0.06445380300283432,0.23442159593105316,0.1105177253484726,0.5134084224700928,0.4721457064151764,-0.7165822982788086,0.02966707944869995,0.013892531394958496,-0.005433082580566406,0.848144697882347,-0.34476662810074243,0.15114503093674547,0.3727488321616696
1728064582902718000,1.432718017578125,0.044690217822790146,0.3334067761898041,0.13878504931926727,0.5160983204841614,0.47100991010665894,-0.715396523475647,0.023833870887756348,0.03935083746910095,-0.04529988765716553,0.8478052637150204,-0.34492773065473253,0.15273050947182323,0.3727257211278057
1728064582912747800,1.442747802734375,-0.15605807304382324,0.32540714740753174,0.12997372448444366,0.5191683769226074,0.47062402963638306,-0.713426411151886,0.018536031246185303,0.017580926418304443,-0.040998637676239014,0.8472098124214649,-0.34564753799859654,0.1543197273653873,0.37275833734613195
1728064582922779100,1.452779052734375,-0.49529045820236206,0.22702546417713165,0.06216058135032654,0.5216627717018127,0.47239062190055847,-0.7104330062866211,0.019123971462249756,-0.05939626693725586,0.033507347106933594,0.8462470496965203,-0.34745985827880854,0.1550971595983471,0.37293764502777943
1728064582932809000,1.46280908203125,-0.8376117944717407,0.04562077671289444,-0.013789843767881393,0.5227757692337036,0.4770200550556183,-0.7065106630325317,0.02300053834915161,-0.1460111439228058,0.09107792377471924,0.8449204331514202,-0.3505425098994823,0.15448178880032512,0.373315847903624
1728064582942839800,1.47283984375,-1.052467942237854,-0.11298298090696335,-0.07288059592247009,0.5222975611686707,0.48402005434036255,-0.7020895481109619,0.02764439582824707,-0.19167691469192505,0.12045502662658691,0.8433410404050247,-0.3545610347770515,0.152452236705005,0.3739259334669705
1728064582952870000,1.482869873046875,-1.0517358779907227,-0.18681564927101135,-0.08844943344593048,0.5208141207695007,0.49194610118865967,-0.697668731212616,0.03181332349777222,-0.16626250743865967,0.09696072340011597,0.8416985294473384,-0.3588473831563417,0.14964690372631276,0.37467037410899134
1728064582962901000,1.49290087890625,-0.8467003703117371,-0.15959414839744568,-0.049786727875471115,0.5192351341247559,0.49902892112731934,-0.6938047409057617,0.03432321548461914,-0.07207277417182922,0.03541851043701172,0.8402236781440112,-0.3626260605491085,0.14696925328127391,0.37540189951318964
1728064582972930800,1.502930908203125,-0.5697953701019287,-0.07452336698770523,0.03125912323594093,0.5183590650558472,0.5039949417114258,-0.6908639669418335,0.03564178943634033,0.044253408908843994,-0.041969895362854004,0.8390424907317391,-0.36538719393428376,0.14512135075703092,0.37608471818448724
1728064582982962000,1.5129619140625,-0.34429168701171875,0.010885806754231453,0.14780545234680176,0.518651008605957,0.5066152811050415,-0.6887249946594238,0.03440374135971069,0.1193002462387085,-0.09136533737182617,0.8380656134142593,-0.3671559198354899,0.14434000639261374,0.37684021164348225
1728064582992992000,1.522991943359375,-0.3464328646659851,0.06344541907310486,0.18474216759204865,0.5198246836662292,0.5079734325408936,-0.6868371963500977,0.03351998329162598,0.10468220710754395,-0.07588863372802734,0.8370938564520582,-0.3684904670965393,0.14420881388364246,0.3777466246115177
1728064583003022800,1.53302294921875,-0.5518280267715454,0.07064133137464523,0.09332728385925293,0.5210912823677063,0.5102340579032898,-0.6841965913772583,0.02488332986831665,0.0008133053779602051,-0.06458264589309692,0.8359443784418337,-0.37037426901907994,0.1439603842749676,0.37854349647071306
1728064583013053000,1.543052978515625,-0.7912131547927856,-0.01656094565987587,-0.022819558158516884,0.5214956402778625,0.5146828889846802,-0.6805467009544373,-0.005535006523132324,-0.09694302082061768,-0.011332511901855469,0.8345955256581714,-0.3732450397181042,0.14288031821053168,0.37910896645326025
1728064583023084000,1.553083984375,-0.9076383709907532,-0.1254546195268631,-0.04169950634241104,0.5208367705345154,0.5207406878471375,-0.6764304637908936,-0.020455360412597656,-0.12782686948776245,0.06592631340026855,0.8330957365986931,-0.3767438758328918,0.14088587267031594,0.3796928667633338
1728064583033113900,1.56311376953125,-0.8166834115982056,-0.2020021229982376,0.027020437642931938,0.5196763873100281,0.5267137289047241,-0.6726880073547363,0.01584601402282715,-0.08295762538909912,0.07785463333129883,0.8315623814168055,-0.3800938596688414,0.138508723723331,0.38058901288321906
1728064583043145000,1.57314501953125,-0.566520631313324,-0.18860433995723724,0.10879306495189667,0.5187059044837952,0.5310518741607666,-0.6700209975242615,0.06758248805999756,0.0041501522064208984,0.026527345180511475,0.8302341968909974,-0.3825734224004688,0.13648109373040926,0.38173502695613054
1728064583053175000,1.583175048828125,-0.24409012496471405,-0.13506628572940826,0.1588037759065628,0.5183776617050171,0.5330588221549988,-0.66867995262146,0.08657228946685791,0.08400660753250122,-0.04630112648010254,0.8292968265327831,-0.3838644888076254,0.1353073414352554,0.382892622799823
1728064583063206000,1.593205810546875,-0.03394034504890442,-0.058436647057533264,0.1442679762840271,0.5185551643371582,0.5331007838249207,-0.6685088276863098,0.06779420375823975,0.11327672004699707,-0.09972542524337769,0.8288195448724525,-0.38409907169888236,0.1349573845773281,0.38381314088406493
1728064583073236000,1.603236083984375,-0.022470375522971153,0.036203574389219284,0.10397087782621384,0.5191654562950134,0.5325695276260376,-0.6684585213661194,0.023314952850341797,0.0810931921005249,-0.11971896886825562,0.8285551818761993,-0.38407005818396867,0.1351329829127696,0.3843507217395234
1728064583083267000,1.61326708984375,-0.20886340737342834,0.09290477633476257,0.08208874613046646,0.5201530456542969,0.53277188539505,-0.6675290465354919,-0.032588958740234375,0.02090853452682495,-0.07967865467071533,0.8281228997198652,-0.3845761426700085,0.1354129770310535,0.38467785024748397
1728064583093297000,1.623296875,-0.4579757750034332,0.04908778518438339,0.04066673666238785,0.5210371613502502,0.5346753597259521,-0.6653138399124146,-0.058818042278289795,-0.05280280113220215,-0.008804142475128174,0.8272938554089111,-0.38607996797110483,0.13522330807141314,0.3850217431664132
1728064583103327000,1.633326904296875,-0.6748929023742676,-0.07168225198984146,-0.04197834059596062,0.5210270285606384,0.5384410619735718,-0.6622779369354248,-0.06010478734970093,-0.10745656490325928,0.0649268627166748,0.8261877921522793,-0.3884250984311685,0.1341155471713503,0.3854253431032972
1728064583113358000,1.643358154296875,-0.782370924949646,-0.19351361691951752,-0.13199664652347565,0.5196593999862671,0.5437976717948914,-0.6589674949645996,-0.04300534725189209,-0.11769598722457886,0.05732870101928711,0.825001156039814,-0.3912846720032144,0.13195661079099663,0.38581970273686106
1728064583123388200,1.65338818359375,-0.7092036604881287,-0.21497485041618347,-0.1729600578546524,0.517425000667572,0.5495845675468445,-0.655917763710022,-0.020873606204986572,-0.06380575895309448,0.04143112897872925,0.8239531431863008,-0.39410227328664005,0.12932335335656966,0.3860828160382255
1728064583133419000,1.6634189453125,-0.5485926866531372,-0.17368680238723755,-0.13007117807865143,0.5153128504753113,0.5545544624328613,-0.6533927321434021,0.004843950271606445,0.03579282760620117,0.004329562187194824,0.8231164847891999,-0.39645361575269367,0.12699673258484753,0.3862326566951576
1728064583143449000,1.673448974609375,-0.3713807463645935,-0.13775986433029175,-0.057074204087257385,0.5137962698936462,0.5580050349235535,-0.6516469120979309,0.027097225189208984,0.11493808031082153,-0.014383971691131592,0.8224795675542521,-0.3980930157710698,0.1252936001774826,0.3864592333228683
1728064583153480000,1.68347998046875,-0.3672219514846802,-0.11243665963411331,-0.02797011099755764,0.512789249420166,0.5605061650276184,-0.6502922177314758,0.03521484136581421,0.12049353122711182,-0.028082966804504395,0.8219170132615924,-0.3993389934973623,0.12402520580128394,0.3867796197804095
1728064583163510000,1.693510009765625,-0.5406841039657593,-0.10414741188287735,-0.04511314630508423,0.5119315385818481,0.5635555386543274,-0.6483295559883118,0.01875382661819458,0.05489844083786011,-0.04519766569137573,0.8211483529839119,-0.40098395776981854,0.12266654058374168,0.3871435378677801
1728064583173541000,1.703541015625,-0.9050098657608032,-0.10947879403829575,-0.12217890471220016,0.5107985138893127,0.5685840249061584,-0.6448232531547546,-0.015162646770477295,-0.05726200342178345,-0.029340505599975586,0.819930881052602,-0.4037597445386229,0.12069153524505377,0.387459511925481
1728064583183571000,1.713571044921875,-1.3349910974502563,-0.13935738801956177,-0.23651425540447235,0.5089919567108154,0.5767272710800171,-0.638993501663208,-0.04094398021697998,-0.17455142736434937,-0.010893523693084717,0.8180670178393716,-0.40824209488554064,0.11765047412737942,0.38763765871615385
1728064583193602000,1.72360205078125,-1.6329960823059082,-0.20180292427539825,-0.30480146408081055,0.506309449672699,0.5876756310462952,-0.6311007738113403,-0.061347901821136475,-0.20690780878067017,0.03667938709259033,0.815612242216984,-0.4142122169729141,0.11348061078858242,0.3877204480834904
1728064583203631900,1.7336318359375,-1.6298927068710327,-0.28374606370925903,-0.24124562740325928,0.50312340259552,0.5994883179664612,-0.6224794387817383,-0.05916893482208252,-0.13308817148208618,0.09953022003173828,0.8128327010295443,-0.42064924032479356,0.10869450279040838,0.3879984607991555
1728064583213663000,1.7436630859375,-1.2955962419509888,-0.32267799973487854,-0.06149691343307495,0.5002854466438293,0.6094573140144348,-0.6150417327880859,-0.028193771839141846,0.0045258402824401855,0.14755821228027344,0.8101491253798313,-0.42616307472926646,0.10423131706896259,0.3888178395603521
1728064583223692800,1.75369287109375,-0.8225094676017761,-0.27523285150527954,0.05981592833995819,0.4985485374927521,0.6158758401870728,-0.6100379824638367,0.012300431728363037,0.11588990688323975,0.09380263090133667,0.8080115442362852,-0.4298606146086643,0.10099927399488635,0.3900466570238341
1728064583233724000,1.763723876953125,-0.43174517154693604,-0.18417860567569733,-0.001449288334697485,0.49738407135009766,0.619437575340271,-0.6073765158653259,0.022543877363204956,0.1357961893081665,-0.04219013452529907,0.806724693006683,-0.4318803518831431,0.09894996636843562,0.3910033295811615
1728064583243754000,1.77375390625,-0.3430463969707489,-0.12170733511447906,-0.10935072600841522,0.49613991379737854,0.6219183206558228,-0.6058571934700012,-0.04208415746688843,0.07646119594573975,-0.09407877922058105,0.8061211985092176,-0.43308293530734343,0.09752224358068422,0.39127656322871296
1728064583253784800,1.783784912109375,-0.7243673801422119,-0.13194239139556885,-0.14296193420886993,0.49462464451789856,0.6256089210510254,-0.603290855884552,-0.10056647658348083,-0.03620767593383789,-0.07975351810455322,0.8053421432246611,-0.434947060476374,0.0957894904525228,0.391240734201853
1728064583263815000,1.79381494140625,-1.405224323272705,-0.2446770966053009,-0.09718673676252365,0.4927734136581421,0.6325402855873108,-0.5975510478019714,-0.10899963974952698,-0.1520867943763733,0.025422751903533936,0.8033558117391238,-0.4388923214833034,0.09272544899717786,0.39165684835860765
1728064583273846000,1.803845947265625,-2.175837755203247,-0.3252297341823578,-0.02255377545952797,0.49069714546203613,0.6434925198554993,-0.5874808430671692,-0.07101944088935852,-0.26695138216018677,0.15318512916564941,0.7996168088045048,-0.44556865582329347,0.08790998399032077,0.3928783390895277
1728064583283875800,1.813875732421875,-2.7265634536743164,-0.368085116147995,0.04067792370915413,0.48878151178359985,0.6578190922737122,-0.5730329751968384,-0.02361735701560974,-0.3345158100128174,0.17714369297027588,0.7941581886241087,-0.4547647328940186,0.08168563471250641,0.39475233385846764
1728064583293907000,1.823906982421875,-2.871533155441284,-0.41509175300598145,0.1697096824645996,0.4872450828552246,0.6733531951904297,-0.5560464262962341,0.011290043592453003,-0.2935924530029297,0.1864328384399414,0.7875803231198439,-0.465176797429468,0.0747483828861997,0.3971655245968524
1728064583303937000,1.83393701171875,-2.6503517627716064,-0.4436050355434418,0.23959821462631226,0.486331582069397,0.6875995993614197,-0.5391552448272705,0.04966387152671814,-0.1509784460067749,0.1479198932647705,0.7807346816047607,-0.475185544089908,0.06797855102958085,0.4000386336727472
1728064583313967900,1.8439677734375,-2.1016712188720703,-0.4242824614048004,0.21054312586784363,0.48562851548194885,0.6992262601852417,-0.5246404409408569,0.07079845666885376,0.0305863618850708,0.043103575706481934,0.7746625623190577,-0.4835616598396826,0.06203142872155248,0.40276319041565867
1728064583323998000,1.853998046875,-1.5518285036087036,-0.3556089997291565,0.14058561623096466,0.48482832312583923,0.707775354385376,-0.5138049125671387,0.005421280860900879,0.15867972373962402,-0.03236818313598633,0.7700091365042978,-0.4897111045866224,0.057276412876539354,0.40495467708648963
1728064583334029000,1.864029052734375,-1.3288267850875854,-0.25760096311569214,0.06811860203742981,0.4840152859687805,0.7145280241966248,-0.5051523447036743,-0.061179012060165405,0.18798357248306274,-0.10097253322601318,0.7663720964381077,-0.49453542157968977,0.05346528256171621,0.4065094770086745
1728064583344059000,1.874058837890625,-1.3962702751159668,-0.2226054072380066,0.033847447484731674,0.4832039475440979,0.7210275530815125,-0.4966217279434204,-0.10008633136749268,0.14977627992630005,-0.0697692334651947,0.7629884535023623,-0.49919262733957137,0.049958584703715045,0.4076265036010308
1728064583354090000,1.884090087890625,-1.6701263189315796,-0.27564066648483276,-0.0018618120811879635,0.48213329911231995,0.7284886837005615,-0.48667407035827637,-0.09918352961540222,0.0996362566947937,-0.0009510219097137451,0.7591579272722943,-0.5045318444543514,0.04594101725859124,0.40867620039978386
1728064583364120000,1.8941201171875,-1.8811928033828735,-0.35355645418167114,-0.049657031893730164,0.48042014241218567,0.7372184991836548,-0.47508448362350464,-0.06583887338638306,0.06543952226638794,-0.0026987195014953613,0.754737256936669,-0.5106619465306258,0.041013800114207785,0.40977290232999647
1728064583374151000,1.90415087890625,-1.9305051565170288,-0.32207947969436646,-0.06311558187007904,0.4783846139907837,0.7465198040008545,-0.46244585514068604,-0.051413267850875854,0.05404776334762573,0.02119225263595581,0.7499745642362218,-0.5172115772618351,0.035626647035170746,0.4108052441505595
1728064583384181000,1.914180908203125,-1.8047212362289429,-0.27076759934425354,-0.03706294298171997,0.4766630530357361,0.7553436756134033,-0.44972023367881775,-0.04435107111930847,0.06985163688659668,0.0036600232124328613,0.745228618256681,-0.5236489418495738,0.030523302343952778,0.41169696885647616
1728064583394212000,1.924212158203125,-1.5891079902648926,-0.22339023649692535,-0.012129629030823708,0.47539222240448,0.7630212306976318,-0.43795067071914673,-0.03345194458961487,0.09978693723678589,-0.01984351873397827,0.7408194287695069,-0.5294782000750545,0.026028924956267036,0.4125068415372347
1728064583404242000,1.934241943359375,-1.3635942935943604,-0.20857630670070648,0.05361982062458992,0.4747854471206665,0.7692154049873352,-0.42765235900878906,-0.014977127313613892,0.1237594485282898,-0.07748985290527344,0.7368545489786851,-0.5344858977482808,0.022330492907264618,0.41336619924769674
1728064583414273000,1.94427294921875,-1.214861273765564,-0.19885869324207306,-0.010063815861940384,0.47408443689346313,0.7745479941368103,-0.41871151328086853,0.019247442483901978,0.1350284218788147,-0.11749762296676636,0.7333864731655271,-0.5387801161809244,0.018979887024092885,0.41412558155386536
1728064583424303000,1.95430322265625,-1.178875207901001,-0.17639002203941345,-0.08664248138666153,0.47290733456611633,0.7797583341598511,-0.41028711199760437,0.02480381727218628,0.11619192361831665,-0.08739352226257324,0.7302625807429747,-0.5427808953387186,0.015663345235772234,0.4145601153556643
1728064583434334000,1.964333984375,-1.17242431640625,-0.12354864925146103,-0.10634694248437881,0.47151994705200195,0.7850222587585449,-0.4017573297023773,0.01534220576286316,0.08742952346801758,-0.06130111217498779,0.727260644264754,-0.546779393902291,0.01239469392363296,0.41469338794205834
1728064583444364000,1.974364013671875,-1.0984569787979126,-0.05529571697115898,-0.07647213339805603,0.47043222188949585,0.7900040149688721,-0.39317575097084045,0.016735106706619263,0.05043482780456543,-0.039136290550231934,0.7243194850932201,-0.5507476530285009,0.009441901796324492,0.4146675071518904
1728064583454395100,1.98439501953125,-0.9779044389724731,0.005289332941174507,-0.03930159658193588,0.4698948264122009,0.7943266034126282,-0.3850245773792267,0.025085002183914185,0.022369444370269775,-0.018768757581710815,0.7215554160532603,-0.5544710625842807,0.007039289062962097,0.41457198989904015
1728064583464425000,1.994425048828125,-0.828204870223999,0.05562211945652962,-0.01112029142677784,0.4698260724544525,0.797898530960083,-0.37765267491340637,0.0465618371963501,0.014311552047729492,-0.01611560583114624,0.7190800906471442,-0.5578051265493591,0.0052055018281988875,0.41442763445712616
1728064583474456000,2.0044560546875,-0.64200758934021,0.05002681910991669,0.03521657735109329,0.47014370560646057,0.8006075024604797,-0.3714733123779297,0.07779935002326965,0.00009739398956298828,-0.052080124616622925,0.716991865395674,-0.5605782136116533,0.0039251781130515435,0.4143178107623902
1728064583484486000,2.01448583984375,-0.5553200244903564,-0.026172878220677376,0.13081768155097961,0.4708370268344879,0.802412211894989,-0.3666701316833496,0.1258883774280548,-0.04742264747619629,-0.0864090621471405,0.7151668183993929,-0.5627220277555617,0.0029765619813099655,0.41457373194942637
1728064583494517000,2.02451708984375,-0.6012566685676575,-0.17759302258491516,0.2551710307598114,0.47205206751823425,0.8035590648651123,-0.36257344484329224,0.17077013850212097,-0.11515885591506958,-0.07605567574501038,0.7131627718483446,-0.5645434119473433,0.002001693213069373,0.4155543921604459
1728064583504546800,2.034546875,-0.7996476888656616,-0.29671114683151245,0.32890570163726807,0.473591685295105,0.804641604423523,-0.35813772678375244,0.20165541768074036,-0.19351190328598022,-0.04608282446861267,0.7105735363261707,-0.5665075864670753,0.000537966917524233,0.4173175856948521
1728064583514578000,2.044577880859375,-1.0617693662643433,-0.3388277292251587,0.37031200528144836,0.4752891957759857,0.8062837719917297,-0.3521455228328705,0.20828920602798462,-0.2515200972557068,-0.05752244591712952,0.7071958973319956,-0.5691439823675296,-0.0015391081077238066,0.4194598542589513
1728064583524608000,2.05460791015625,-1.2309964895248413,-0.3429966866970062,0.46654319763183594,0.47744885087013245,0.8083441853523254,-0.34441569447517395,0.16560223698616028,-0.20550000667572021,-0.06838032603263855,0.702999763290437,-0.5725173027079605,-0.004011753792733946,0.4218993669968463
1728064583534637800,2.064637939453125,-1.1518402099609375,-0.26189836859703064,0.6760144233703613,0.48119163513183594,0.8096384406089783,-0.3360655605792999,0.10471531748771667,-0.11922407150268555,-0.046868979930877686,0.6982818100549497,-0.5761355566731623,-0.005919004450776269,0.42477668594249973
1728064583544669000,2.0746689453125,-0.9009360074996948,-0.21594808995723724,0.6744154691696167,0.48599812388420105,0.8097267150878906,-0.3288591206073761,0.08135411143302917,-0.0512581467628479,-0.08129706978797913,0.6938199586452024,-0.5792427313433668,-0.006949363075431159,0.42783562484701937
1728064583554699000,2.084698974609375,-0.6892639398574829,-0.2163744568824768,0.5533660054206848,0.49031370878219604,0.8092777132987976,-0.3235149681568146,0.05225828289985657,-0.004346132278442383,-0.12385740876197815,0.6901971449477223,-0.5815368002524715,-0.0075803110110911915,0.43056390706828657
1728064583564729900,2.094729736328125,-0.4972475469112396,-0.1879785656929016,0.44729894399642944,0.49369174242019653,0.8087592720985413,-0.3196510672569275,0.0016695261001586914,0.012407660484313965,-0.15006020665168762,0.687358754160246,-0.5831880663686022,-0.008132574316485732,0.4328550061791158
1728064583574760000,2.104760009765625,-0.20181670784950256,-0.12791496515274048,0.3754796087741852,0.4965919852256775,0.8077976107597351,-0.3175840377807617,0.0030418336391448975,-0.0005159974098205566,-0.11304953694343567,0.6854280050897185,-0.5840727280412609,-0.008186887556506015,0.43471900106037015
1728064583584791000,2.114791015625,0.10721971094608307,-0.1491229236125946,0.27999410033226013,0.4988142251968384,0.8063297867774963,-0.3178313970565796,0.01690232753753662,-0.030328750610351562,-0.02700197696685791,0.6845415110448296,-0.5839718673903593,-0.007820879956068713,0.4362553014530201
1728064583594820900,2.12482080078125,0.3113475441932678,-0.08839301019906998,0.16349439322948456,0.5002760291099548,0.8044552803039551,-0.3202739953994751,0.012037694454193115,0.020205914974212646,0.09215512871742249,0.6846999014393524,-0.5829348411188241,-0.0070694482085577005,0.4374047559485138
1728064583604852000,2.13485205078125,0.42872318625450134,-0.000542457215487957,-0.01091655995696783,0.5008059740066528,0.8028790950775146,-0.32338613271713257,-0.008343875408172607,0.16451287269592285,0.07857412099838257,0.6855757046988582,-0.5816088224554575,-0.006173102797238042,0.4378116540709528
1728064583614883600,2.144883544921875,0.6521714329719543,0.06294170767068863,-0.13541986048221588,0.5002699494361877,0.8014979362487793,-0.32761409878730774,-0.03490746021270752,0.2888492941856384,-0.02419254183769226,0.6873404890460996,-0.5797990862356883,-0.00509664372947452,0.4374585916206884
1728064583624914700,2.154914794921875,0.6872676610946655,0.10520650446414948,-0.05695861950516701,0.4997515380382538,0.7997239828109741,-0.3327009975910187,-0.04691648483276367,0.21156752109527588,-0.07467812299728394,0.6895704510119222,-0.5776130133194574,-0.003564359647580753,0.4368558823678067
1728064583634944800,2.16494482421875,0.3877413868904114,0.06224917992949486,0.0506618469953537,0.5001185536384583,0.7978248000144958,-0.3366852402687073,0.015308022499084473,0.04502493143081665,-0.08950799703598022,0.6911604294341332,-0.5758935181947642,-0.0020099461557618907,0.4366232086563123
1728064583644975600,2.1749755859375,-0.06818373501300812,0.01222500391304493,0.07798375189304352,0.5007944107055664,0.7969294786453247,-0.3377993106842041,0.0969991683959961,-0.07386124134063721,-0.0270078182220459,0.6914662686736298,-0.5754116242883053,-0.001343969071824225,0.43677691580360395
1728064583655005700,2.185005615234375,-0.2700641453266144,0.006716254632920027,0.06989439576864243,0.5014789700508118,0.7971835732460022,-0.3361804783344269,0.11221426725387573,-0.1002231240272522,0.05078005790710449,0.6907284865898229,-0.5761141623461232,-0.001494952873139684,0.43701770188305733
1728064583665036800,2.195036865234375,-0.1038178950548172,-0.03158676624298096,0.052624862641096115,0.50193190574646,0.7975499033927917,-0.33463209867477417,0.08945304155349731,-0.06276285648345947,0.03320994973182678,0.6900050039720761,-0.5767847773547852,-0.0018079723962850722,0.43727482297563275
1728064583675066600,2.205066650390625,0.26957541704177856,-0.013068209402263165,0.048724930733442307,0.5022789239883423,0.7970303893089294,-0.3353481590747833,0.043146491050720215,-0.0018949508666992188,-0.06232643127441406,0.6900959570046411,-0.5764749942266468,-0.0015818862972283203,0.43754041340481425
1728064583685097700,2.21509765625,0.7648172974586487,0.08483422547578812,0.026138396933674812,0.5027342438697815,0.7950611710548401,-0.33931705355644226,-0.004031240940093994,0.07250779867172241,-0.12401604652404785,0.6915038045603412,-0.5747533622979861,-0.00019755682848738806,0.4375854824084483
1728064583695127800,2.2251279296875,1.1368576288223267,0.19093483686447144,-0.010957838967442513,0.503292441368103,0.7917048931121826,-0.34626588225364685,-0.05260884761810303,0.10889935493469238,-0.15831172466278076,0.6942497252895867,-0.5717177163512676,0.0024300252218506704,0.4372073231801382
1728064583705158700,2.23515869140625,1.4248558282852173,0.2535237967967987,0.0008681942708790302,0.5040402412414551,0.7871986627578735,-0.3553333878517151,-0.08004426956176758,0.12350696325302124,-0.1713237166404724,0.6979406600932873,-0.5677120775570511,0.006025038486859444,0.4365152836365184
1728064583715188700,2.245188720703125,1.5284440517425537,0.24516546726226807,0.04795714095234871,0.5051724314689636,0.7816487550735474,-0.3658221662044525,-0.0673062801361084,0.10169774293899536,-0.12282523512840271,0.7021188594598391,-0.5630127548289457,0.010273687119990773,0.4358211461680346
1728064583725219800,2.2552197265625,1.2930066585540771,0.18138660490512848,0.11373748630285263,0.5065945386886597,0.7759413123130798,-0.3758680820465088,-0.02345561981201172,0.02848672866821289,-0.08963176608085632,0.7059278611170776,-0.5584441685836623,0.014355068855468837,0.4354305234196655
1728064583735249700,2.265249755859375,0.9238892793655396,0.1099715381860733,0.14380644261837006,0.5082064270973206,0.7710003852844238,-0.38377681374549866,0.005389094352722168,-0.030140399932861328,0.019152849912643433,0.7087432187237126,-0.5547956593246355,0.017702140720491418,0.4353980292821371
1728064583745280800,2.27528076171875,0.6014859676361084,0.01684175431728363,0.11265970766544342,0.509495198726654,0.7673853039741516,-0.3892744481563568,0.027522683143615723,-0.08489006757736206,0.10070019960403442,0.7105392185888504,-0.5522359955795005,0.019954395734153408,0.43562753358795225
1728064583755310800,2.285310791015625,0.407050222158432,-0.0585816316306591,0.07612033933401108,0.5101468563079834,0.7649319767951965,-0.3932291567325592,0.035919368267059326,-0.11603677272796631,0.10317489504814148,0.7117128164719265,-0.5503949311475905,0.021232874015500506,0.43598095222261884
1728064583765341700,2.295341796875,0.3456253409385681,-0.06839415431022644,0.08769257366657257,0.5104923844337463,0.7630795240402222,-0.3963676393032074,0.027303576469421387,-0.10006988048553467,0.07864910364151001,0.7125555164885831,-0.5489366654928751,0.022016468153306577,0.43640415783206504
1728064583775371800,2.305371826171875,0.4415161907672882,-0.07971925288438797,0.13154178857803345,0.5110849142074585,0.7609483003616333,-0.39968717098236084,0.004738450050354004,-0.0497208833694458,0.06855618953704834,0.7133792797458525,-0.5473852942567057,0.022929273743633415,0.43695946836349187
1728064583785403000,2.31540283203125,0.4766809046268463,-0.09733376652002335,0.07019773125648499,0.5115802884101868,0.758495032787323,-0.4036965072154999,-0.007964015007019043,-0.015178442001342773,0.06348654627799988,0.7144189385912993,-0.545507825622977,0.023936693914570727,0.4375543289697822
1728064583795432400,2.325432373046875,0.45559531450271606,-0.09774469584226608,-0.01097248587757349,0.5113717913627625,0.7564823031425476,-0.4077172577381134,-0.02563875913619995,0.021914303302764893,0.02260071039199829,0.7156473008526668,-0.5436288553813584,0.02467858919834649,0.43784418583414175
1728064583805463800,2.3354638671875,0.3931007981300354,-0.13360624015331268,0.021962027996778488,0.5109425187110901,0.7546695470809937,-0.4115963578224182,-0.06180012226104736,0.07490503787994385,0.05046659708023071,0.7168332983379269,-0.541816268164778,0.025237823312014736,0.438118908721594
1728064583815493600,2.34549365234375,0.2386544942855835,-0.11431243270635605,0.024878455325961113,0.5106655955314636,0.753182053565979,-0.41465333104133606,-0.06237763166427612,0.05548793077468872,0.09897947311401367,0.7176331109933416,-0.5403887321342611,0.025560879562646698,0.4385536493622365
1728064583825524500,2.3555244140625,0.15200009942054749,-0.06081730127334595,-0.018356099724769592,0.5103359818458557,0.7523528933525085,-0.41656002402305603,-0.04184544086456299,0.00570368766784668,0.04955562949180603,0.7181593635185936,-0.539499965864289,0.025686059207768088,0.4387790706339241
1728064583835554600,2.365554443359375,0.06513231247663498,-0.02075829915702343,-0.01912016049027443,0.5100052356719971,0.7520321011543274,-0.41754329204559326,-0.04578709602355957,-0.025713741779327393,-0.02314579486846924,0.7185002164820714,-0.5390424479549253,0.025721412948321167,0.4387813360034765
1728064583845585700,2.375585693359375,0.018351024016737938,-0.04327825456857681,0.004104733932763338,0.5098685622215271,0.7518505454063416,-0.41803669929504395,-0.038677215576171875,-0.06634950637817383,0.020652085542678833,0.7186373108598512,-0.5388136936335437,0.02571871012117093,0.4388378668471778
1728064583855615500,2.385615478515625,-0.057483285665512085,-0.10511285811662674,0.02172607183456421,0.5096966624259949,0.7518349289894104,-0.4182746112346649,-0.00012940168380737305,-0.05868905782699585,0.07153385877609253,0.7185636754303001,-0.5387151146804411,0.025469851303222095,0.4390941117148166
1728064583865646600,2.395646484375,-0.18401485681533813,-0.13770253956317902,0.0008359705097973347,0.5092875957489014,0.7522345781326294,-0.41805440187454224,0.030492067337036133,-0.01163393259048462,0.07607442140579224,0.718237902153665,-0.5388481080588057,0.024809604207243194,0.43950158446957843
1728064583875676700,2.4056767578125,-0.3795470595359802,-0.1614944189786911,-0.023502925410866737,0.508600115776062,0.7534753084182739,-0.41665422916412354,0.04318815469741821,0.0191686749458313,0.09589925408363342,0.7175094596891126,-0.5395502724160661,0.023630131156341855,0.4398945087884569
1728064583885707500,2.41570751953125,-0.47556647658348083,-0.20839765667915344,-0.07063209265470505,0.5075141191482544,0.7554989457130432,-0.4143073558807373,0.040154218673706055,0.05268275737762451,0.11785963177680969,0.7164524812393056,-0.5407093657210316,0.021902018275381567,0.44028332267602177
1728064583895737600,2.425737548828125,-0.5846434235572815,-0.24589870870113373,-0.11549729853868484,0.5058780908584595,0.7581300735473633,-0.4114924371242523,0.03387099504470825,0.05050945281982422,0.10184586048126221,0.7152660677208111,-0.5420940959180255,0.019691784652776916,0.44061389345842344
1728064583905767700,2.435767578125,-0.7740095853805542,-0.2653096616268158,-0.13827237486839294,0.5038756132125854,0.7615799307823181,-0.40756043791770935,0.008087217807769775,0.020371973514556885,0.10604673624038696,0.7136869770810911,-0.5439981508279793,0.01690562722056991,0.44094357351630686
1728064583915798800,2.445798828125,-0.8562149405479431,-0.2512625753879547,-0.15264253318309784,0.5017140507698059,0.7656482458114624,-0.4025740623474121,-0.008641600608825684,0.012931466102600098,0.1461501121520996,0.7117941011477771,-0.5463725803728116,0.013782866209891421,0.4411760025967873
1728064583925828600,2.45582861328125,-0.822721540927887,-0.20818832516670227,-0.11071345955133438,0.4997759163379669,0.7697249054908752,-0.397174596786499,-0.020833075046539307,0.038334786891937256,0.13284659385681152,0.7097559078998027,-0.5489061958686028,0.010709030266178456,0.4413999435766966
1728064583935859700,2.465859619140625,-0.6315140724182129,-0.16568906605243683,-0.10770329087972641,0.4982787072658539,0.7731077075004578,-0.39245766401290894,-0.033953726291656494,0.06546968221664429,0.09730684757232666,0.7079811079563549,-0.551093763907502,0.008175482239401741,0.44157869208064404
1728064583945889800,2.475889892578125,-0.3818061649799347,-0.1347505897283554,-0.11103890091180801,0.496843159198761,0.7756717205047607,-0.3892047107219696,-0.037629932165145874,0.07367825508117676,0.04014468193054199,0.7068112184676842,-0.5525930293505547,0.006211588262658029,0.44161100239975076
1728064583955920600,2.485920654296875,-0.027107737958431244,-0.1008131355047226,-0.08396121114492416,0.49570393562316895,0.7770818471908569,-0.3878421187400818,-0.046180009841918945,0.11348211765289307,-0.005559980869293213,0.7063593226854888,-0.5532209240759935,0.005054402234114129,0.44156272831555005
1728064583965950700,2.49595068359375,0.48442599177360535,-0.005980472080409527,0.004944428335875273,0.4951202869415283,0.776386559009552,-0.3899741768836975,-0.05162361264228821,0.1461140513420105,0.02539592981338501,0.7071254524551548,-0.5522547418604552,0.005254554235402529,0.4415435398747023
1728064583975981800,2.50598193359375,0.7067142128944397,-0.009266014210879803,0.27130019664764404,0.49615421891212463,0.7732992768287659,-0.3947646915912628,-0.07853645086288452,0.12974631786346436,-0.01333165168762207,0.7085408809598318,-0.5500624636485376,0.006995894696684678,0.4419865895732544
1728064583986011600,2.51601171875,0.5923225283622742,-0.015285929664969444,0.36246633529663086,0.49874770641326904,0.7688839435577393,-0.4000852406024933,-0.06169024109840393,-0.006676912307739258,-0.06335467100143433,0.7096377775317667,-0.5476032980574909,0.00938108015228031,0.4432345310915687
1728064583996042800,2.526042724609375,0.054469745606184006,0.05243053287267685,0.10252983868122101,0.5007429718971252,0.7662744522094727,-0.4025915563106537,0.0075424909591674805,-0.25977420806884766,-0.1192132830619812,0.7100172883900792,-0.5464298187689667,0.010894018751298683,0.44403974419363235
1728064584006072800,2.53607275390625,-0.5399008393287659,-0.006416538264602423,-0.13267281651496887,0.5006725192070007,0.7674223184585571,-0.40048715472221375,-0.022828340530395508,-0.40694868564605713,0.030720949172973633,0.7093971289087451,-0.5474014583926525,0.010395158573104465,0.44384605380141756
1728064584016103700,2.546103759765625,-0.885528564453125,-0.1929885447025299,-0.06281384825706482,0.4993988573551178,0.7709458470344543,-0.3952762484550476,-0.051660239696502686,-0.3477586507797241,0.2807285189628601,0.7076292227903046,-0.5498148254734108,0.008095205347139693,0.4437330863582093
1728064584026133800,2.5561337890625,-0.995995044708252,-0.1901928186416626,0.07231681048870087,0.49865612387657166,0.7747198939323425,-0.3887816369533539,0.008637547492980957,-0.19822758436203003,0.3318205773830414,0.704942612367614,-0.5527944662673057,0.005240111280731518,0.4443497450713547
1728064584036164900,2.566164794921875,-0.6145829558372498,-0.05546136572957039,0.15392965078353882,0.4991205632686615,0.7773399353027344,-0.38291147351264954,0.04252064228057861,-0.037563323974609375,0.20394116640090942,0.7023481177911259,-0.5554579908587748,0.003268336099165304,0.44515475918799113
1728064584046194700,2.576194580078125,0.04258053004741669,0.11946138739585876,0.08077527582645416,0.5002546310424805,0.7777953743934631,-0.3804990351200104,-0.01331627368927002,0.04276120662689209,0.033315807580947876,0.7012612262895013,-0.5565436402496217,0.0031082963086103165,0.4455133012814332
1728064584056225800,2.586225830078125,0.41824257373809814,0.2866000533103943,-0.06522427499294281,0.5010871887207031,0.7767683267593384,-0.38150063157081604,-0.06888192892074585,0.021831035614013672,-0.11581385135650635,0.7019648180486107,-0.5560846410074777,0.0044221088206244045,0.44496720769155257
1728064584066255600,2.596255615234375,0.42187950015068054,0.4234345257282257,-0.09849327802658081,0.5017765760421753,0.7755734324455261,-0.3830224275588989,-0.09261220693588257,0.03929167985916138,-0.07547366619110107,0.7033638461121304,-0.5553805644256491,0.0064197929621885,0.4436108633448303
1728064584076286700,2.60628662109375,0.3594680726528168,0.38120850920677185,0.006207299884408712,0.5029972791671753,0.7743175625801086,-0.3839609920978546,-0.04183089733123779,0.09480780363082886,0.006748497486114502,0.7045401084039601,-0.5549281696939717,0.008615478081320443,0.44227107024280504
1728064584086316500,2.616316650390625,0.2563006281852722,0.22207027673721313,0.07340683788061142,0.5045813322067261,0.7728385329246521,-0.3848612904548645,0.06609731912612915,0.08610916137695312,0.01659044623374939,0.7052997269893396,-0.5544888653949852,0.010556871828692579,0.44156865319444777
1728064584096347600,2.62634765625,0.03666011989116669,0.07022535055875778,0.033366747200489044,0.5055703520774841,0.772005558013916,-0.3852351903915405,0.15724092721939087,0.019544124603271484,-0.07312357425689697,0.7055394013891363,-0.5543013789038513,0.011505913081352924,0.4413975936737091
1728064584106377700,2.636377685546875,-0.0763227567076683,0.14333651959896088,-0.003332675900310278,0.5060783624649048,0.7720388770103455,-0.3845007121562958,0.17035901546478271,-0.013219296932220459,-0.1337640881538391,0.7054344896901793,-0.5546250776988095,0.011860424076909456,0.4411492099371799
1728064584116408600,2.64640869140625,-0.10236340761184692,0.21756894886493683,0.026636941358447075,0.5068599581718445,0.7723374366760254,-0.3828679323196411,0.14165383577346802,-0.04522562026977539,-0.2064417600631714,0.7051397537804535,-0.5553504844198691,0.012323697223869539,0.4406947638115298
1728064584126438700,2.656438720703125,-0.13262337446212769,0.24045705795288086,0.04622289165854454,0.508087694644928,0.7725864052772522,-0.3807324171066284,0.11265510320663452,-0.09398233890533447,-0.14723694324493408,0.7047128097160967,-0.5562949176054572,0.013029046537537428,0.44016600779066894
1728064584136469500,2.666469482421875,-0.12119655311107635,0.16974401473999023,0.08691812306642532,0.5093710422515869,0.7727769613265991,-0.3786252439022064,0.10821318626403809,-0.09263169765472412,-0.05998867750167847,0.7041734499079322,-0.5572266609120812,0.013631858431726636,0.4398323831141074
1728064584146499600,2.67649951171875,0.11379199475049973,0.09795428812503815,0.13615411520004272,0.510782778263092,0.7722294926643372,-0.3778395652770996,0.11432409286499023,-0.06370276212692261,-0.044951021671295166,0.7038714809710053,-0.5575596534371203,0.014403374674741828,0.43986907910187345
1728064584156530700,2.68653076171875,0.3764481246471405,0.1205056682229042,0.17362426221370697,0.5123763680458069,0.7704821825027466,-0.37924644351005554,0.09702914953231812,-0.06186401844024658,-0.019740402698516846,0.7042094631284512,-0.5568922952386481,0.01574029085150278,0.44012768645719225
1728064584166560800,2.696560791015625,0.5945558547973633,0.23561005294322968,0.1631939858198166,0.5144460201263428,0.7676889896392822,-0.3820980489253998,0.029896020889282227,-0.03715920448303223,0.026202082633972168,0.705170074013181,-0.5555432146902275,0.01796405801710729,0.4402092833354588
1728064584176591600,2.706591552734375,0.6290371417999268,0.30058422684669495,0.05361396074295044,0.5163879990577698,0.764647364616394,-0.3855617344379425,-0.02299511432647705,-0.005171716213226318,0.03546404838562012,0.706654959194548,-0.5538884988567988,0.020655903420295,0.4397950326190815
1728064584186621700,2.71662158203125,0.2741983234882355,0.17848898470401764,-0.0451648123562336,0.5173630714416504,0.7628399133682251,-0.3878282308578491,-0.041365206241607666,0.020363152027130127,0.06600511074066162,0.7079232215081563,-0.5527894167904541,0.02257751141128571,0.4390431318133453
1728064584196652500,2.726652587890625,-0.0046106851659715176,0.013271786272525787,0.00964410975575447,0.517560601234436,0.7625293731689453,-0.3881753981113434,-0.01302868127822876,0.07769596576690674,0.073356032371521,0.7082706390158838,-0.5526108114177533,0.023099535918458394,0.43868047496911516
1728064584206682600,2.7366826171875,0.07949274033308029,-0.1337650716304779,0.08652716875076294,0.5177163481712341,0.7621749639511108,-0.38866302371025085,0.047087669372558594,0.07087856531143188,-0.04499170184135437,0.7082044512805793,-0.5523923466879097,0.023047275686340938,0.4390646976212316
1728064584216712700,2.746712646484375,0.32446733117103577,-0.09529916942119598,0.09589803218841553,0.5179617404937744,0.7609227895736694,-0.3907841742038727,0.046216726303100586,-0.031461119651794434,-0.09731400012969971,0.7085370891922403,-0.5514213685057513,0.023289232706601097,0.4397355411189558
1728064584226743800,2.756743896484375,0.6258935332298279,0.010143370367586613,0.03099147416651249,0.5183605551719666,0.758600652217865,-0.39474987983703613,-0.028583943843841553,-0.08745795488357544,-0.05990105867385864,0.7097461095133706,-0.5495704565071331,0.02444133358670596,0.44004028222500513
1728064584236773600,2.766773681640625,0.6050604581832886,0.24279658496379852,-0.022348977625370026,0.5188797116279602,0.7561342120170593,-0.39877942204475403,-0.10220789909362793,-0.06338512897491455,-0.00992727279663086,0.7114088220879241,-0.5476510717476601,0.02624094319353233,0.4396445395188754
1728064584246804700,2.7768046875,0.7150957584381104,0.3476269841194153,0.007370035629719496,0.5200653076171875,0.7535693645477295,-0.40207645297050476,-0.13165283203125,0.03608828783035278,-0.03656792640686035,0.7131675019151698,-0.5460169691594876,0.02876174550055947,0.4386689668025446
1728064584256834800,2.786834716796875,0.7714831233024597,0.3106710910797119,0.08048392832279205,0.5217529535293579,0.75025475025177,-0.40606868267059326,-0.11576235294342041,0.06911182403564453,0.022111713886260986,0.7150885707715473,-0.5440205389957136,0.031738193697647056,0.43781593548523173
1728064584266865700,2.79686572265625,0.64426189661026,0.2685684859752655,0.07903916388750076,0.5236013531684875,0.7468732595443726,-0.4099046289920807,-0.06530362367630005,0.017592012882232666,0.11244982481002808,0.7167903576859618,-0.5420807323951516,0.03458557941631419,0.43722281089193843
1728064584276895700,2.806895751953125,0.4291745722293854,0.22278952598571777,0.04079030826687813,0.5250797271728516,0.7443268895149231,-0.4126364290714264,0.0015316009521484375,-0.028186142444610596,0.06946629285812378,0.7180906180183717,-0.5406703969537706,0.03684155394472487,0.43665102547845
1728064584286926800,2.8169267578125,0.24862311780452728,0.05115050822496414,0.019763056188821793,0.5259565711021423,0.7427540421485901,-0.4143502712249756,0.050550997257232666,-0.06408882141113281,0.048200368881225586,0.7188848592950005,-0.5397833567408651,0.03819416216196145,0.43632517955506156
1728064584296956700,2.826956787109375,0.21577276289463043,-0.03978578746318817,-0.058999400585889816,0.5258153080940247,0.74190753698349,-0.4160425066947937,0.11526739597320557,-0.11104816198348999,0.024578332901000977,0.7195368908830192,-0.538967618909502,0.038634933754838466,0.4362198698209455
1728064584306987800,2.83698779296875,0.22368673980236053,-0.11034709215164185,0.01691373996436596,0.5252920985221863,0.7411630749702454,-0.4180258512496948,0.13147670030593872,-0.08625584840774536,0.022014498710632324,0.720199236617676,-0.5380373674529877,0.03876683625741786,0.43626373846797184
1728064584317017900,2.847017822265625,0.4078768193721771,-0.14536233246326447,0.13701565563678741,0.5253775715827942,0.7394539713859558,-0.4209350645542145,0.11855852603912354,0.04437476396560669,0.023703038692474365,0.7208458024368035,-0.5366536654474428,0.039182955927774404,0.4368626171684438
1728064584327048700,2.857048583984375,0.5992107391357422,-0.14174708724021912,0.0929001122713089,0.5257065296173096,0.7365826368331909,-0.4255334436893463,0.12891077995300293,0.08002197742462158,-0.11857974529266357,0.7219821023364206,-0.5344368026984692,0.0401321157842163,0.4376169177339128
1728064584337078500,2.86707861328125,0.5487707257270813,-0.07835187762975693,-0.036248281598091125,0.5253773927688599,0.733940601348877,-0.4304763376712799,0.05004680156707764,0.019660532474517822,-0.05432593822479248,0.7235196768808284,-0.5320492141850492,0.04105438146912956,0.43790131560687295
1728064584347110000,2.87710986328125,0.5117383599281311,0.0018120435997843742,-0.03488767147064209,0.5249648094177246,0.7318738698959351,-0.4344797432422638,-0.054978787899017334,-0.03111398220062256,0.01446622610092163,0.7249962757549696,-0.5300920365521439,0.04198293920647622,0.4377446036050592
1728064584357139700,2.8871396484375,0.49647313356399536,0.08241607248783112,-0.05365763232111931,0.5248215794563293,0.729824960231781,-0.4380842447280884,-0.09049546718597412,-0.106533944606781,0.09753859043121338,0.726457213469753,-0.5282955719143263,0.043146949528345996,0.4373808874241395
1728064584367170600,2.897170654296875,0.17303040623664856,0.1544474959373474,-0.1503482162952423,0.5247172117233276,0.7287132143974304,-0.44005537033081055,-0.06693840026855469,-0.1914513111114502,0.13750413060188293,0.7275804136408837,-0.5272783431414235,0.04415719754209669,0.4366397816044112
1728064584377200600,2.90720068359375,-0.1861725002527237,0.18749599158763885,-0.26487240195274353,0.5238494277000427,0.7300015091896057,-0.43895289301872253,-0.045104920864105225,-0.20424461364746094,0.14834922552108765,0.7279606918170786,-0.5278020515212649,0.0441423910569275,0.43537303507775804
1728064584387231500,2.9172314453125,-0.2879701554775238,-0.045520320534706116,-0.12320422381162643,0.5228703022003174,0.7320026159286499,-0.4367823004722595,-0.013943970203399658,-0.1717609167098999,0.2001337707042694,0.7277521214113785,-0.528883339315903,0.043488598547871835,0.4344743066333286
1728064584397261600,2.927261474609375,-0.5332025289535522,-0.12058284133672714,-0.18986234068870544,0.5212810039520264,0.7346559166908264,-0.43421992659568787,0.07289630174636841,-0.18144845962524414,0.13510185480117798,0.7269519634279626,-0.5302341840355443,0.04173420600519718,0.43433964774379047
1728064584407292700,2.937292724609375,-0.5584232807159424,-0.059685882180929184,-0.1594144105911255,0.5195916891098022,0.7378851771354675,-0.43075495958328247,0.10287535190582275,-0.1483771800994873,0.10703974962234497,0.7259682549772102,-0.5320121425254976,0.03981962451552104,0.43399020498489754
1728064584417322800,2.94732275390625,-0.5984016060829163,-0.013510134071111679,-0.17542479932308197,0.5182744264602661,0.7413143515586853,-0.42643240094184875,0.05644780397415161,-0.0517849326133728,0.011408567428588867,0.7246878673288977,-0.5341760973631445,0.03794336385931819,0.43364001040442457
1728064584427353600,2.957353515625,-0.5063750743865967,-0.03137983754277229,-0.18937736749649048,0.5167790055274963,0.7445606589317322,-0.422573983669281,0.09001719951629639,0.03314924240112305,-0.082430899143219,0.7236725177140906,-0.5360991969789024,0.036202997057545754,0.43311089592668617
1728064584437383700,2.9673837890625,-0.6311017870903015,-0.04237283393740654,-0.1919822096824646,0.5152631402015686,0.7478885650634766,-0.4185289442539215,0.07050645351409912,0.03711509704589844,-0.04449903964996338,0.7225525600073832,-0.5381033690022983,0.03435537118283206,0.4326455313593865
1728064584447414500,2.97741455078125,-0.927832841873169,0.001552332192659378,-0.20006251335144043,0.5136260390281677,0.7521171569824219,-0.41292625665664673,0.09121710062026978,0.016376495361328125,0.02175194025039673,0.7209320413750067,-0.5408413384218662,0.03205489402678079,0.4321112302056826
1728064584457444600,2.987444580078125,-1.099170446395874,0.019124401733279228,-0.0921243280172348,0.5126078128814697,0.7571399807929993,-0.40493491291999817,0.07828879356384277,-0.004607021808624268,0.13764667510986328,0.7184135764520483,-0.5446681024340542,0.029482305489083593,0.4316820055901986
1728064584467475700,2.997475830078125,-0.962498128414154,-0.14788034558296204,-0.007552188355475664,0.5120671987533569,0.7615199685096741,-0.3973340392112732,0.10199218988418579,-0.024276435375213623,0.22265148162841797,0.7156679193472755,-0.5482776170620478,0.026918969674516187,0.4318406384760983
1728064584477505800,3.007505859375,-0.80785071849823,-0.20138485729694366,-0.06958839297294617,0.5110751390457153,0.7651857733726501,-0.39152631163597107,0.1366603970527649,-0.06644004583358765,0.11001694202423096,0.7133153411919742,-0.551044322626458,0.024228015670991514,0.4323705896412541
1728064584487536600,3.01753662109375,-0.5044478178024292,-0.16164159774780273,-0.12334217131137848,0.5096968412399292,0.7683190107345581,-0.38716253638267517,0.08663177490234375,-0.02576535940170288,-0.14982476830482483,0.7116706612611979,-0.5531172055816781,0.021910998001251687,0.4325575337811448
1728064584497566700,3.027566650390625,0.20684149861335754,-0.2860618233680725,-0.11771118640899658,0.5078056454658508,0.7694702744483948,-0.3873615264892578,0.0055304765701293945,0.06315606832504272,-0.2586955726146698,0.711583993803099,-0.5530849042375966,0.020404167802326362,0.4328151578336399
1728064584507597600,3.03759765625,0.7609659433364868,-0.01890420727431774,0.0003534057177603245,0.5067358016967773,0.7678311467170715,-0.39198753237724304,-0.01537233591079712,0.1458498239517212,-0.5330613255500793,0.7131358085021099,-0.550975172702136,0.02079891554796425,0.43293321253362876
1728064584517627600,3.047627685546875,1.0310572385787964,0.27392712235450745,0.08324749022722244,0.5075637102127075,0.7640783786773682,-0.39820024371147156,-0.00022423267364501953,0.2669122815132141,-0.5265281796455383,0.7154470235256856,-0.5480503390032597,0.023253143336232778,0.43270744088744806
1728064584527658800,3.05765869140625,1.308498501777649,0.4811045527458191,-0.026670487597584724,0.5095570683479309,0.7589112520217896,-0.40546920895576477,0.034769654273986816,0.2907560467720032,-0.34981033205986023,0.7186284298937545,-0.5445279710968735,0.027471545354102577,0.43163384855734294
1728064584537688800,3.067688720703125,1.035340666770935,0.5809525847434998,-0.21341906487941742,0.5107100009918213,0.7548068761825562,-0.411633163690567,0.02902388572692871,0.09381073713302612,-0.25996720790863037,0.7220175852645268,-0.5414691041609958,0.03153761979682216,0.4295430484355494
1728064584547718700,3.07771875,0.775673508644104,0.5604225993156433,-0.0976775586605072,0.5119357109069824,0.7517528533935547,-0.4156797230243683,-0.04152250289916992,-0.1269512176513672,0.1646420955657959,0.7247801292171939,-0.539369627272483,0.0352213830344704,0.4272396345831462
1728064584557749800,3.087749755859375,0.44751858711242676,0.4879356026649475,-0.06172487884759903,0.513653039932251,0.7496224045753479,-0.41740480065345764,0.019717872142791748,-0.1696663498878479,0.19671696424484253,0.7264235878626774,-0.5383636283150721,0.038238722776625614,0.4254541160839398
1728064584567779800,3.09777978515625,0.3413580358028412,0.25795015692710876,-0.13208027184009552,0.5145655870437622,0.7484570145606995,-0.41837120056152344,0.11579030752182007,-0.08593565225601196,0.32289689779281616,0.7276001657927118,-0.5377702496110771,0.04021896341292487,0.4240090743468115
1728064584577810700,3.107810791015625,0.2876644432544708,-0.0027187387458980083,-0.16552157700061798,0.5139630436897278,0.7479766011238098,-0.4199678301811218,0.14224112033843994,-0.019491493701934814,0.3628541827201843,0.7287072354736666,-0.5369748703719274,0.04091538215468197,0.4230480953677661
1728064584587840800,3.1178408203125,0.36889684200286865,-0.19143246114253998,-0.13076066970825195,0.5123831629753113,0.7473432421684265,-0.42301487922668457,0.15622639656066895,0.018480122089385986,0.22300267219543457,0.7299406702310097,-0.5355614770652931,0.04082228635000256,0.4227222250174012
1728064584597871900,3.127871826171875,0.4218982756137848,-0.11068036407232285,-0.0702589824795723,0.5109447836875916,0.7461637854576111,-0.4268195331096649,0.14203977584838867,0.02922677993774414,0.07978886365890503,0.7312354227742324,-0.5337854252367772,0.04078423917579929,0.42273450878763996
1728064584607901400,3.1379013671875,0.501125693321228,0.10329392552375793,-0.06082606315612793,0.5104897022247314,0.7444354295730591,-0.4303673803806305,0.09116429090499878,0.04699218273162842,0.01238340139389038,0.7326191195119527,-0.5320572469918757,0.04160996589245611,0.42243688384272665
1728064584617932300,3.147932373046875,0.3631826937198639,0.23153285682201385,-0.04689107462763786,0.5108751058578491,0.7427811026573181,-0.43276187777519226,0.041035234928131104,0.044129908084869385,0.04553961753845215,0.7338891994251093,-0.5308131363327641,0.043086802121385576,0.4216486242991274
1728064584627962400,3.15796240234375,0.07956717163324356,0.04692593961954117,0.00152945751324296,0.5114119648933411,0.7418964505195618,-0.43364453315734863,0.026246726512908936,0.06549191474914551,0.14185070991516113,0.7344947271325786,-0.5303151313078193,0.044086181720518584,0.4211173601309214
1728064584637993200,3.1679931640625,-0.10498403012752533,-0.2103777527809143,0.03593829646706581,0.5112312436103821,0.7419089674949646,-0.43383607268333435,0.058104634284973145,0.0867043137550354,0.18661314249038696,0.7343775783781252,-0.5302503875886238,0.0437778202694782,0.4214351961132538
1728064584648023300,3.178023193359375,-0.20474004745483398,-0.3294287919998169,0.03999801725149155,0.5103096961975098,0.7423743009567261,-0.4341248869895935,0.06979894638061523,0.06583791971206665,0.127102792263031,0.7339393252303756,-0.5302164832935558,0.0425210357237874,0.4223689452344662
1728064584658054400,3.188054443359375,-0.24163813889026642,-0.23412197828292847,0.060796238481998444,0.5094106793403625,0.7431344389915466,-0.4338802099227905,0.021183133125305176,0.03289705514907837,0.017528891563415527,0.733272030449015,-0.5304452341619974,0.04108213320959947,0.4233819996024489
1728064584668084500,3.19808447265625,-0.1530580222606659,-0.06530015170574188,0.09606421738862991,0.5093955397605896,0.7435740232467651,-0.43314430117607117,-0.048686981201171875,0.02267664670944214,-0.05640345811843872,0.7325964830271707,-0.5308485356497934,0.04034452471771111,0.42411630518493765
1728064584678115300,3.208115234375,-0.10093968361616135,0.07867725938558578,0.13129837810993195,0.5103286504745483,0.7435231804847717,-0.4321320354938507,-0.09571683406829834,0.008674144744873047,-0.12136536836624146,0.7320053255187161,-0.5313181902741838,0.040434724550101706,0.4245401271083722
1728064584688145400,3.2181455078125,-0.006652730517089367,0.09645146876573563,0.12933003902435303,0.5117583274841309,0.7430599927902222,-0.4312368333339691,-0.10744625329971313,0.016995489597320557,-0.14452305436134338,0.7315476380476645,-0.5316936947418969,0.04102923530813211,0.4248015903203532
1728064584698176300,3.22817626953125,0.09305841475725174,0.09123992919921875,0.08240246772766113,0.5129857659339905,0.7422851324081421,-0.43111294507980347,-0.08746391534805298,0.02460634708404541,-0.14199191331863403,0.7314260976918499,-0.5316938019292478,0.04177591331028652,0.4249379524827131
1728064584708206300,3.238206298828125,0.1330818086862564,0.041755303740501404,0.05236200988292694,0.5137971043586731,0.7414738535881042,-0.4315425455570221,-0.08279740810394287,0.04035592079162598,-0.10349160432815552,0.7315535715832898,-0.5314385770009847,0.042447224517908645,0.4249712720515811
1728064584718237400,3.248237548828125,0.21826647222042084,0.010786203667521477,0.08798791468143463,0.514397919178009,0.7403687238693237,-0.43272271752357483,-0.09658181667327881,0.05964958667755127,-0.015153229236602783,0.7318703547710472,-0.5308318312802406,0.04308364949278174,0.4251201626479575
1728064584728267500,3.258267578125,0.24727961421012878,0.023264551535248756,0.16893550753593445,0.5154507160186768,0.7386545538902283,-0.4343962073326111,-0.10854458808898926,0.02813011407852173,0.03302896022796631,0.7322246034515525,-0.5299667283530234,0.04401325954020914,0.42549421161110756
1728064584738298400,3.26829833984375,0.20921292901039124,-0.003876522183418274,0.22573299705982208,0.5170179009437561,0.7366138696670532,-0.43599608540534973,-0.1083112359046936,-0.0023609399795532227,0.023612022399902344,0.7323903452298767,-0.5291206531436949,0.04509209119764404,0.42614841503123047
1728064584748328400,3.278328369140625,0.18303371965885162,-0.021059557795524597,0.19596952199935913,0.5185423493385315,0.7346103191375732,-0.4375631809234619,-0.11369621753692627,-0.016241788864135742,-0.008191823959350586,0.7324523917220018,-0.5282996065385642,0.046021033121293436,0.4269603212539691
1728064584758359600,3.288359619140625,0.0978168174624443,0.07358518987894058,0.1757262945175171,0.5200160145759583,0.7330302000045776,-0.4384632706642151,-0.12490499019622803,-0.03176677227020264,-0.04351609945297241,0.7324298781435165,-0.5277947602849865,0.046915439696901436,0.4275255517701776
1728064584768389400,3.298389404296875,0.037117719650268555,0.05592918023467064,0.20929624140262604,0.5217725038528442,0.7317208647727966,-0.4385634660720825,-0.1277753710746765,0.004179954528808594,0.022273212671279907,0.7321699685520369,-0.5276638029521261,0.04784528245630342,0.4280289359285473
1728064584778420500,3.30842041015625,-0.048375342041254044,-0.08165398240089417,0.24558500945568085,0.5228556394577026,0.7306087613105774,-0.43912723660469055,-0.07821458578109741,0.05119055509567261,0.13564521074295044,0.7318757805500016,-0.5273662271912367,0.04817926228938086,0.4288605753142291
1728064584788450300,3.3184501953125,-0.037141863256692886,-0.27423951029777527,0.26816725730895996,0.5233955383300781,0.7296114563941956,-0.4401412308216095,-0.028583526611328125,0.07623571157455444,0.09515523910522461,0.7314127206958131,-0.5269153475610145,0.04784976802450105,0.4302395887486871
1728064584798481200,3.328481201171875,-0.05839015915989876,-0.3480903208255768,0.2646995484828949,0.5231525897979736,0.7288961410522461,-0.44161272048950195,-0.023946106433868408,0.0712442398071289,0.03151750564575195,0.7309526915589405,-0.5263023912330272,0.046898184175395215,0.4318733064334904
1728064584808511200,3.33851123046875,-0.11298422515392303,-0.23177960515022278,0.2557891607284546,0.5228396058082581,0.7286233901977539,-0.44243258237838745,-0.05106842517852783,0.024199485778808594,-0.04561978578567505,0.7303534461349828,-0.5260072269445316,0.04582688285297506,0.4333590443122452
1728064584818542300,3.348542236328125,-0.19334031641483307,-0.037605348974466324,0.29274532198905945,0.5243006944656372,0.7278426289558411,-0.4419885277748108,-0.09616965055465698,-0.00524747371673584,-0.06252807378768921,0.7293695930269619,-0.5262247598555786,0.04575194516677107,0.43475772622461506
1728064584828572200,3.358572265625,-0.24683603644371033,0.05218685418367386,0.24502067267894745,0.5256056785583496,0.7277624607086182,-0.44056832790374756,-0.10496670007705688,-0.02825385332107544,-0.07417163252830505,0.7283598760487828,-0.5269060287256332,0.045671436276923584,0.43563287260204614
1728064584838603300,3.368603271484375,-0.2715784013271332,0.037366095930337906,0.08546989411115646,0.5270984768867493,0.7279654741287231,-0.43844425678253174,-0.07496535778045654,-0.07208174467086792,-0.058748096227645874,0.7272978246870418,-0.5279049151993049,0.045763197908142525,0.4361879532540757
1728064584848633300,3.37863330078125,-0.31357237696647644,-0.056423407047986984,-0.021700764074921608,0.527283787727356,0.7291392683982849,-0.43626558780670166,-0.04033011198043823,-0.08706474304199219,-0.021192878484725952,0.7264525324006064,-0.5289859333874268,0.04517848423402841,0.4363478271531288
1728064584858664200,3.388664306640625,-0.2840970456600189,-0.1719212383031845,0.013023395091295242,0.5267631411552429,0.7304961085319519,-0.4346214830875397,0.005112349987030029,-0.03492426872253418,0.03557363152503967,0.7256658620169129,-0.5298550367827652,0.04407833034126146,0.4367146260028535
1728064584868694300,3.3986943359375,-0.1919299066066742,-0.2194886952638626,-0.017271660268306732,0.5259498953819275,0.7315124869346619,-0.43389666080474854,0.07050091028213501,0.0008483529090881348,-0.016603827476501465,0.7250448335773654,-0.5302986376545665,0.04283724486190524,0.4373309698305996
1728064584878724400,3.408724365234375,-0.18231429159641266,-0.07701438665390015,-0.10591205209493637,0.5248264074325562,0.7325913310050964,-0.4334365427494049,0.06616169214248657,-0.03410494327545166,-0.09706580638885498,0.7247362870641458,-0.5306050250852662,0.041713727965415295,0.437579282278247
1728064584888755200,3.418755126953125,-0.2852560579776764,0.09965641796588898,-0.1299324333667755,0.5240224599838257,0.7342308163642883,-0.4316314458847046,-0.004628539085388184,-0.07019883394241333,-0.12105715274810791,0.7243760562369007,-0.5315142713143284,0.0409493982895336,0.43714433299002997
1728064584898785300,3.428785400390625,-0.28039073944091797,0.20291836559772491,-0.14151877164840698,0.5237083435058594,0.7361794710159302,-0.4286835491657257,-0.0377921462059021,-0.0793800950050354,-0.10027766227722168,0.7238589886648379,-0.5329321019126639,0.040516607005102,0.4363142063063098
1728064584908816400,3.43881640625,-0.27611130475997925,0.24701285362243652,-0.12742212414741516,0.5237354636192322,0.7380438446998596,-0.4254319667816162,-0.015297412872314453,-0.0861426591873169,-0.1006757915019989,0.7233754887093166,-0.5344622073126721,0.040424779492438355,0.4352514074641122
1728064584918846500,3.448846435546875,-0.2587629556655884,0.20188719034194946,-0.1459806263446808,0.5237627625465393,0.7398659586906433,-0.4222213327884674,0.017664790153503418,-0.056928396224975586,-0.08173063397407532,0.7228828895943965,-0.5359694178119152,0.040325084856960264,0.43422450602882384
1728064584928877300,3.458877197265625,-0.24877528846263885,0.09545055031776428,-0.15602421760559082,0.5233033299446106,0.7417367100715637,-0.41949984431266785,0.07918989658355713,-0.01721900701522827,-0.08170560002326965,0.7224946091696158,-0.5372665138949655,0.03993463555090071,0.43330283818626025
1728064584938907400,3.468907470703125,-0.23547972738742828,-0.11756984889507294,-0.1580258458852768,0.5221555829048157,0.7435396909713745,-0.41773468255996704,0.11486834287643433,-0.009179949760437012,-0.07854217290878296,0.7221757248845054,-0.5381567861622404,0.03898640233645974,0.43281576981139497
1728064584948938500,3.4789384765625,-0.288745254278183,-0.31254205107688904,-0.2142246663570404,0.5198619365692139,0.7455814480781555,-0.4169553816318512,0.13124573230743408,-0.04004561901092529,-0.028647035360336304,0.7219142081453526,-0.5386501055210384,0.03712653263606702,0.4328019328297115
1728064584958968300,3.48896826171875,-0.2981241047382355,-0.3040284514427185,-0.21059930324554443,0.516918420791626,0.7479778528213501,-0.4163224995136261,0.09018296003341675,-0.0687328577041626,-0.029371440410614014,0.7216114639954565,-0.5391037194210747,0.034726419884387016,0.4329412502402354
1728064584968999400,3.49899951171875,-0.1867038607597351,-0.13651271164417267,-0.12959712743759155,0.51470947265625,0.7498287558555603,-0.41572946310043335,0.001861572265625,-0.0843014121055603,0.0029944777488708496,0.7213753423152504,-0.5394909404302828,0.032936097159627,0.4329923240926257
1728064584979029500,3.509029541015625,-0.242991104722023,0.12473621219396591,-0.07064700126647949,0.5139689445495605,0.7511991858482361,-0.4141687750816345,-0.06008106470108032,-0.11165755987167358,0.07853645086288452,0.7210190549234348,-0.5402575166863817,0.032209098987654394,0.4326845997303976
1728064584989060400,3.519060302734375,-0.21228764951229095,0.2393438071012497,0.017299098894000053,0.5146244764328003,0.7523161172866821,-0.411317378282547,-0.07080745697021484,-0.0754362940788269,0.126313716173172,0.720385764558544,-0.541566862844984,0.03235197041737012,0.43209133481138456
1728064584999090400,3.52909033203125,-0.1780441850423813,0.08523066341876984,0.023857934400439262,0.515591561794281,0.7529107332229614,-0.40901175141334534,-0.024212896823883057,-0.009914577007293701,0.13618460297584534,0.7197821174570876,-0.5426110055827658,0.03267147399953056,0.43176316738813125
1728064585009121500,3.53912158203125,-0.21843448281288147,-0.07185450941324234,-0.024077368900179863,0.5155919790267944,0.7537637948989868,-0.4074370563030243,0.04594665765762329,0.005162537097930908,0.12238764762878418,0.7192270026072298,-0.5433620391205493,0.032235998182753266,0.4317765571076835
1728064585019151400,3.5491513671875,-0.0942869782447815,-0.23011285066604614,-0.05687260255217552,0.5147143006324768,0.7545774579048157,-0.4070402979850769,0.07345092296600342,0.04701244831085205,0.1089751124382019,0.7189062549582651,-0.5436012021627956,0.031266291238945476,0.4320807643716284
1728064585029182500,3.559182373046875,-0.09657130390405655,-0.24343319237232208,-0.06240052357316017,0.5132348537445068,0.7552571296691895,-0.4076477587223053,0.08521479368209839,0.01935523748397827,0.04116213321685791,0.7188388977451181,-0.5433923131832644,0.030015311020554172,0.43254432938142084
1728064585039212300,3.56921240234375,-0.06963023543357849,-0.184136301279068,0.025423074141144753,0.5122714042663574,0.7557184100151062,-0.4080044627189636,0.0389370322227478,-0.011654078960418701,0.09274262189865112,0.71864139155131,-0.5432824894409005,0.02901569372911073,0.4330782439217311
1728064585049243400,3.579243408203125,-0.15949846804141998,-0.09326504170894623,0.07257140427827835,0.5121375918388367,0.7558338642120361,-0.4079586863517761,0.00418931245803833,-0.023656129837036133,0.08703583478927612,0.7182665269747899,-0.5433330963972217,0.028457009469637733,0.43367332251929913
1728064585059273200,3.589273193359375,-0.3902589678764343,-0.045240793377161026,0.023460056632757187,0.5122949481010437,0.7566598653793335,-0.40622633695602417,0.0018804073333740234,-0.040885329246520996,0.00757521390914917,0.7174172381002782,-0.5441641163819001,0.027789320414566807,0.43408033836035403
1728064585069304300,3.59930419921875,-0.5488109588623047,-0.08742446452379227,0.0577613040804863,0.512349009513855,0.7584206461906433,-0.40286076068878174,-0.0049790143966674805,-0.01344066858291626,0.017499983310699463,0.7160411570499887,-0.5457646872280101,0.02665580911293007,0.434414073677651
1728064585079334100,3.609334228515625,-0.623420238494873,-0.2564696967601776,0.07513044029474258,0.5122311115264893,0.7603963613510132,-0.3992699980735779,0.013113677501678467,-0.005177915096282959,0.03051084280014038,0.7142940762781871,-0.5474864629178554,0.024971446930308366,0.43522282704691223
1728064585089365200,3.619365234375,-0.7133907079696655,-0.383054256439209,0.0016066893003880978,0.5112748146057129,0.7628528475761414,-0.39579474925994873,0.07389962673187256,-0.026372194290161133,0.04183664917945862,0.7123942654582373,-0.5491790384046998,0.022472379529876668,0.4363389779611111
1728064585099395300,3.629395263671875,-0.7598607540130615,-0.4535404145717621,-0.005533512216061354,0.5095543265342712,0.7658383846282959,-0.39223188161849976,0.07650518417358398,-0.0016325116157531738,0.0037431418895721436,0.7103939443455866,-0.5509184307857686,0.019311573423435605,0.4375572160521874
1728064585109426200,3.63942626953125,-0.5978094935417175,-0.4371369779109955,0.042224686592817307,0.5079684257507324,0.7684504985809326,-0.38916823267936707,0.06142854690551758,0.06658673286437988,-0.04997968673706055,0.7084590789890047,-0.5524055703846867,0.01624698832998039,0.43894178356352487
1728064585119456300,3.649456298828125,-0.35804644227027893,-0.3622824251651764,-0.005354015156626701,0.5066195130348206,0.7701359987258911,-0.38759151101112366,0.04545867443084717,0.12398326396942139,-0.11681824922561646,0.7071229946951959,-0.5531836563674156,0.013859479829908145,0.44019630559089623
1728064585129487400,3.6594873046875,-0.21755477786064148,-0.1334397792816162,-0.022715961560606956,0.5054970979690552,0.771355152130127,-0.3866313397884369,-0.021778345108032227,0.12697547674179077,-0.17974433302879333,0.706371596310786,-0.5536549596751177,0.01226826181782939,0.4408568839348176
1728064585139517200,3.66951708984375,-0.10645249485969543,0.06773273646831512,0.06946802884340286,0.5055657625198364,0.7718343734741211,-0.38558387756347656,-0.1090356707572937,0.09344571828842163,-0.12094688415527344,0.7059015380253596,-0.5541357721878454,0.011900022348201532,0.441015823277051
1728064585149548300,3.67954833984375,-0.19869540631771088,0.1756877452135086,0.15598773956298828,0.5069962739944458,0.7717723846435547,-0.3838254511356354,-0.13506340980529785,0.0017565488815307617,0.043295085430145264,0.7052242985909447,-0.5549182837908806,0.012368243338661475,0.4411023611547415
1728064585159578400,3.689578369140625,-0.2982451617717743,0.12180747836828232,0.166243314743042,0.5089309215545654,0.7718876600265503,-0.38102301955223083,-0.10127723217010498,-0.057425498962402344,0.173625648021698,0.704131086025276,-0.556168392972641,0.012853204120411679,0.44126047401413626
1728064585169609200,3.699609130859375,-0.35102587938308716,-0.03353374823927879,0.1420745998620987,0.5103335976600647,0.772317111492157,-0.37826672196388245,-0.05075418949127197,-0.05767184495925903,0.16636794805526733,0.7028697061200044,-0.5574086011735427,0.012739279108614542,0.44170960366383144
1728064585179639300,3.709639404296875,-0.3125336170196533,-0.15760189294815063,0.11768908053636551,0.5110078454017639,0.7729237675666809,-0.3761116564273834,-0.01186227798461914,-0.04169195890426636,0.14312517642974854,0.7016177979087771,-0.5583904522429228,0.012011365885810938,0.44247985638900195
1728064585189670400,3.71967041015625,-0.27807050943374634,-0.17484523355960846,0.036619797348976135,0.511011004447937,0.7735751271247864,-0.3747653365135193,0.025457382202148438,-0.04138225317001343,0.07148167490959167,0.7006409585789236,-0.559013529709482,0.011009648185296214,0.4432660161820172
1728064585199700500,3.729700439453125,-0.2986900508403778,-0.1746140718460083,-0.02236761897802353,0.5104258060455322,0.774617612361908,-0.3734073340892792,0.03431296348571777,-0.05910247564315796,-0.009817123413085938,0.6998237842544867,-0.5596432473423506,0.009785769219526883,0.4437909092213084
1728064585209731300,3.7397314453125,-0.3091503977775574,-0.2065669447183609,-0.01518613938242197,0.5095654129981995,0.7758511304855347,-0.37201881408691406,0.011690020561218262,-0.027956902980804443,0.019113540649414062,0.6990242505751043,-0.5602858084342462,0.008390852740946158,0.44426844254988046
1728064585219761400,3.749761474609375,-0.27461934089660645,-0.2119625061750412,0.01961897872388363,0.5088154077529907,0.776924729347229,-0.37080296874046326,0.006702780723571777,0.01267176866531372,0.004286825656890869,0.698186259139339,-0.5608471659551055,0.006997972459352719,0.4449016130531839
1728064585229791500,3.75979150390625,-0.14310070872306824,-0.1275864839553833,0.028139764443039894,0.508400022983551,0.7775617837905884,-0.3700365722179413,-0.0084458589553833,0.04114854335784912,-0.030674517154693604,0.6975318447054275,-0.5612002187384123,0.006002570070844278,0.44549702654800255
1728064585239822300,3.769822265625,-0.05978026241064072,0.026095492765307426,0.00897299312055111,0.5084040760993958,0.7777840495109558,-0.3695638179779053,-0.03561055660247803,0.030062079429626465,-0.07901406288146973,0.6972136149698995,-0.5614140864404167,0.005683996025494114,0.4457299795203759
1728064585249852400,3.779852294921875,-0.0722140297293663,0.11649281531572342,0.0069596427492797375,0.5087865591049194,0.7779778242111206,-0.3686281740665436,-0.05573791265487671,0.010214924812316895,-0.07106912136077881,0.6970063422403278,-0.5618288155263189,0.005856740529864092,0.4455291388197175
1728064585259883500,3.789883544921875,-0.05738288536667824,0.044018883258104324,0.04274080693721771,0.5093569755554199,0.7780718207359314,-0.3676406741142273,-0.0428958535194397,0.003666400909423828,-0.03656461834907532,0.6967560220624357,-0.5622652486355356,0.006120329779997764,0.44536649487356406
1728064585269913300,3.799913330078125,-0.042145874351263046,-0.07975312322378159,0.02292635850608349,0.5095926523208618,0.7780531644821167,-0.367353618144989,0.009618222713470459,-0.033546268939971924,-0.036088794469833374,0.6965124590019034,-0.5623938200340125,0.006031845733714955,0.4455864411268754
1728064585279944400,3.8099443359375,-0.04144546389579773,-0.11973542720079422,-0.054184939712285995,0.5091190934181213,0.7782639265060425,-0.3675636053085327,0.05487620830535889,-0.08807843923568726,-0.0524803102016449,0.6964349166429366,-0.5623053724466848,0.005556272224076105,0.44582530906371576
1728064585289974500,3.819974609375,-0.04523114860057831,-0.13234761357307434,-0.09085027873516083,0.5082283616065979,0.7787284851074219,-0.3678123354911804,0.0556144118309021,-0.09588241577148438,-0.08017045259475708,0.6964353718701142,-0.5622011237043439,0.004871506400014074,0.4459640417605986
1728064585300005400,3.83000537109375,-0.03731570020318031,-0.13591599464416504,-0.0976429358124733,0.5069855451583862,0.7793854475021362,-0.368135541677475,0.045474112033843994,-0.034405648708343506,-0.08218181133270264,0.6965313560714173,-0.5620639562240425,0.004041392965354426,0.4459952008556045
1728064585310035200,3.84003515625,0.007547377608716488,-0.11889279633760452,-0.032941702753305435,0.5057741403579712,0.7798735499382019,-0.36876797676086426,0.02939736843109131,0.020968735218048096,-0.10094332695007324,0.6966843215004361,-0.5617877043865533,0.003254600393744757,0.4461109141625358
1728064585320066600,3.850066650390625,0.13147331774234772,-0.03933512791991234,-0.021246695891022682,0.5048274397850037,0.7797313928604126,-0.370362251996994,-0.0008449554443359375,0.03798705339431763,-0.05145171284675598,0.6971631797628034,-0.5610796815540416,0.0029095032535675037,0.4462562538088292
1728064585330096000,3.86009619140625,0.08553724735975266,-0.005471435841172934,-0.08600731939077377,0.5034986138343811,0.7796004414558411,-0.37244099378585815,-0.02095472812652588,0.0022293925285339355,-0.013392746448516846,0.6979975938060115,-0.5601539358260117,0.002658248417306126,0.446116415970912
1728064585340127200,3.870127197265625,-0.10068535804748535,-0.034625325351953506,-0.11424747854471207,0.5017216205596924,0.7802793383598328,-0.3734160363674164,-0.049191832542419434,-0.02861618995666504,0.03956899046897888,0.6985980973518706,-0.5597214352814156,0.0019758272055185873,0.4457226322785696
1728064585350157300,3.8801572265625,-0.16713468730449677,-0.033841293305158615,-0.016912933439016342,0.5015811920166016,0.7804701924324036,-0.3732058107852936,-0.04982954263687134,-0.023680031299591064,0.07388937473297119,0.6983981706641038,-0.5598163524787666,0.0016586141325540698,0.445918081432047
1728064585360188200,3.890188232421875,-0.15900245308876038,-0.07156603783369064,0.0025606327690184116,0.5027934908866882,0.7796511054039001,-0.37328651547431946,-0.015885591506958008,-0.010684490203857422,0.07516026496887207,0.697921844173217,-0.5597794817569597,0.001917945565637387,0.44670835548266147
1728064585370218200,3.90021826171875,-0.14992853999137878,-0.02472502738237381,-0.09530095010995865,0.5033843517303467,0.7790820598602295,-0.3736780881881714,0.002352893352508545,-0.004774868488311768,0.06192576885223389,0.6976735316796314,-0.5596043953381429,0.0019675873777633573,0.44731502392801226
1728064585380249300,3.910249267578125,-0.07519464194774628,-0.03322663530707359,-0.08154971897602081,0.5030835866928101,0.7791925668716431,-0.3738527297973633,-0.010819852352142334,0.0034765005111694336,0.04957294464111328,0.697695009627513,-0.5595270913660355,0.001750144145919876,0.44737912159283455
1728064585390279200,3.920279052734375,-0.07171755284070969,-0.12035045772790909,-0.0064171492122113705,0.5024186968803406,0.7792899012565613,-0.37454333901405334,-0.003990352153778076,0.005637466907501221,0.08010971546173096,0.6977732060284493,-0.5592197662299764,0.0012590702623876445,0.44764296898051276
1728064585400310300,3.930310302734375,-0.09283015877008438,-0.10130155831575394,0.008039288222789764,0.5017521977424622,0.7795887589454651,-0.3748149871826172,0.020830810070037842,0.011640608310699463,0.1022929847240448,0.6976541878902808,-0.5590994129265621,0.0005885915397585438,0.4479801993488767
1728064585410340400,3.94034033203125,-0.08440697938203812,-0.02136523462831974,0.011523235589265823,0.5013978481292725,0.7799363136291504,-0.37456583976745605,0.00047892332077026367,0.03184652328491211,0.07514262199401855,0.6974432382211783,-0.5592111150490193,0.00011124037594508536,0.4481694602080623
1728064585420371200,3.95037109375,-0.12777015566825867,0.06917452067136765,-0.01109152939170599,0.5012752413749695,0.7805636525154114,-0.37342122197151184,-0.029137849807739258,0.03292816877365112,0.06050926446914673,0.6971407527015901,-0.5597225687084697,-0.00017053953681903686,0.4480014547289944
1728064585430401300,3.9604013671875,-0.14509262144565582,0.13261660933494568,-0.013098753988742828,0.5013809204101562,0.7815415263175964,-0.37122780084609985,-0.02622222900390625,0.022718727588653564,0.021343767642974854,0.6966856613156904,-0.5607013557999604,-0.00030873409411522675,0.44748518225292744
1728064585440432400,3.970432373046875,-0.09704095125198364,0.1453680843114853,-0.003557180520147085,0.5019491314888,0.7823368310928345,-0.3687765896320343,-0.006603121757507324,0.014782309532165527,-0.014844655990600586,0.6961801496729684,-0.5617932841862773,-0.00013219678403707653,0.4469021202040186
1728064585450462500,3.98046240234375,-0.023642301559448242,0.04054494947195053,-0.029068132862448692,0.5024674534797668,0.7827467322349548,-0.36719760298728943,0.021443068981170654,0.0008225440979003906,-0.03062957525253296,0.6958534500731675,-0.5624955080251973,0.00009197031461250365,0.44652751763984916
1728064585460493300,3.990493408203125,-0.1236402690410614,0.016557861119508743,-0.14362399280071259,0.5018700361251831,0.7836230397224426,-0.3661441206932068,0.06169813871383667,-0.04604363441467285,-0.0927029550075531,0.6957642883145981,-0.5629634652769362,-0.0002727271809609239,0.44607647738159134
1728064585470523400,4.0005234375,-0.2338932752609253,0.07055680453777313,-0.14009824395179749,0.5009698867797852,0.7853703498840332,-0.3636241853237152,0.05634206533432007,-0.07450920343399048,-0.11328926682472229,0.6953730158053452,-0.564080615628797,-0.0009853396216420182,0.4452734314139367
1728064585480554200,4.01055419921875,-0.18699687719345093,0.091738261282444,-0.046366430819034576,0.5009728670120239,0.7868716716766357,-0.3603595495223999,0.0244024395942688,-0.04863625764846802,-0.02465018630027771,0.6946419330862709,-0.5655249055546943,-0.0013462778940392655,0.4445809763359001
1728064585490584300,4.020584228515625,-0.10713612288236618,0.09880995750427246,-0.01133707258850336,0.5011529326438904,0.7878850102424622,-0.3578868806362152,0.027853965759277344,-0.05657696723937988,0.009101450443267822,0.694093084893875,-0.5666165994621625,-0.0014814341978887555,0.44404757412843504
1728064585500615400,4.030615478515625,-0.05491846427321434,0.1396322250366211,-0.04276397451758385,0.5010474920272827,0.788758397102356,-0.356106162071228,0.01642376184463501,-0.05403244495391846,0.007915854454040527,0.6938591720201853,-0.5674015719112648,-0.001539022399050831,0.4434101574671528
1728064585510645500,4.0406455078125,-0.013642064295709133,0.21694932878017426,-0.04104969650506973,0.5009803771972656,0.7893675565719604,-0.3548486828804016,-0.0047646164894104,-0.02192676067352295,-0.011148631572723389,0.6939060983750761,-0.5679559488871376,-0.0013005913903767245,0.44262709113867554
1728064585520676400,4.05067626953125,0.06121513620018959,0.2201658934354782,0.008029701188206673,0.5014404058456421,0.7893516421318054,-0.3542337417602539,-0.01204526424407959,0.03054887056350708,-0.017500877380371094,0.694115708886287,-0.5682277589960795,-0.0005883260786069917,0.44195052597017226
1728064585530706400,4.06070654296875,0.17284086346626282,0.21289435029029846,0.03088042326271534,0.5025627613067627,0.7884711623191833,-0.35460391640663147,0.010758161544799805,0.04711538553237915,-0.022959530353546143,0.6944800669071566,-0.568064831337397,0.0006207860894950329,0.4415873620878416
1728064585540737300,4.0707373046875,0.21600031852722168,0.18651947379112244,-0.02171487919986248,0.5040507316589355,0.7866517901420593,-0.35652774572372437,0.04035240411758423,0.022430360317230225,-0.05397948622703552,0.6952028891229302,-0.5672133447416139,0.002270380816273478,0.44153928832015643
1728064585550767400,4.080767333984375,0.16652344167232513,0.13795992732048035,-0.08169805258512497,0.5049763917922974,0.7848648428916931,-0.3591462969779968,0.03980815410614014,-0.008558690547943115,-0.041305363178253174,0.6961566185187194,-0.5660505857430417,0.00368599116369928,0.4415191331017447
1728064585560798500,4.090798583984375,0.047635141760110855,0.08181915432214737,-0.061750978231430054,0.5053844451904297,0.7841511368751526,-0.3601299822330475,0.022279739379882812,-0.026308119297027588,0.024024605751037598,0.6966722337058784,-0.5656103696659499,0.004463259701471849,0.44126275881199295
1728064585570828500,4.10082861328125,-0.04666299745440483,0.04832117259502411,-0.01695794053375721,0.5061419606208801,0.7838044762611389,-0.35982072353363037,0.013480842113494873,-0.027884066104888916,0.06404435634613037,0.6966001833995771,-0.5657427826340572,0.004973417172370452,0.4412013631643332
