time,seconds_elapsed,rotationRateX,rotationRateY,rotationRateZ,gravityX,gravityY,gravityZ,accelerationX,accelerationY,accelerationZ,quaternionW,quaternionX,quaternionY,quaternionZ
1729786375863585800,0.070585693359375,-0.020236264914274216,0.037846583873033524,-0.0013432553969323635,0.2553720474243164,-0.2570982873439789,-0.9320330619812012,-0.052918463945388794,-0.03143012523651123,0.008464336395263672,0.9828614801613701,0.1307907026028941,0.12991253220310367,-1.7594892635166447e-18
1729786375873617000,0.080616943359375,-0.07354716211557388,0.047244880348443985,0.015286588110029697,0.25493982434272766,-0.2591921389102936,-0.9315713047981262,-0.05787259340286255,-0.04129919409751892,0.02106410264968872,0.9827439675102426,0.1318309228659251,0.129749546947881,0.0003084683442975687
1729786375883648000,0.09064794921875,-0.14800715446472168,0.0440092459321022,0.022156212478876114,0.2543015480041504,-0.26097747683525085,-0.9312472939491272,-0.06333783268928528,-0.05623745918273926,0.026202678680419922,0.9826612642591155,0.13269059791136226,0.12949735967145642,0.0007631511476027828
1729786375893678800,0.100678955078125,-0.16483299434185028,0.027309361845254898,0.017868787050247192,0.25340738892555237,-0.26224657893180847,-0.9311344623565674,-0.060749948024749756,-0.05638742446899414,0.03271222114562988,0.9826320163842834,0.13327653063318234,0.1291128499271177,0.0012509235152243078
1729786375903710000,0.1107099609375,-0.15154361724853516,0.01524561457335949,0.009912327863276005,0.25226184725761414,-0.2630927562713623,-0.9312068223953247,-0.05607962608337402,-0.04124376177787781,0.03456985950469971,0.9826498738769607,0.13364975109622393,0.12858586500099342,0.0016757111907312904
1729786375913740800,0.12074072265625,-0.11962084472179413,0.021884875372052193,0.0010495949536561966,0.2510402500629425,-0.26326966285705566,-0.9314869046211243,-0.05263024568557739,-0.03261348605155945,0.016035854816436768,0.9827205819613573,0.13369181712841016,0.1279962164774061,0.001977628183397208
1729786375923772000,0.13077197265625,-0.09048113226890564,0.030885133892297745,-0.004715084098279476,0.25009050965309143,-0.26296040415763855,-0.9318296909332275,-0.05847066640853882,-0.01847270131111145,0.007131814956665039,0.9828072862520363,0.13349907882114195,0.12752706369400219,0.0021668414614586097
1729786375933802800,0.140802734375,-0.07841381430625916,0.04830300807952881,-0.006493542809039354,0.24962231516838074,-0.26253581047058105,-0.9320749044418335,-0.06709672510623932,-0.008399218320846558,0.010093092918395996,0.9828694174121667,0.1332584172805206,0.1272978125110541,0.0022960475487254508
1729786375943833900,0.150833740234375,-0.06572724878787994,0.06930533051490784,-0.0034719202667474747,0.24943026900291443,-0.2623482942581177,-0.9321791529655457,-0.07676184177398682,-0.011028140783309937,0.01857435703277588,0.9828955996940868,0.1331418028376396,0.12721516047406345,0.00243415344938336
1729786375953864000,0.160864013671875,-0.0808556005358696,0.07741652429103851,0.0009414702653884888,0.24927887320518494,-0.2624589502811432,-0.9321884512901306,-0.08083713054656982,-0.012626469135284424,0.02088785171508789,0.9828973703976621,0.13317141371719363,0.1271657966452222,0.0026394038470062622
1729786375963894800,0.170894775390625,-0.105435311794281,0.05837460607290268,-0.0008036992512643337,0.24911105632781982,-0.26250791549682617,-0.9322195649147034,-0.07545080780982971,-0.017414569854736328,0.01763826608657837,0.9829047650946335,0.13316727345003843,0.1271090002317274,0.002857432722152997
1729786375973926000,0.18092578125,-0.11883661150932312,0.05568587779998779,-0.0016226209700107574,0.2490037977695465,-0.26230350136756897,-0.9323057532310486,-0.0635179877281189,-0.02628597617149353,0.024926602840423584,0.9829261056580899,0.13303448947755242,0.12707851167837678,0.003058529995433136
1729786375983956700,0.190956787109375,-0.12131134420633316,0.06327631324529648,0.015349703840911388,0.24899975955486298,-0.2617829442024231,-0.9324530959129333,-0.059760287404060364,-0.03242173790931702,0.03137582540512085,0.9829628287688242,0.1327353987616398,0.1271013508280813,0.0032849007587743635
1729786375993987800,0.20098779296875,-0.12419235706329346,0.07509168982505798,0.02899494394659996,0.2490844428539276,-0.2611258327960968,-0.9326147437095642,-0.0666351318359375,-0.03898400068283081,0.03271239995956421,0.9830028700400785,0.1323561853017688,0.12717888333597235,0.0035886883119370223
1729786376004018700,0.211018798828125,-0.12767770886421204,0.0858319029211998,0.03316865116357803,0.24919654428958893,-0.2602371275424957,-0.932833194732666,-0.07475809752941132,-0.038896143436431885,0.02011340856552124,0.983057130539274,0.13185231936535843,0.12727284758120389,0.003930202581622603
1729786376014049800,0.2210498046875,-0.11072535067796707,0.09351512044668198,0.0368824265897274,0.24933964014053345,-0.2593366503715515,-0.9330456852912903,-0.08083687722682953,-0.023942768573760986,0.015534698963165283,0.9831096710597129,0.1313413610166868,0.12738368057243812,0.004281270333242822
1729786376024080600,0.23108056640625,-0.0892389714717865,0.09552905708551407,0.04065399616956711,0.24950361251831055,-0.2586629390716553,-0.9331888556480408,-0.07773545384407043,-0.004337519407272339,0.02240699529647827,0.9831444438367095,0.13094763267190865,0.12750799066805724,0.004635202536546728
1729786376034111700,0.24111181640625,-0.0792262852191925,0.08903466910123825,0.04913723096251488,0.2496108114719391,-0.2581944465637207,-0.9332899451255798,-0.06487268209457397,0.002365618944168091,0.01692330837249756,0.9831681835217443,0.1306544800016729,0.1276105361712917,0.005030138296597614
1729786376044141800,0.251141845703125,-0.10847364366054535,0.0851331353187561,0.06321603059768677,0.24968615174293518,-0.2576795220375061,-0.9334120750427246,-0.05258840322494507,-0.0005297064781188965,0.00906515121459961,0.9831968266579051,0.13032931019973656,0.12770370002567388,0.005484542809367431
1729786376054172700,0.261172607421875,-0.18558362126350403,0.09258599579334259,0.08065201342105865,0.2498253434896469,-0.25683683156967163,-0.9336070418357849,-0.0437706857919693,-0.011015921831130981,0.014982163906097412,0.9832430611884372,0.12982082280815735,0.12783985289689334,0.006046605818332772
1729786376064203800,0.271203857421875,-0.27925145626068115,0.11741097271442413,0.08268427103757858,0.2501126825809479,-0.25527241826057434,-0.9339591264724731,-0.040640056133270264,-0.04048866033554077,0.026198506355285645,0.9833283543589635,0.1289249186933178,0.12805778752106922,0.0067210799548400885
1729786376074234600,0.281234619140625,-0.3487287759780884,0.15012790262699127,0.09337366372346878,0.2506473958492279,-0.25298482179641724,-0.9344381093978882,-0.04805648326873779,-0.06896036863327026,0.050252318382263184,0.9834444523654757,0.12764203047770964,0.12840737300476224,0.007503917817047438
1729786376084265700,0.291265625,-0.3785327672958374,0.19230331480503082,0.12055788189172745,0.2514893114566803,-0.2501921057701111,-0.9349636435508728,-0.057672202587127686,-0.08406689763069153,0.0710262656211853,0.9835704972666119,0.12608048191544366,0.12892587693516416,0.008431336133816119
1729786376094296800,0.301296875,-0.38220059871673584,0.23442499339580536,0.16399723291397095,0.25263163447380066,-0.2472137063741684,-0.9354478120803833,-0.06291913986206055,-0.08741150796413422,0.0787583589553833,0.983683246492165,0.12439830202857563,0.12961923311894,0.009553586679889184
1729786376104328000,0.311327880859375,-0.3930492401123047,0.2727348208427429,0.21851985156536102,0.2541050910949707,-0.24416373670101166,-0.9358497262001038,-0.05906727910041809,-0.07067084312438965,0.09008550643920898,0.983771052871873,0.12264544704523136,0.13051144389147434,0.010932580928953228
1729786376114358800,0.32135888671875,-0.4030758738517761,0.3019600808620453,0.24650941789150238,0.2559206187725067,-0.2411077916622162,-0.9361472725868225,-0.0541994571685791,-0.053325772285461426,0.09151220321655273,0.9838275077074077,0.12085808266460732,0.13160430677430252,0.012540521221867454
1729786376124390000,0.331389892578125,-0.40660154819488525,0.32993975281715393,0.27778345346450806,0.25799915194511414,-0.2380707859992981,-0.9363539814949036,-0.04919791221618652,-0.04697862267494202,0.08241105079650879,0.9838559138519454,0.11905701054938649,0.13284745050548835,0.014305504054905046
1729786376134420000,0.341419921875,-0.41877537965774536,0.35746991634368896,0.30074843764305115,0.26057377457618713,-0.23494815826416016,-0.9364297389984131,-0.04235786199569702,-0.04067133367061615,0.07305693626403809,0.9838455388766032,0.11718898451824128,0.13435724334390306,0.016212122882641115
1729786376144450800,0.351450927734375,-0.47894957661628723,0.36973175406455994,0.3258202373981476,0.2632710635662079,-0.23155879974365234,-0.9365195631980896,-0.03458762168884277,-0.04271791875362396,0.0648612380027771,0.9838322233286081,0.11515694985162285,0.13593784674519865,0.018275126052051928
1729786376154482000,0.36148193359375,-0.5543556213378906,0.3871229887008667,0.3384350836277008,0.26607745885849,-0.2275501936674118,-0.9367089867591858,-0.027613162994384766,-0.044773370027542114,0.06556946039199829,0.9838368322739197,0.11278007010008305,0.1375724227745292,0.020483100476013035
1729786376164512800,0.3715126953125,-0.6431451439857483,0.41439029574394226,0.35033756494522095,0.26905950903892517,-0.22285054624080658,-0.9369869828224182,-0.02755868434906006,-0.05202125012874603,0.07117277383804321,0.983855891249576,0.11002182511002409,0.13929000175651338,0.022827594536509514
1729786376174544000,0.3815439453125,-0.7897197008132935,0.4426664113998413,0.3735920190811157,0.2723079025745392,-0.21711301803588867,-0.9373955130577087,-0.026855021715164185,-0.07426878809928894,0.06814807653427124,0.9838984139447902,0.10669906725433477,0.14112953773271314,0.025334629770824547
1729786376184574700,0.39157470703125,-0.9749131798744202,0.4675092101097107,0.4032337963581085,0.275773286819458,-0.2098679095506668,-0.9380322694778442,-0.025468140840530396,-0.076783686876297,0.08819401264190674,0.9839847926178734,0.10255466878226309,0.14306079862824683,0.02811195175288871
1729786376194605800,0.401605712890625,-1.161776065826416,0.49491554498672485,0.4266214072704315,0.2794530391693115,-0.2009548544883728,-0.9388946294784546,-0.02276971936225891,-0.06984283030033112,0.10854184627532959,0.984111769742884,0.09750492746577305,0.14507054930629645,0.031168850210677928
1729786376204637000,0.411636962890625,-1.384212851524353,0.5256237983703613,0.4579809308052063,0.2834225296974182,-0.1902128905057907,-0.9399418830871582,-0.0249234139919281,-0.07879951596260071,0.1065526008605957,0.9842659875961843,0.09146487715142834,0.1471843613662589,0.034519164468989075
1729786376214667800,0.421667724609375,-1.619745135307312,0.5497624278068542,0.48512521386146545,0.2876446545124054,-0.17738103866577148,-0.9411676526069641,-0.025025635957717896,-0.09135672450065613,0.09995061159133911,0.9844412848236804,0.0842962684733237,0.14936638614267644,0.03819998397253845
1729786376224697900,0.43169775390625,-1.8864237070083618,0.5603967905044556,0.4983368515968323,0.29208627343177795,-0.1622534543275833,-0.9425281882286072,-0.012667357921600342,-0.1103752851486206,0.09180492162704468,0.9846247773242617,0.07590202357620032,0.15157432669048934,0.04216884914473468
1729786376234728700,0.441728759765625,-2.1250264644622803,0.5390044450759888,0.4958990216255188,0.2965414226055145,-0.14470174908638,-0.9439939260482788,-0.005617380142211914,-0.1290256381034851,0.08606851100921631,0.9848082475606951,0.0662319046359638,0.1536761471561235,0.046364683520924904
1729786376244759800,0.451759765625,-2.334134101867676,0.5114709138870239,0.4601977467536926,0.3008973300457001,-0.12497073411941528,-0.9454327821731567,-0.012536734342575073,-0.12116875499486923,0.08453190326690674,0.9849636901026168,0.05544183353358953,0.1555950400350365,0.050626118703220264
1729786376254790700,0.461790771484375,-2.4353818893432617,0.4744358956813812,0.44122883677482605,0.3050616383552551,-0.103599414229393,-0.9466808438301086,-0.017082542181015015,-0.07601175457239151,0.06350207328796387,0.9850550442770607,0.043829665516870904,0.15728493650617542,0.05483725134278032
1729786376264821800,0.47182177734375,-2.3533997535705566,0.4665878117084503,0.45341068506240845,0.3091139495372772,-0.08208351582288742,-0.9474760293960571,-0.01008749008178711,-0.012002125382423401,0.056729018688201904,0.9850139106164976,0.032145841662623194,0.15883518557507492,0.059040160810994065
1729786376274852900,0.481852783203125,-2.181471347808838,0.46480321884155273,0.47468695044517517,0.31324464082717896,-0.061936940997838974,-0.9476505517959595,0.0040313005447387695,0.04118504002690315,0.017886817455291748,0.984798954488217,0.021150138975669582,0.16039758385585143,0.06321688593328578
1729786376284883700,0.4918837890625,-1.9908075332641602,0.459370881319046,0.4978463053703308,0.3173837661743164,-0.04362267255783081,-0.9472932815551758,0.009901970624923706,0.08186125010251999,0.0013247132301330566,0.9844342128550584,0.011075916295267557,0.16195885021593642,0.0673493630795924
1729786376294914800,0.501914794921875,-1.8092377185821533,0.4691292345523834,0.5349215269088745,0.3216318190097809,-0.027224762365221977,-0.9464733600616455,0.014229357242584229,0.10177925229072571,0.018738985061645508,0.9839357681161153,0.0019534001209390757,0.1635833437545223,0.07146424928521408
1729786376304945700,0.511945556640625,-1.7345428466796875,0.48910459876060486,0.569030225276947,0.32608503103256226,-0.012273610569536686,-0.945260763168335,0.012446433305740356,0.08455454558134079,0.02471327781677246,0.9833161615838917,-0.006473622717000669,0.16531093478296577,0.07562974174695154
1729786376314977000,0.52197705078125,-1.8104931116104126,0.49158453941345215,0.588983952999115,0.3307332396507263,0.0025486138183623552,-0.9437208771705627,0.001053839921951294,0.04186977446079254,0.036921560764312744,0.9825840077198915,-0.014889210862130202,0.16708646373779176,0.07993222984386016
1729786376325006800,0.5320068359375,-2.0066606998443604,0.48069581389427185,0.611020565032959,0.3354458808898926,0.018567552790045738,-0.9418764710426331,-0.010586291551589966,-0.01536315307021141,0.06675446033477783,0.9817371260057062,-0.02397375273469982,0.16878098127240898,0.08444166416587574
1729786376335037700,0.54203759765625,-2.300100326538086,0.4729923605918884,0.6195674538612366,0.34009987115859985,0.036764755845069885,-0.9396703839302063,-0.02273234724998474,-0.07582719624042511,0.0879247784614563,0.9807521162489115,-0.034233391711313385,0.17027295429813954,0.08922199897783185
1729786376345069000,0.552069091796875,-2.623154401779175,0.47335585951805115,0.6136903762817383,0.34482237696647644,0.05787542089819908,-0.9368820786476135,-0.030262500047683716,-0.1175372302532196,0.09580236673355103,0.979566923034729,-0.04605581036812726,0.17157458292607491,0.09428574629851419
1729786376355100000,0.562099853515625,-2.9118967056274414,0.44914668798446655,0.6258679628372192,0.34963977336883545,0.08164121955633163,-0.9333202838897705,-0.03428637981414795,-0.13623709976673126,0.1281445026397705,0.9781317229217651,-0.05931624872057866,0.172688842198614,0.09959239985947618
1729786376365130500,0.572130615234375,-3.1530075073242188,0.3712186813354492,0.6512427926063538,0.3540322184562683,0.1077834889292717,-0.9290015697479248,-0.01611107587814331,-0.13244162499904633,0.1258704662322998,0.976437129852822,-0.07387008707953495,0.17332748952437368,0.10522134823233599
1729786376375161300,0.582161376953125,-3.2389755249023438,0.34243178367614746,0.6997368335723877,0.35821443796157837,0.13518892228603363,-0.923799991607666,0.022950083017349243,-0.09637048840522766,0.08777093887329102,0.9744455837188696,-0.0891737588483435,0.17363193771564947,0.11115763273304023
1729786376385192400,0.5921923828125,-3.192854642868042,0.21357062458992004,0.6730793714523315,0.36197489500045776,0.1623784303665161,-0.9179365038871765,0.053293049335479736,-0.041971251368522644,0.052747905254364014,0.9722240084776147,-0.10444133499647594,0.17356193723322463,0.11725588411389698
1729786376395223300,0.602223388671875,-3.045969247817993,0.19437642395496368,0.6562389135360718,0.36505982279777527,0.1886041909456253,-0.9116796255111694,0.07747554779052734,0.00567077100276947,0.01705688238143921,0.9698893972820738,-0.11919635320746529,0.17306762919887048,0.12310324377091664
1729786376405254400,0.61225439453125,-2.9012866020202637,0.11947464942932129,0.5767874717712402,0.36775362491607666,0.2134464681148529,-0.9050955176353455,0.06683194637298584,0.039712175726890564,-0.011637270450592041,0.9674778390766948,-0.1332178936412754,0.17235206849204718,0.12858636836543386
1729786376415285200,0.62228515625,-2.779376745223999,0.1578313708305359,0.48100608587265015,0.36997494101524353,0.237505704164505,-0.8981701135635376,0.0634661614894867,0.07055404782295227,-0.016014397144317627,0.9650357669806559,-0.1467465956912088,0.1714070182298398,0.13338346976718915
1729786376425315300,0.6323154296875,-2.6136720180511475,0.1268979012966156,0.6496198773384094,0.3728504776954651,0.2595648765563965,-0.8908471465110779,0.011625230312347412,0.07400760054588318,0.003563821315765381,0.9624469658497244,-0.15938506386845658,0.17080054069121056,0.13827377868658428
1729786376435346400,0.642346435546875,-2.616041660308838,0.06773070991039276,0.7129954099655151,0.37563374638557434,0.2800137996673584,-0.8834543824195862,0.07884928584098816,0.07200652360916138,-0.03002828359603882,0.9597079603189818,-0.1713659875021858,0.17001917580244302,0.14383316002043875
1729786376445377300,0.652377197265625,-2.6182806491851807,0.07082157582044601,0.7074477672576904,0.3784843981266022,0.30040690302848816,-0.87550288438797,0.09009775519371033,0.06818446516990662,0.0029748082160949707,0.956780662189259,-0.18340234576031042,0.16915123015062158,0.14940690131036757
1729786376455408400,0.662408447265625,-2.628445863723755,0.0019658152014017105,0.6077107787132263,0.38090837001800537,0.32064926624298096,-0.8672328591346741,0.04427778720855713,0.06996053457260132,0.023940682411193848,0.9537582578033807,-0.19536116306421955,0.167980886549694,0.1547954922912538
1729786376465439500,0.672439453125,-2.553387403488159,0.04007368162274361,0.5950538516044617,0.38314494490623474,0.3409025967121124,-0.8584785461425781,0.04297193884849548,0.056146442890167236,0.0266304612159729,0.950639025320924,-0.20731382725720382,0.16667847837447305,0.159764610080678
1729786376475470600,0.682470703125,-2.432452917098999,-0.05337664112448692,0.6040568947792053,0.38524293899536133,0.3597588837146759,-0.8498008251190186,0.025706768035888672,0.05384594202041626,0.021736860275268555,0.9474981769439654,-0.2185886964631608,0.1652833189295708,0.1647652802508366
1729786376485501400,0.69250146484375,-2.319411039352417,-0.0416998565196991,0.5409203171730042,0.3870011866092682,0.37777620553970337,-0.8411392569541931,0.06969437003135681,0.057404547929763794,0.0009598731994628906,0.9443740309983095,-0.22939901232792437,0.1637267763767168,0.16949190778493126
1729786376495532500,0.702532470703125,-2.0814013481140137,-0.06365948170423508,0.49732381105422974,0.38846972584724426,0.39439383149147034,-0.8327933549880981,0.03908151388168335,0.09475722908973694,0.03794783353805542,0.9413807230771369,-0.23940642294831602,0.16213539622368756,0.17377865484798605
1729786376505563400,0.7125634765625,-1.7745524644851685,-0.06044425070285797,0.5482378602027893,0.3901272416114807,0.40836289525032043,-0.8252517580986023,0.04264253377914429,0.13985496759414673,0.02193760871887207,0.9386081637637186,-0.24801388474329533,0.16082048794569886,0.17787792303095246
1729786376515593500,0.722593505859375,-1.462552785873413,-0.031396880745887756,0.6107009649276733,0.3921824097633362,0.41942930221557617,-0.818701446056366,0.07096758484840393,0.169437974691391,0.0016849040985107422,0.9360775908715333,-0.25511604326887294,0.15989085671840292,0.18196015432588428
1729786376525624600,0.73262451171875,-1.2064752578735352,-0.013557430356740952,0.6302677392959595,0.39466989040374756,0.4278719127178192,-0.8131182789802551,0.06976187229156494,0.17703232169151306,0.011162161827087402,0.9337931384093598,-0.2608465405126683,0.15937360220923272,0.1859827974819216
1729786376535655400,0.742655517578125,-1.0285720825195312,-0.0037934836000204086,0.587497889995575,0.39727160334587097,0.43449628353118896,-0.80832439661026,0.05667737126350403,0.15096831321716309,0.01059490442276001,0.9317541751060276,-0.26555909065335465,0.15911057512351898,0.18972749837556088
1729786376545686500,0.7526865234375,-0.9915134906768799,0.0013886019587516785,0.514788806438446,0.39970606565475464,0.4403931498527527,-0.8039210438728333,0.036893635988235474,0.09348148107528687,0.03266555070877075,0.9298768907556673,-0.2697993239536982,0.15889559937915135,0.193105337641656
1729786376555717400,0.76271728515625,-1.036272406578064,0.0026988773606717587,0.4905977249145508,0.4020087718963623,0.4465174078941345,-0.7993817329406738,0.026259660720825195,0.04322877526283264,0.0721936821937561,0.9279981640142781,-0.27412621377213686,0.15863146853348362,0.19624052704924794
1729786376565748500,0.77274853515625,-1.1159312725067139,-0.028521254658699036,0.49435490369796753,0.4041476845741272,0.45314404368400574,-0.7945597171783447,0.0312771201133728,0.012828946113586426,0.0979960560798645,0.9260224282058506,-0.2787372292736177,0.15819511193470265,0.19940507216099562
1729786376575779300,0.782779296875,-1.1842777729034424,-0.060891442000865936,0.47392234206199646,0.406022846698761,0.46035245060920715,-0.7894435524940491,0.0499555766582489,-0.008615881204605103,0.09886133670806885,0.923936300401985,-0.2836710587470957,0.15750858655593727,0.20264145516606746
1729786376585810400,0.792810546875,-1.216193437576294,-0.0756487101316452,0.4393470585346222,0.4076352119445801,0.4679607152938843,-0.7841213941574097,0.05531647801399231,-0.017429590225219727,0.08703893423080444,0.9217934451777307,-0.28880230321714634,0.15662862807684338,0.20580985580788413
1729786376595841300,0.80284130859375,-1.2505309581756592,-0.08222325891256332,0.40161964297294617,0.40900567173957825,0.4759211540222168,-0.7785970568656921,0.05367127060890198,-0.013549238443374634,0.07043677568435669,0.9196142895361449,-0.2940940000893526,0.15559622286291883,0.2088255128274579
1729786376605871400,0.812871337890625,-1.3090406656265259,-0.06983029097318649,0.36255213618278503,0.410246878862381,0.484294593334198,-0.7727588415145874,0.06178376078605652,-0.011638253927230835,0.07714122533798218,0.9173682480418264,-0.2996029824561162,0.1544623846162453,0.21169532312805336
1729786376615902500,0.82290234375,-1.4505925178527832,-0.032487981021404266,0.36283257603645325,0.41165268421173096,0.49338728189468384,-0.7662317156791687,0.07592663168907166,-0.027002304792404175,0.08773452043533325,0.914936406896946,-0.305574060006583,0.15332523215580246,0.21449302820233962
1729786376625933300,0.832933349609375,-1.7521076202392578,-0.025338776409626007,0.37263140082359314,0.41329601407051086,0.5040653347969055,-0.758356511592865,0.09964346885681152,-0.05245089530944824,0.09307330846786499,0.912084833820934,-0.31257415787528253,0.15204984166756003,0.21743846689130952
1729786376635964400,0.84296435546875,-2.0847597122192383,-0.06216150522232056,0.3811463415622711,0.41494128108024597,0.5170056223869324,-0.748684823513031,0.13559582829475403,-0.07900196313858032,0.11054706573486328,0.9086451308700494,-0.3210128101235382,0.15036080853014655,0.22069530231938383
1729786376645995300,0.852995361328125,-2.425117254257202,-0.12160421162843704,0.34000128507614136,0.4161820411682129,0.5322882533073425,-0.7371985912322998,0.17225787043571472,-0.11853086948394775,0.11422806978225708,0.9046183160600263,-0.3308919780278251,0.14802436378246886,0.2241984335129561
1729786376656026400,0.8630263671875,-2.7973270416259766,-0.17817267775535583,0.2411828339099884,0.41665560007095337,0.5502172112464905,-0.7236430048942566,0.19596952199935913,-0.14880412817001343,0.12064623832702637,0.8999886556672814,-0.34233122333067867,0.14487180697136604,0.22768830600052814
1729786376666057500,0.873057373046875,-3.1004831790924072,-0.2141534835100174,0.18486683070659637,0.41644394397735596,0.5706019401550293,-0.7078049778938293,0.18966564536094666,-0.12249702215194702,0.1456407904624939,0.8947079713385976,-0.35528408826906477,0.14096357063225798,0.23108478270723443
1729786376676088300,0.88308837890625,-3.2311818599700928,-0.22115866839885712,0.1913207322359085,0.4159875214099884,0.5920779705047607,-0.690216064453125,0.1814398467540741,-0.06612265110015869,0.1654815673828125,0.8888801880000851,-0.36909136133692755,0.13661456671295408,0.23452127395750577
1729786376686119700,0.89311962890625,-3.269702434539795,-0.19525159895420074,0.18729376792907715,0.4157339930534363,0.6134787201881409,-0.6714233160018921,0.1876595914363861,-0.021712303161621094,0.15311282873153687,0.8826584116917929,-0.3831590414455052,0.1322024671616627,0.23796221564459283
1729786376696150500,0.903150634765625,-3.378943681716919,-0.17543154954910278,0.14699773490428925,0.4156154692173004,0.6348119974136353,-0.6513658761978149,0.18480262160301208,0.0039362311363220215,0.12974423170089722,0.876065224491996,-0.3974868987462785,0.12775453537538056,0.2412316766796977
1729786376706180400,0.913180419921875,-3.4748241901397705,-0.21330894529819489,0.09148707985877991,0.41514474153518677,0.6563462018966675,-0.6299718618392944,0.18028372526168823,0.01395726203918457,0.11359930038452148,0.869083510956106,-0.4121771941728625,0.12297976845896744,0.24429465860469474
1729786376716211500,0.92321142578125,-3.606781244277954,-0.2547115087509155,0.0441611148416996,0.4141808748245239,0.6780194044113159,-0.607243001461029,0.19169989228248596,-0.010432004928588867,0.08189821243286133,0.8616851254266837,-0.4272130048453326,0.1177605590572799,0.24722540919332905
1729786376726242600,0.93324267578125,-3.670647382736206,-0.2683528661727905,-0.010490681044757366,0.41273170709609985,0.699720025062561,-0.5831333994865417,0.21136802434921265,-0.056165218353271484,0.04771780967712402,0.8538602445752629,-0.44256362854841214,0.11211932691475812,0.24997900431087908
1729786376736273400,0.9432734375,-3.621793508529663,-0.2600286304950714,-0.08532204478979111,0.41090208292007446,0.7208338975906372,-0.5581738948822021,0.20877259969711304,-0.09346866607666016,0.0298537015914917,0.8458089903604388,-0.4578371882149427,0.10629276220465067,0.252377216129398
1729786376746304500,0.953304443359375,-3.5962581634521484,-0.20757707953453064,-0.16459369659423828,0.40873727202415466,0.7410100698471069,-0.5327643752098083,0.19471731781959534,-0.07192736864089966,0.0206947922706604,0.8376934180930108,-0.47278489793768247,0.10046014363958941,0.25426749368430374
1729786376756335600,0.963335693359375,-3.6356327533721924,-0.1896476149559021,-0.23964957892894745,0.4061525762081146,0.7607694268226624,-0.5062311887741089,0.1741544008255005,-0.007229268550872803,0.05409818887710571,0.8293077261415254,-0.4878073811116585,0.09448995200973283,0.25566453112204435
1729786376766366500,0.973366455078125,-3.5448241233825684,-0.11916273832321167,-0.2003527730703354,0.4035768508911133,0.7794602513313293,-0.47913217544555664,0.14657878875732422,0.041462719440460205,0.09725052118301392,0.8207567437978498,-0.5025707951122335,0.08863696297603807,0.256757946584963
1729786376776397600,0.9833974609375,-3.534217357635498,-0.11972226202487946,-0.17116878926753998,0.40167510509490967,0.7966260313987732,-0.4517124891281128,0.14533722400665283,0.028828799724578857,0.052573204040527344,0.8120138059259935,-0.5169382551726821,0.08317807289580488,0.25785635712340743
1729786376786428400,0.993428466796875,-3.598402500152588,-0.08887743204832077,-0.27005165815353394,0.39946138858795166,0.8131793737411499,-0.4232848882675171,0.16650235652923584,-0.012016534805297852,0.02858591079711914,0.8029398598196551,-0.5313610042550325,0.07754377652034392,0.2587086844641698
1729786376796459500,1.00345947265625,-3.6438114643096924,-0.037282682955265045,-0.356080025434494,0.39661574363708496,0.8292691111564636,-0.393711656332016,0.13551926612854004,-0.04511982202529907,0.07252949476242065,0.7935962958523347,-0.5458896843248452,0.07175396176608245,0.2589610945979842
1729786376806489300,1.0134892578125,-3.7562215328216553,0.00770476832985878,-0.3833500146865845,0.3934755027294159,0.8447742462158203,-0.36267557740211487,0.13418865203857422,-0.04673951864242554,0.11308768391609192,0.7838056229011549,-0.5606449322089303,0.06587463430827736,0.2588177155754769
1729786376816520400,1.0235205078125,-3.7722320556640625,0.05849311500787735,-0.3642290234565735,0.39040064811706543,0.8593606948852539,-0.33028310537338257,0.15000462532043457,-0.03157120943069458,0.15437990427017212,0.7735289668102804,-0.5755450589366964,0.06005274704144845,0.25844680595343994
1729786376826551600,1.033551513671875,-3.7275938987731934,0.1045212671160698,-0.32565101981163025,0.38770613074302673,0.87249755859375,-0.297375351190567,0.15485063195228577,-0.027114808559417725,0.16283875703811646,0.7629777847173053,-0.5902037619430648,0.05451456488160323,0.25797813139428644
1729786376836582400,1.04358251953125,-3.641817808151245,0.12744656205177307,-0.30525094270706177,0.38526827096939087,0.8841034770011902,-0.2644420862197876,0.15937894582748413,-0.023583948612213135,0.13550543785095215,0.7523082447384751,-0.6044446550590252,0.04925055669307255,0.25739748811583474
1729786376846613500,1.053613525390625,-3.540498733520508,0.1498231440782547,-0.30221787095069885,0.3829435408115387,0.8942052721977234,-0.231843039393425,0.14671951532363892,0.0012720823287963867,0.13241691887378693,0.741644256932351,-0.6181604611280767,0.0442281042572891,0.25668132965059787
1729786376856644400,1.063644287109375,-3.362234115600586,0.18291771411895752,-0.33158135414123535,0.3804514706134796,0.902895450592041,-0.2000914216041565,0.11684772372245789,0.04153209924697876,0.11889952421188354,0.7311967361513773,-0.6311906208747665,0.039404211455456174,0.25572861112274053
1729786376866675500,1.073675537109375,-3.2612178325653076,0.20972752571105957,-0.3561852276325226,0.3777368664741516,0.910318911075592,-0.16921748220920563,0.08056086301803589,0.06906658411026001,0.10310125350952148,0.7210139108529944,-0.6435670183975342,0.034824535242038955,0.2544559529721477
1729786376876706300,1.083706298828125,-3.1378118991851807,0.22252243757247925,-0.38978391885757446,0.3746717572212219,0.9166730046272278,-0.13903997838497162,0.059059351682662964,0.09214681386947632,0.08876238763332367,0.7110140044987859,-0.6554089459247057,0.03031710679257897,0.252941305674381
1729786376886737400,1.0937373046875,-3.0416831970214844,0.2628146708011627,-0.4303015172481537,0.371216744184494,0.9220432639122009,-0.10970187932252884,0.04379180073738098,0.09512293338775635,0.09223067760467529,0.7012745403523466,-0.6666908631600663,0.02592979012191667,0.2511275867048669
1729786376896767500,1.103767578125,-3.0332138538360596,0.29779529571533203,-0.4728734791278839,0.36732667684555054,0.9266085028648376,-0.08042340725660324,0.04235655069351196,0.07250654697418213,0.12066096067428589,0.691536132127283,-0.6777334329650108,0.021579863582078477,0.24897706728370345
1729786376906798300,1.11379833984375,-2.95749831199646,0.35952943563461304,-0.4730604588985443,0.3631439507007599,0.930316150188446,-0.051367901265621185,0.051498353481292725,0.039502084255218506,0.17041712999343872,0.6818443610491735,-0.6884869078265575,0.017373170982291398,0.2465205677535864
1729786376916829400,1.123829345703125,-2.9731247425079346,0.4127412736415863,-0.47950342297554016,0.3588656485080719,0.9331241250038147,-0.02225019596517086,0.0656338632106781,0.005856037139892578,0.19855040311813354,0.6720769446181174,-0.6990676166060805,0.013392882467836438,0.24379869249463496
1729786376926860300,1.1338603515625,-2.9611003398895264,0.4732793867588043,-0.519605815410614,0.35428664088249207,0.9351093173027039,0.0072109815664589405,0.07315784692764282,0.009272575378417969,0.2326878309249878,0.662142125696047,-0.7095877379608764,0.009525388460597504,0.2407540959551691
1729786376936891600,1.1438916015625,-2.9689924716949463,0.5204626321792603,-0.5866717100143433,0.3490055203437805,0.9363981485366821,0.03679666668176651,0.0746852457523346,0.05438566207885742,0.22902679443359375,0.6521571306370434,-0.7199767280330344,0.005643054413875636,0.23726129266103557
1729786376946922500,1.153922607421875,-2.9133639335632324,0.5585054159164429,-0.6178998947143555,0.3430516719818115,0.9369670152664185,0.06639783084392548,0.07403206825256348,0.11257833242416382,0.21535587310791016,0.6421260028591381,-0.7302027113501192,0.001707968316536535,0.23339970554716327
1729786376956953600,1.16395361328125,-2.715848684310913,0.5774809718132019,-0.5841496586799622,0.33693790435791016,0.9367370009422302,0.09485143423080444,0.07326412200927734,0.13963329792022705,0.17394757270812988,0.6324271177810549,-0.7398796483914141,-0.0019556002950618253,0.22936935986910834
1729786376966984400,1.173984375,-2.4343554973602295,0.6114966869354248,-0.5193938612937927,0.3311474323272705,0.9357833862304688,0.12104187905788422,0.05721926689147949,0.09809118509292603,0.08600473403930664,0.623438191223212,-0.7486621672413408,-0.0050892300204481026,0.22539743561069778
1729786376977015600,1.184015625,-2.1237776279449463,0.6792067885398865,-0.49129724502563477,0.3256153464317322,0.934377908706665,0.14461134374141693,0.03708600997924805,0.07261055707931519,0.04531489312648773,0.6153908424998643,-0.7564715443838542,-0.007514880971405958,0.22133319776800928
1729786376987046400,1.19404638671875,-1.8082090616226196,0.7082871198654175,-0.520413339138031,0.31984370946884155,0.9329429268836975,0.16528068482875824,0.020244181156158447,0.10276269912719727,0.025210142135620117,0.6084780975173864,-0.7632503602673886,-0.00944598317612937,0.21705790179292334
1729786376997076500,1.204076416015625,-1.55804443359375,0.714224636554718,-0.56533282995224,0.31356075406074524,0.9317178726196289,0.18325325846672058,0.01799747347831726,0.16004860401153564,0.021962404251098633,0.6026374311293514,-0.7690915304712344,-0.011173595740808772,0.2126066824894406
1729786377007107600,1.214107666015625,-1.4308903217315674,0.7254509925842285,-0.5565081834793091,0.30691978335380554,0.9306200742721558,0.1993653029203415,0.03269505500793457,0.17072880268096924,0.03568123281002045,0.597526552385947,-0.7742867711155894,-0.01275324276643572,0.20803699604181594
1729786377017138400,1.224138427734375,-1.4761242866516113,0.7159408330917358,-0.5490396022796631,0.3003174960613251,0.9292710423469543,0.2150922417640686,0.07065412402153015,0.11540663242340088,0.06286200881004333,0.5924897924619645,-0.779322624998313,-0.014225591950062982,0.2034937319196455
1729786377027169500,1.23416943359375,-1.5798367261886597,0.7137280106544495,-0.5540194511413574,0.2936054766178131,0.9274734854698181,0.23149274289608002,0.115162193775177,0.06378328800201416,0.10177455842494965,0.5870914818557714,-0.7845360975385631,-0.015795029617489187,0.1989403184675427
1729786377037200400,1.244200439453125,-1.6008083820343018,0.6798659563064575,-0.509588897228241,0.2869946360588074,0.9251730442047119,0.24837304651737213,0.12911251187324524,0.03022557497024536,0.10964405536651611,0.5813644796514681,-0.7898626521216304,-0.017421561903495027,0.19449659697199037
1729786377047231500,1.2542314453125,-1.5680032968521118,0.6582601070404053,-0.4144080579280853,0.28101763129234314,0.9223966598510742,0.26497870683670044,0.14100992679595947,0.011563360691070557,0.08107554912567139,0.5755608343927501,-0.7950686280123311,-0.018847453167226004,0.1903693213322436
1729786377057262300,1.264262451171875,-1.541445255279541,0.6350048184394836,-0.3631672263145447,0.27572888135910034,0.9191880822181702,0.28118836879730225,0.14364361763000488,0.003144681453704834,0.04615852236747742,0.5697473754939113,-0.800121878223369,-0.019978956318419096,0.18653083178251073
1729786377067293400,1.27429345703125,-1.485574722290039,0.6367598176002502,-0.3587746024131775,0.2706150710582733,0.9157660007476807,0.2968842387199402,0.1181330680847168,0.020086050033569336,0.015112370252609253,0.5640351932803014,-0.8049845628720077,-0.02102300204691537,0.18281747328339237
1729786377077324300,1.28432421875,-1.3711618185043335,0.6252043843269348,-0.364076167345047,0.2654300630092621,0.9123282432556152,0.31177589297294617,0.08564415574073792,0.06969690322875977,0.007789134979248047,0.558598863128129,-0.8095704293755679,-0.021992478695537485,0.17910733625225664
1729786377087355400,1.29435546875,-1.1455878019332886,0.5812752842903137,-0.41057416796684265,0.26000362634658813,0.9092970490455627,0.3249261975288391,0.07646787166595459,0.14124006032943726,-0.010518699884414673,0.553856313342928,-0.8135934013633774,-0.02299720501185719,0.17544262661479382
1729786377097385500,1.304385498046875,-0.925670325756073,0.540668785572052,-0.44003936648368835,0.25429657101631165,0.9069474339485168,0.33582744002342224,0.07561370730400085,0.19041907787322998,-0.04635271430015564,0.5500479998193115,-0.8169053397461145,-0.02407035474146634,0.17185361350532163
1729786377107416300,1.314416259765625,-0.7944841384887695,0.5256123542785645,-0.4432671368122101,0.24848344922065735,0.9051306247711182,0.34495577216148376,0.06831945478916168,0.17601549625396729,-0.06498736143112183,0.5469701906980986,-0.8196616435945688,-0.02515315117554694,0.16836185057723774
1729786377117447400,1.324447509765625,-0.7633390426635742,0.510707437992096,-0.4176568388938904,0.2428055852651596,0.9034540057182312,0.35329365730285645,0.06395706534385681,0.1050603985786438,-0.04576793313026428,0.5441898665334924,-0.8221703424643789,-0.026129535647346845,0.16495635707097914
1729786377127478300,1.334478271484375,-0.745109498500824,0.4826613664627075,-0.3999340236186981,0.23732274770736694,0.9017325639724731,0.36132603883743286,0.06509116291999817,0.03543180227279663,-0.024518609046936035,0.5414727452373514,-0.8245782943372267,-0.027086079089499702,0.16169204527483624
1729786377137509400,1.34450927734375,-0.7460818290710449,0.46038031578063965,-0.3307722806930542,0.23232080042362213,0.8998384475708008,0.3692120909690857,0.0709170401096344,-0.007809817790985107,-0.03882870078086853,0.538721888563234,-0.826938073955315,-0.027919012939152776,0.15865877562411895
1729786377147540200,1.354540283203125,-0.7795169949531555,0.43952563405036926,-0.277590274810791,0.22796180844306946,0.8976690769195557,0.3771263062953949,0.08701013028621674,-0.03598982095718384,-0.06831866502761841,0.5358494926964075,-0.8293055766971428,-0.028555326499130614,0.15589218621356843
1729786377157571600,1.364571533203125,-0.8159144520759583,0.4217950999736786,-0.2550112009048462,0.22398068010807037,0.8951787948608398,0.3853408396244049,0.09138792753219604,-0.02280336618423462,-0.08640581369400024,0.5327601849508325,-0.8317592015500175,-0.029104153824109198,0.1532845960993029
1729786377167602400,1.3746025390625,-0.747935950756073,0.3985193371772766,-0.22540991008281708,0.22024846076965332,0.8926125168800354,0.3933623135089874,0.07494808733463287,0.022915005683898926,-0.09485441446304321,0.5296915737391455,-0.8341492075849946,-0.02960174055394618,0.15081716775488904
1729786377177633500,1.384633544921875,-0.6087533235549927,0.3913831412792206,-0.21500547230243683,0.21679602563381195,0.890342116355896,0.40036314725875854,0.059800028800964355,0.06049412488937378,-0.11409282684326172,0.527032389929267,-0.8362319130814937,-0.029962573206379375,0.1485105462527647
1729786377187663600,1.39466357421875,-0.4050035774707794,0.39204055070877075,-0.22835084795951843,0.2132699340581894,0.8887405395507812,0.40577882528305054,0.042009592056274414,0.09621435403823853,-0.11367964744567871,0.5251037068738539,-0.8378404901930802,-0.03021123006784371,0.14620801329476021
1729786377197694500,1.404694580078125,-0.13239789009094238,0.3733254373073578,-0.21554502844810486,0.20977413654327393,0.8880694508552551,0.4090569317340851,0.018329456448554993,0.11453980207443237,-0.11608806252479553,0.5241510151945321,-0.8388132074274226,-0.03034586775964543,0.1440045111885681
1729786377207725600,1.4147255859375,0.07505643367767334,0.3489765524864197,-0.18463638424873352,0.2065616250038147,0.8883665800094604,0.410045325756073,0.008159995079040527,0.08782964944839478,-0.13831669092178345,0.5242298602111403,-0.8391108942252639,-0.030258275607226173,0.14198732075029122
1729786377217756400,1.42475634765625,0.19256415963172913,0.30227670073509216,-0.16693942248821259,0.20372632145881653,0.8892815113067627,0.4094800651073456,0.013192564249038696,0.036728501319885254,-0.15406304597854614,0.5249803610651933,-0.8389512653546451,-0.030013363902430753,0.14019835651600848
1729786377227787500,1.43478759765625,0.20442266762256622,0.25267207622528076,-0.18832992017269135,0.20106419920921326,0.8904321193695068,0.40829387307167053,0.02478109300136566,0.024652719497680664,-0.15394499897956848,0.5259658868070775,-0.8386030522055452,-0.02986399241734864,0.13861091817477378
1729786377237818400,1.444818359375,0.16532880067825317,0.1937517523765564,-0.19941772520542145,0.1984434574842453,0.8915637135505676,0.40710511803627014,0.024807855486869812,0.04515814781188965,-0.1605076789855957,0.5268995583987688,-0.8382450779326737,-0.029962343516987813,0.1372019701920589
1729786377247849500,1.454849365234375,0.10576840490102768,0.10188671201467514,-0.18224646151065826,0.19615498185157776,0.8924872875213623,0.40618953108787537,0.032650530338287354,0.05618220567703247,-0.17758214473724365,0.5276204786681115,-0.8379613132078444,-0.030258916528465345,0.13609544388279327
1729786377257880600,1.464880615234375,-0.08124249428510666,0.021907459944486618,-0.23377490043640137,0.19412651658058167,0.8929443955421448,0.40615910291671753,0.05919983983039856,0.04501330852508545,-0.19148308038711548,0.5278352717615857,-0.8379280292517165,-0.03092188305061849,0.13531582130376166
1729786377267911400,1.474911376953125,-0.22320708632469177,-0.056451261043548584,-0.2982553541660309,0.19183824956417084,0.8928079009056091,0.4075442850589752,0.06991098821163177,0.044631123542785645,-0.18832111358642578,0.5273453481634233,-0.8382938465513532,-0.03218033856570694,0.13466552303712848
1729786377277942500,1.484942626953125,-0.26668474078178406,-0.1406383216381073,-0.31984078884124756,0.189509317278862,0.8923099637031555,0.4097188711166382,0.0677691251039505,0.04656350612640381,-0.18442267179489136,0.526427451156233,-0.8388749406319894,-0.03388619982092857,0.13421939386860177
1729786377287972400,1.494972412109375,-0.10846419632434845,-0.3087517023086548,-0.3076496422290802,0.18763382732868195,0.8921416401863098,0.41094687581062317,0.08655136823654175,0.04580104351043701,-0.23118287324905396,0.5258195640757712,-0.8391556753355163,-0.0359330706632962,0.13431503220686436
1729786377298003500,1.50500341796875,-0.12386046350002289,-0.37753182649612427,-0.2637503743171692,0.18658487498760223,0.8922141194343567,0.4112670421600342,0.09942586719989777,0.024457871913909912,-0.31437355279922485,0.5254790120028486,-0.8391542210097132,-0.03812757185733291,0.13504987564500193
1729786377308034300,1.515034423828125,-0.14685772359371185,-0.3594575822353363,-0.22291240096092224,0.185969278216362,0.8920596837997437,0.4118802845478058,0.0724535584449768,-0.023697078227996826,-0.23596149682998657,0.5249541143307056,-0.8392393493915957,-0.040217550151308575,0.13595288402730565
1729786377318065400,1.5250654296875,-0.06061338260769844,-0.3325902819633484,-0.19221867620944977,0.1856229156255722,0.8919745087623596,0.41222041845321655,0.04275532066822052,-0.022864460945129395,-0.141956627368927,0.5245516764178757,-0.8392503500176421,-0.04206012332142078,0.13687711190249735
1729786377328096500,1.535096435546875,0.044562239199876785,-0.2715202271938324,-0.21818237006664276,0.18508405983448029,0.8923054337501526,0.41174623370170593,0.04845166206359863,0.04508769512176514,-0.096407949924469,0.5245818610948995,-0.8390247975139586,-0.04370941041313233,0.13762548332832905
1729786377338127400,1.54512744140625,0.09714662283658981,-0.19240543246269226,-0.1972680240869522,0.1841699331998825,0.8929656744003296,0.4107237756252289,0.04019525647163391,0.11287850141525269,-0.057421594858169556,0.5249527193185817,-0.8386434086653232,-0.0451565716702658,0.13806825459461997
1729786377348158500,1.555158447265625,-0.04622851312160492,-0.12400005012750626,-0.18085922300815582,0.18322424590587616,0.8933964371681213,0.4102095663547516,0.03206197917461395,0.07074540853500366,-0.0075604915618896484,0.5251404505365419,-0.8384260850463436,-0.04633012642283221,0.13828523392350267
1729786377358189300,1.565189208984375,-0.058600232005119324,-0.027612265199422836,-0.2067781686782837,0.18179380893707275,0.8934913277626038,0.41063961386680603,0.04038940370082855,0.025911927223205566,0.08617156744003296,0.5249946990014493,-0.8384964045761649,-0.04736649402418432,0.1380614927064594
1729786377368220200,1.57522021484375,-0.026477649807929993,0.005549152381718159,-0.21551574766635895,0.18000438809394836,0.8936886191368103,0.41099822521209717,0.028415396809577942,0.018359899520874023,0.10247546434402466,0.5249529417754513,-0.8385498745533683,-0.0483034122376391,0.13756988870707446
1729786377378251000,1.5852509765625,0.05734268203377724,0.08776786178350449,-0.25048303604125977,0.1777825653553009,0.8941203951835632,0.4110260307788849,0.03617614507675171,0.004149317741394043,0.09823620319366455,0.5251432450310198,-0.8385091907246874,-0.049146288496010285,0.13679053678012076
1729786377388281000,1.595281005859375,0.23465387523174286,0.12915466725826263,-0.2786598205566406,0.17497073113918304,0.8951528072357178,0.4099840819835663,0.018388614058494568,0.03148293495178223,0.13748618960380554,0.5259304764827583,-0.8381562227764032,-0.04986160770697482,0.13566576144470024
1729786377398312200,1.605312255859375,0.4204924702644348,0.14630141854286194,-0.2842085063457489,0.1719343066215515,0.8969677090644836,0.407292902469635,-0.011045694351196289,0.03999811410903931,0.11954742670059204,0.527519935169463,-0.8373184353962586,-0.05044100473247108,0.13444799816233502
1729786377408343000,1.615343017578125,0.5791623592376709,0.14957402646541595,-0.3037206828594208,0.16870106756687164,0.899495005607605,0.4030495584011078,-0.01780693233013153,0.020594775676727295,0.08419430255889893,0.5298480847758805,-0.8360204657754984,-0.050936819247173866,0.1331777359061173
1729786377418374100,1.6253740234375,0.6823065876960754,0.12699760496616364,-0.2988894581794739,0.1654641032218933,0.9025328159332275,0.3975631594657898,-0.018232077360153198,-0.0025998950004577637,0.05106067657470703,0.532731117122576,-0.8343504231309437,-0.051390254565807425,0.13197001832646998
1729786377428405000,1.635405029296875,0.6140924096107483,0.07960665225982666,-0.2879102826118469,0.16243989765644073,0.9056150317192078,0.39175906777381897,-0.013025850057601929,-0.03302574157714844,0.031794607639312744,0.5356994549705572,-0.8325779322368071,-0.05189918906849606,0.1309454786935651
1729786377438436000,1.64543603515625,0.4072611927986145,0.0566113255918026,-0.256818950176239,0.15973369777202606,0.9080415368080139,0.3872288763523102,-0.019596993923187256,-0.08811032772064209,0.029259979724884033,0.5380201595880538,-0.8311782836482337,-0.0525080798606748,0.1300770907390384
1729786377448467000,1.655467041015625,0.20525364577770233,0.012569883838295937,-0.19998018443584442,0.15755194425582886,0.9095480442047119,0.38457706570625305,-0.029958009719848633,-0.14908069372177124,0.04155522584915161,0.5394134349902454,-0.8303393671017261,-0.053151344249316584,0.12940073240097122
1729786377458498000,1.665498046875,0.09183388203382492,-0.04041104018688202,-0.16363470256328583,0.15600939095020294,0.9103679656982422,0.38326436281204224,-0.02554677426815033,-0.1607951521873474,0.01773679256439209,0.540110453799511,-0.8298999600342857,-0.05383524155478577,0.12902961515312644
1729786377468529000,1.67552880859375,0.10296589881181717,-0.08526458591222763,-0.14974045753479004,0.1548794060945511,0.9109244346618652,0.38239941000938416,-0.026003703474998474,-0.11646026372909546,-0.02517569065093994,0.5405389016403795,-0.8295905622764043,-0.05458212775073744,0.12891114192628492
1729786377478559000,1.68555908203125,0.2460724413394928,-0.12105268239974976,-0.12787030637264252,0.1540352702140808,0.9117645025253296,0.3807348310947418,-0.0384957492351532,-0.06337571144104004,-0.05892682075500488,0.5412813864143875,-0.8290393124129346,-0.05532843612727615,0.12902390096493654
1729786377488590000,1.695590087890625,0.43428823351860046,-0.12002746760845184,-0.09818511456251144,0.15349788963794708,0.9132139086723328,0.37746426463127136,-0.048914164304733276,-0.025869369506835938,-0.08176392316818237,0.5427172545429239,-0.828014145536479,-0.05589910782592047,0.12932913896097464
1729786377498621000,1.705620849609375,0.5642368793487549,-0.11497225612401962,-0.08085165917873383,0.1531660109758377,0.9152405858039856,0.37265917658805847,-0.06527543067932129,-0.01912248134613037,-0.07698944211006165,0.544829768270839,-0.8265382186566169,-0.056250865078797306,0.12973404876570446
1729786377508652000,1.715652099609375,0.6161160469055176,-0.11264635622501373,-0.06994149088859558,0.15296661853790283,0.9175211191177368,0.3670920729637146,-0.08686555922031403,-0.03042072057723999,-0.061336249113082886,0.5472683944423323,-0.8248371391690721,-0.05647765321219317,0.1301975165814987
1729786377518683000,1.725682861328125,0.700061023235321,-0.09553954005241394,-0.045110177248716354,0.15284647047519684,0.9199996590614319,0.3608863949775696,-0.10423198342323303,-0.043855130672454834,-0.048660844564437866,0.5499857911150096,-0.8229487307122489,-0.056556040126853245,0.13066215785733126
1729786377528714200,1.73571435546875,0.6453762054443359,-0.1256132870912552,-0.002237811218947172,0.15308602154254913,0.9224715828895569,0.35441645979881287,-0.11335217952728271,-0.07867580652236938,-0.07144203782081604,0.5527769867168645,-0.8209861926602767,-0.05647919920993512,0.13126093083919746
1729786377538745000,1.7457451171875,0.513119637966156,-0.1422329992055893,0.017967592924833298,0.15367385745048523,0.9244841933250427,0.3488745391368866,-0.10241962969303131,-0.09921258687973022,-0.06824997067451477,0.5550991331815731,-0.8193005044350686,-0.05642648594330586,0.1320141087407236
1729786377548776200,1.755776123046875,0.45378392934799194,-0.15666040778160095,0.04811564087867737,0.15450195968151093,0.9260831475257874,0.34423741698265076,-0.1011877954006195,-0.09667634963989258,-0.02874651551246643,0.5569842505004091,-0.817886908728208,-0.05638889584750525,0.1328529699891434
1729786377558807000,1.76580712890625,0.4660317897796631,-0.21770699322223663,0.0761486068367958,0.15577025711536407,0.927527666091919,0.33974769711494446,-0.08951660990715027,-0.07320314645767212,-0.04526814818382263,0.5587393760147377,-0.8165180316226903,-0.05632190794055605,0.13392772098752023
1729786377568838100,1.775838134765625,0.5337037444114685,-0.2661067545413971,0.08993366360664368,0.15741682052612305,0.9290687441825867,0.334740549325943,-0.05840258300304413,-0.037497758865356445,-0.08406904339790344,0.5606421011796721,-0.8149841378684297,-0.056312734335122586,0.13531514854862187
1729786377578868200,1.7858681640625,0.5358574390411377,-0.24541372060775757,0.09054059535264969,0.15914799273014069,0.9307286143302917,0.32926592230796814,-0.04449349641799927,-0.004321873188018799,-0.07055297493934631,0.5627208564886407,-0.813304055788044,-0.05629805696624479,0.13679273832902417
1729786377588899000,1.795899169921875,0.39817845821380615,-0.2076897770166397,0.09599315375089645,0.16084039211273193,0.9321029782295227,0.32452261447906494,-0.06895197927951813,0.01639878749847412,-0.014662235975265503,0.5644950443237942,-0.8118504234514952,-0.05621568194362967,0.13814573253146198
1729786377598930200,1.80593017578125,0.183254674077034,-0.14356112480163574,0.0870681032538414,0.1622530221939087,0.9328954219818115,0.3215281069278717,-0.09519068896770477,0.014156639575958252,0.04128023982048035,0.565561867492453,-0.8109327427108467,-0.05614395926248571,0.13919698975456998
1729786377608961000,1.8159609375,0.07010961323976517,-0.09082899987697601,0.12364900857210159,0.16362671554088593,0.9330863356590271,0.32027530670166016,-0.11412723362445831,-0.0211753249168396,0.05530461668968201,0.5659184666443827,-0.8105600767063955,-0.0559464897576407,0.13999518300866812
1729786377618992000,1.8259921875,0.06340163946151733,-0.10495733469724655,0.15841257572174072,0.16530342400074005,0.9330542087554932,0.3195075988769531,-0.10043832659721375,-0.023599684238433838,0.014827877283096313,0.5660513938586377,-0.8103477689020451,-0.05559043058111305,0.1408268901469777
1729786377629023000,1.83602294921875,0.09123440086841583,-0.08381273597478867,0.15758034586906433,0.1671699583530426,0.93299800157547,0.31869885325431824,-0.07927937805652618,0.007263779640197754,-0.02270868420600891,0.5661870038063826,-0.8101287617921684,-0.055143556249859456,0.141713947918019
1729786377639054000,1.84605419921875,0.1928100287914276,-0.06117480248212814,0.16148507595062256,0.16890306770801544,0.9331645965576172,0.31729426980018616,-0.08574271202087402,0.028413772583007812,-0.042758017778396606,0.5666095208873572,-0.8097321266377314,-0.054598679772393105,0.14250103386550086
1729786377649085000,1.8560849609375,0.37478435039520264,-0.09214108437299728,0.19928358495235443,0.17085899412631989,0.9337306022644043,0.31457003951072693,-0.09795254468917847,0.014908194541931152,-0.1334632933139801,0.5675827033370808,-0.8089394134935387,-0.053870636161969236,0.14340448602681
1729786377659116000,1.866115966796875,0.5613595843315125,-0.12133065611124039,0.21393655240535736,0.17318391799926758,0.9348400235176086,0.30997011065483093,-0.06452614068984985,0.008610844612121582,-0.198214590549469,0.5693074542385642,-0.8075746892535757,-0.05299216645904758,0.14458203799656294
1729786377669146000,1.87614599609375,0.6502293944358826,-0.08962658047676086,0.22121497988700867,0.17558687925338745,0.9363371133804321,0.30404356122016907,-0.042576029896736145,0.013904154300689697,-0.15119609236717224,0.5715918126728168,-0.8058048276952041,-0.05196495929762235,0.14581221683160914
1729786377679177000,1.886177001953125,0.5843268036842346,-0.041540540754795074,0.23081541061401367,0.17794735729694366,0.9378021359443665,0.29809707403182983,-0.048125624656677246,0.0020018815994262695,-0.051743775606155396,0.5739072098017503,-0.8040332884979972,-0.05078392987141487,0.14690802276525403
1729786377689208000,1.8962080078125,0.5330566763877869,0.012473849579691887,0.2348860502243042,0.1801915317773819,0.939014196395874,0.2928883731365204,-0.04252675175666809,-0.04407089948654175,0.031010150909423828,0.5759517936274164,-0.80249470723187,-0.04946146155891471,0.14776817885636687
1729786377699239000,1.906239013671875,0.5102818608283997,0.05625355243682861,0.2279256135225296,0.18231965601444244,0.9401209950447083,0.2879794239997864,-0.018302977085113525,-0.08608657121658325,0.03907760977745056,0.5779034987305581,-0.8010510063642832,-0.04803121640381449,0.1484515153431978
1729786377709270000,1.91627001953125,0.47563159465789795,0.051625143736600876,0.21332243084907532,0.184273824095726,0.9411040544509888,0.283490389585495,0.017325296998023987,-0.13112157583236694,0.0061979591846466064,0.5797054316334823,-0.7997337492105553,-0.04659537274712771,0.14898520939445242
1729786377719300900,1.92630078125,0.421864777803421,0.06318538635969162,0.2302154004573822,0.18623106181621552,0.9419370293617249,0.2794156074523926,0.0513177365064621,-0.1465877890586853,0.011661171913146973,0.5813181661558581,-0.7985371563946423,-0.045235033678767814,0.14953778764687295
1729786377729332000,1.93633203125,0.6621001958847046,0.047691598534584045,0.2487102597951889,0.188375785946846,0.9429042339324951,0.2746756076812744,0.07431952655315399,-0.11236816644668579,0.012510210275650024,0.5832117690044818,-0.7971405384847727,-0.04364356272688297,0.15008813287623826
1729786377739363000,1.946363037109375,0.9980582594871521,-0.15727432072162628,0.23078317940235138,0.1908126324415207,0.9447101354598999,0.26667165756225586,0.098356693983078,-0.0531693696975708,-0.11313754320144653,0.5863475351507594,-0.794703642043135,-0.04221315475104562,0.1511983710476354
1729786377749394200,1.956394287109375,1.2543437480926514,-0.2230607569217682,0.21107259392738342,0.19347278773784637,0.9472346305847168,0.2555689215660095,0.10694226622581482,0.05972367525100708,-0.17362898588180542,0.5906271593477239,-0.7912648595617638,-0.041041216920450645,0.15288995899289137
1729786377759425300,1.96642529296875,1.2653793096542358,-0.21204431354999542,0.21302948892116547,0.19605602324008942,0.950012743473053,0.24297736585140228,0.0851023942232132,0.0837702751159668,-0.12932981550693512,0.5954747287492796,-0.787336375652898,-0.03987621497893458,0.15466488335442458
1729786377769454800,1.976454833984375,0.8776388764381409,-0.14769068360328674,0.2145344316959381,0.1985674649477005,0.9521741271018982,0.2322399765253067,0.054835230112075806,-0.03586858510971069,-0.11656296253204346,0.5995550304502,-0.7839777362787681,-0.03871561160613577,0.1562491699749798
1729786377779486200,1.986486328125,0.42532283067703247,-0.06390444189310074,0.22274762392044067,0.20094750821590424,0.953184962272644,0.22596122324466705,0.05279083549976349,-0.12141317129135132,0.042105287313461304,0.6018461758155206,-0.7820232930393116,-0.037685241214082024,0.15748184918209018
1729786377789517000,1.99651708984375,0.4671698808670044,0.03534071147441864,0.21913158893585205,0.20311790704727173,0.9536864161491394,0.2218688279390335,0.05994361639022827,-0.13593721389770508,0.1742190420627594,0.6033374118955418,-0.7807708058893811,-0.036487869680602594,0.1582710982926519
1729786377799548200,2.006548095703125,0.5674115419387817,0.08116252720355988,0.20414385199546814,0.2050338089466095,0.9543774127960205,0.21708334982395172,0.05712743103504181,-0.07188528776168823,0.11967825889587402,0.605179824865709,-0.779301469089393,-0.03508412815417894,0.15879491084477773
1729786377809579000,2.0165791015625,0.671393096446991,0.13427740335464478,0.20222477614879608,0.20678406953811646,0.95530104637146,0.2112828642129898,0.03676141798496246,0.06630545854568481,0.15550802648067474,0.6074888592166088,-0.7775106800893089,-0.03344505615593275,0.1591097579138248
1729786377819610000,2.026610107421875,0.7410009503364563,0.11312391608953476,0.22917357087135315,0.2086317092180252,0.956318199634552,0.20476369559764862,0.014085501432418823,0.09336429834365845,0.10618002712726593,0.6100945084203477,-0.7754887653573582,-0.03160736579637837,0.15938249726936277
1729786377829641200,2.03664111328125,0.6956101655960083,0.003919084556400776,0.15812948346138,0.21046055853366852,0.957356870174408,0.19792519509792328,0.030689314007759094,-0.004475951194763184,-0.08108855783939362,0.6127588043462237,-0.7733428488232978,-0.030057227095749848,0.15988782904611393
1729786377839672000,2.046672119140625,0.47984644770622253,-0.10369738936424255,0.0809878408908844,0.21164774894714355,0.9582719802856445,0.192146435379982,0.05132219195365906,0.024195730686187744,-0.09587860107421875,0.6149459704334694,-0.7715013843263179,-0.029305888215978668,0.1605251978110441
1729786377849703200,2.056703125,0.351350337266922,-0.2645513117313385,0.13382413983345032,0.2130649834871292,0.9588145613670349,0.187825009226799,0.040566593408584595,0.07914936542510986,-0.06541883945465088,0.6164149681966189,-0.7701080312516823,-0.029088236762369383,0.16161747259128267
1729786377859733000,2.06673291015625,0.14365893602371216,-0.4382389485836029,0.18102574348449707,0.21528685092926025,0.9589473605155945,0.18458545207977295,0.08357176184654236,0.04270064830780029,-0.2600095272064209,0.6172246357573632,-0.7690456566302702,-0.029351363125559558,0.1635271077796955
1729786377869764000,2.07676416015625,-0.19160254299640656,-0.5227834582328796,0.20632897317409515,0.21806009113788605,0.9584764242172241,0.18377439677715302,0.09759844839572906,-0.019984543323516846,-0.24866986274719238,0.6168883827360891,-0.7687512675539646,-0.030144405640905085,0.16601700306473954
1729786377879795200,2.086795166015625,-0.2545860707759857,-0.4815535247325897,0.24146991968154907,0.22121641039848328,0.9575146436691284,0.18501228094100952,0.06033878028392792,-0.08222454786300659,-0.0813286155462265,0.6156763956105542,-0.7691194709325584,-0.03100613296441267,0.16863173008861454
1729786377889826000,2.096825927734375,-0.1898605227470398,-0.40572941303253174,0.21964317560195923,0.22432996332645416,0.956570029258728,0.18614421784877777,0.002964884042739868,-0.12221956253051758,-0.040010735392570496,0.6145428389796583,-0.7694600150677299,-0.03167635614307683,0.17106991525291732
1729786377899857200,2.106857177734375,-0.06535081565380096,-0.24616265296936035,0.19316710531711578,0.2269076555967331,0.9558496475219727,0.18672049045562744,-0.05198091268539429,0.03200441598892212,0.10011434555053711,0.6137860561087819,-0.7696337262169811,-0.03200267533348607,0.17293501771272765
1729786377909888000,2.116887939453125,0.21402490139007568,-0.2197950780391693,0.2041076272726059,0.2292444109916687,0.9555158019065857,0.18557175993919373,-0.08451482653617859,0.20502197742462158,0.180090069770813,0.6138327914337017,-0.7692664680012459,-0.031858768278871255,0.1744235179818804
1729786377919919000,2.126919189453125,0.5438017249107361,-0.2533322870731354,0.18504498898983002,0.23161183297634125,0.9557412266731262,0.1814253330230713,-0.037458986043930054,0.23384946584701538,0.016816988587379456,0.6150648335101989,-0.7679331859933808,-0.03148468850640043,0.1760192698360854
1729786377929950000,2.136949951171875,0.8503652811050415,-0.2278984785079956,0.1500428020954132,0.23371194303035736,0.9565832018852234,0.17414849996566772,0.027030259370803833,0.23927879333496094,-0.0948331207036972,0.6175614240263745,-0.7655822041957867,-0.030953790990924823,0.17760579936477383
1729786377939981000,2.14698095703125,1.1143202781677246,-0.16477197408676147,0.1429862231016159,0.23542754352092743,0.9579168558120728,0.16422288119792938,0.017425790429115295,0.28826838731765747,-0.05239108204841614,0.6211777141395111,-0.7623668926621929,-0.030135740838744925,0.17896031791575803
1729786377950012000,2.157011962890625,1.321638584136963,-0.021072179079055786,0.15878036618232727,0.23710273206233978,0.9594799876213074,0.15225136280059814,-0.02247263491153717,0.3018115162849426,0.014618858695030212,0.6256791347238541,-0.7584854989706108,-0.028730245550593777,0.17999985647347963
1729786377960042000,2.1670419921875,1.4587458372116089,0.19343532621860504,0.1428796947002411,0.23844990134239197,0.9611276984214783,0.13919615745544434,-0.04397664964199066,0.2788931727409363,0.07029187679290771,0.6307765393381034,-0.754247283505137,-0.026629248081970067,0.18034145824750217
1729786377970073000,2.177072998046875,1.8151581287384033,0.311144083738327,0.2105381041765213,0.23980344831943512,0.9628607034683228,0.1240728497505188,-0.06476986408233643,0.2774806618690491,0.22649802267551422,0.6368014089388581,-0.7493170436505191,-0.02367259086832019,0.18013264626433412
1729786377980104000,2.18710400390625,2.177443027496338,0.35220736265182495,0.3108018636703491,0.24200592935085297,0.964516282081604,0.10555413365364075,-0.05278170108795166,0.20929664373397827,0.2336488962173462,0.6440769980723102,-0.7432260953562986,-0.019799912773044978,0.17996627751711725
1729786377990135000,2.197135009765625,2.379244804382324,0.38217678666114807,0.38923966884613037,0.24512313306331635,0.9658185839653015,0.0843181163072586,-0.012670755386352539,0.09123414754867554,0.16870331764221191,0.6522674274711553,-0.7361573352034559,-0.015213004979987734,0.17996766133218448
1729786378000166100,2.207166259765625,2.448906898498535,0.43163755536079407,0.3888380825519562,0.2486463487148285,0.9666159749031067,0.06187933683395386,-0.0031934529542922974,-0.008363842964172363,0.16222667694091797,0.6608254321117114,-0.7285842196597597,-0.01023245732418614,0.17991748825513257
1729786378010197200,2.217197265625,2.219586133956909,0.4552585184574127,0.37798038125038147,0.2521842420101166,0.9668415784835815,0.040261805057525635,-0.017137855291366577,-0.09341305494308472,0.1815401315689087,0.6690214603755943,-0.7211822621914468,-0.005200729499459475,0.17966543207107383
1729786378020228000,2.22722802734375,1.767090916633606,0.46117499470710754,0.4217448830604553,0.25592395663261414,0.9664457440376282,0.022041477262973785,-0.0014073848724365234,-0.15669220685958862,0.17575836181640625,0.6758633475734116,-0.7148570162905639,-0.0004303694723670284,0.17941050123704716
1729786378030259200,2.23725927734375,1.527318000793457,0.48031991720199585,0.4743971824645996,0.2602393329143524,0.9655144214630127,0.007589154411107302,0.045790910720825195,-0.20059126615524292,0.16262280941009521,0.6812361946471243,-0.7097720408991143,0.004269319947430371,0.17922832978323333
1729786378040290000,2.2472900390625,1.638041615486145,0.4434838891029358,0.601835310459137,0.2654319405555725,0.9641087055206299,-0.006364097353070974,0.0785316526889801,-0.1838046908378601,0.10810983180999756,0.6862981897225088,-0.7047935418374182,0.009165952199429986,0.17937933065303102
1729786378050320100,2.257320068359375,1.652848720550537,0.4367712438106537,0.6889952421188354,0.2718692719936371,0.9621021151542664,-0.021141234785318375,0.06203877925872803,-0.06000238656997681,0.03240233659744263,0.6914947255929972,-0.6994421031703199,0.014495743750993696,0.1800161952826708
1729786378060351200,2.267351318359375,1.9726547002792358,0.3941928744316101,0.6543858647346497,0.27851903438568115,0.9597150087356567,-0.03707607835531235,0.016509652137756348,0.11010944843292236,0.07465863227844238,0.697045542744779,-0.693587879980068,0.019945253006495297,0.18073668144781613
1729786378070382000,2.277382080078125,2.3951804637908936,0.3191531300544739,0.647630512714386,0.28498366475105286,0.9568225145339966,-0.05722912400960922,-0.037013083696365356,0.1733807921409607,0.0017788410186767578,0.7040229650818687,-0.6861032370706542,0.025451648634425166,0.1815663796435448
1729786378080413200,2.2874130859375,2.688974380493164,0.2819216251373291,0.612967312335968,0.2913038432598114,0.9532189965248108,-0.08072047680616379,-0.020094186067581177,0.17173528671264648,-0.12557822465896606,0.7120947716324229,-0.6772567415248794,0.031033350549035416,0.18243191198971634
1729786378090444000,2.297444091796875,2.8372621536254883,0.257407546043396,0.5416582226753235,0.2970992624759674,0.9489005208015442,-0.10639587044715881,-0.004725635051727295,0.18549895286560059,-0.10930222272872925,0.7208702201466842,-0.6674355131030085,0.03649519467749949,0.18315077918521153
1729786378100475100,2.30747509765625,2.7900164127349854,0.22212491929531097,0.4827589690685272,0.30224934220314026,0.9439812302589417,-0.13245739042758942,-0.0036196112632751465,0.14961624145507812,-0.05098366737365723,0.7297296086384223,-0.6572925998740512,0.04168623234546215,0.18363966755058056
1729786378110506000,2.317506103515625,2.582843780517578,0.20448169112205505,0.4921351671218872,0.3071885406970978,0.9385666847229004,-0.15725137293338776,0.013001859188079834,0.06509554386138916,0.012094616889953613,0.7380463603549615,-0.6474618630760872,0.04655588145613263,0.18415583254008167
1729786378120537000,2.327537109375,2.1880416870117188,0.19581231474876404,0.554240345954895,0.3124729096889496,0.9328957796096802,-0.1790710836648941,0.04630696773529053,-0.043369293212890625,0.08345961570739746,0.7452245796085664,-0.6386237222795497,0.0512269394932079,0.1848676767963578
1729786378130568000,2.33756787109375,1.6948374509811401,0.1695592850446701,0.6091366410255432,0.3182951509952545,0.927381157875061,-0.19660276174545288,0.07704481482505798,-0.12254095077514648,0.16568857431411743,0.7508103513679915,-0.6313548499115665,0.05558484658955601,0.1859713147378998
1729786378140599000,2.34759912109375,1.234504222869873,0.12929415702819824,0.6378130316734314,0.32443708181381226,0.9223834872245789,-0.20964093506336212,0.09435564279556274,-0.14569580554962158,0.19407707452774048,0.7547735760909718,-0.6258107095034771,0.05950201013040393,0.18744964280886656
1729786378150629000,2.357629150390625,0.9012547135353088,0.13490286469459534,0.638064444065094,0.33066296577453613,0.9180004596710205,-0.2189456969499588,0.08194994926452637,-0.16047781705856323,0.15313464403152466,0.7574242363893672,-0.6217371963905375,0.06300800322622821,0.18915980800543047
1729786378160660000,2.367659912109375,0.6960802674293518,0.13680782914161682,0.6203083395957947,0.33680662512779236,0.9141127467155457,-0.22574196755886078,0.04863041639328003,-0.15866518020629883,0.10475513339042664,0.7592325478869223,-0.6186581734158808,0.06626524671686815,0.19088502872673932
1729786378170691000,2.377691162109375,0.5503721237182617,0.08887733519077301,0.6247451305389404,0.34281009435653687,0.9105643630027771,-0.23098504543304443,0.018289178609848022,-0.13228964805603027,0.023114651441574097,0.7605020255266182,-0.6162071857622864,0.06925445427943387,0.192689879016329
1729786378180722000,2.387721923828125,0.4382490813732147,0.04867132380604744,0.6187649965286255,0.34868741035461426,0.9072438478469849,-0.2352147251367569,0.009131193161010742,-0.10397529602050781,-0.025557875633239746,0.7613829040351768,-0.6141808012011961,0.07193458027684622,0.19468850082530512
1729786378190753000,2.3977529296875,0.24635368585586548,-0.02152363955974579,0.6128626465797424,0.35431942343711853,0.9042429327964783,-0.23833271861076355,0.001561284065246582,-0.1021798849105835,-0.05806915462017059,0.7618480189959401,-0.6126359144430464,0.07423526026014837,0.1968603556063375
1729786378200784000,2.407783935546875,-0.07353510707616806,-0.08072544634342194,0.6545810699462891,0.35995471477508545,0.9017524123191833,-0.23932263255119324,-0.008590638637542725,-0.12286746501922607,-0.042354509234428406,0.7615102559604704,-0.6120048392928806,0.07608391731657238,0.19940802701625374
1729786378210815000,2.41781494140625,-0.3640589416027069,-0.16179414093494415,0.6865368485450745,0.3657698929309845,0.8998595476150513,-0.23762458562850952,-0.0038619637489318848,-0.13998699188232422,-0.016098439693450928,0.7601533311843803,-0.6125243100837315,0.07747050745281688,0.20243357757120212
1729786378220846000,2.42784619140625,-0.5495012402534485,-0.23022831976413727,0.7395734786987305,0.3717421293258667,0.898302435874939,-0.2342238575220108,-0.01581558585166931,-0.17715662717819214,-0.04316559433937073,0.7580921840210362,-0.6137863495907409,0.07844991849527595,0.2059328747356743
1729786378230876000,2.4378759765625,-0.7063495516777039,-0.344450443983078,0.8138247728347778,0.3781129717826843,0.8968429565429688,-0.22957246005535126,-0.016159266233444214,-0.2244795560836792,-0.0775715708732605,0.7554309356973102,-0.6155927449359623,0.07911599660943565,0.21002492330674402
1729786378240907000,2.447906982421875,-0.8543989658355713,-0.4432912766933441,0.8730212450027466,0.38484761118888855,0.8953686356544495,-0.22407034039497375,-0.00559040904045105,-0.2223491072654724,-0.10521423816680908,0.7522725500037605,-0.6177835057721927,0.0794252367941263,0.21475868694219633
1729786378250938000,2.457938232421875,-0.9929152727127075,-0.5191316604614258,0.8823585510253906,0.3917182683944702,0.8939889073371887,-0.21757937967777252,-0.020532995462417603,-0.19219130277633667,-0.11565721035003662,0.7486037086064938,-0.6204158388049624,0.07933787346332823,0.2199597497858257
1729786378260969200,2.46796923828125,-1.0437829494476318,-0.5634482502937317,0.870147168636322,0.39842259883880615,0.8927056193351746,-0.2105618566274643,-0.04568517208099365,-0.14383471012115479,-0.13575148582458496,0.7446513957782208,-0.6232911108171165,0.07891301853170687,0.22533389849360477
1729786378271000000,2.478,-1.0699243545532227,-0.603280246257782,0.8773225545883179,0.40506961941719055,0.8913816213607788,-0.20336604118347168,-0.06302854418754578,-0.08661764860153198,-0.18144527077674866,0.7405369502147732,-0.626250048303968,0.0782806234317614,0.2308424914137418
1729786378281031200,2.48803125,-0.9139800071716309,-0.6659194231033325,0.9032862186431885,0.411765456199646,0.8897454738616943,-0.19698341190814972,-0.05124595761299133,-0.01379925012588501,-0.1984938085079193,0.7365818489916122,-0.6288797390892212,0.07757940574899379,0.236514439005697
1729786378291062000,2.49806201171875,-0.601127028465271,-0.7346180081367493,0.9289790987968445,0.4186185300350189,0.8874046802520752,-0.19305896759033203,-0.03745397925376892,0.030564188957214355,-0.21911132335662842,0.7333214062032208,-0.6305101486877968,0.07699006728502618,0.24242400547191686
1729786378301093000,2.508093017578125,-0.3159269690513611,-0.787016749382019,0.926998496055603,0.4254504144191742,0.8843241930007935,-0.1922568678855896,-0.03267395496368408,0.05503737926483154,-0.24106208980083466,0.731035733405616,-0.6308751938140461,0.07660325206523479,0.24842551392765078
1729786378311124000,2.5181240234375,-0.16608887910842896,-0.7783344984054565,0.9217991828918457,0.4321577847003937,0.8807840943336487,-0.1935434639453888,-0.05229023098945618,0.060393333435058594,-0.20597726106643677,0.7294154786779863,-0.6303943881909647,0.07636218338803201,0.254410790067114
1729786378321155000,2.528155029296875,-0.08137878030538559,-0.7361851930618286,0.8528552651405334,0.43855422735214233,0.8771301507949829,-0.1957368403673172,-0.06964248418807983,0.06287235021591187,-0.13128942251205444,0.7281607344528342,-0.6295350902129275,0.0762702340565212,0.26009690035543886
1729786378331185200,2.53818505859375,-0.08142425119876862,-0.7262043952941895,0.8343742489814758,0.44449806213378906,0.8735426068305969,-0.19835548102855682,-0.09432411193847656,0.03824645280838013,-0.10933786630630493,0.7271080990391179,-0.6285073261517493,0.07616298221165028,0.26550257508135827
1729786378341216000,2.548216064453125,-0.2525821626186371,-0.7200719118118286,0.8516086339950562,0.45042848587036133,0.8700775504112244,-0.20019830763339996,-0.08528566360473633,-0.01067197322845459,-0.07410883903503418,0.7257445889871778,-0.6277971347281627,0.07597109329766462,0.270913367287417
1729786378351247000,2.5582470703125,-0.51606684923172,-0.7156019806861877,0.8610745668411255,0.4564681351184845,0.8669432997703552,-0.20011581480503082,-0.0510726273059845,-0.046081364154815674,-0.00976872444152832,0.7236284996965586,-0.6278822310380302,0.07553803653628843,0.2764413268038177
1729786378361278000,2.56827783203125,-0.6819652318954468,-0.7322787046432495,0.874098539352417,0.4626055955886841,0.8641511797904968,-0.19808848202228546,-0.034031957387924194,-0.07820135354995728,0.02374166250228882,0.7207348113708962,-0.6287757929119242,0.07481150983042734,0.28210935679137644
1729786378371310800,2.578310791015625,-0.6308176517486572,-0.7287223935127258,0.8569712042808533,0.4687013030052185,0.8614023327827454,-0.19571733474731445,-0.04009714722633362,-0.06712126731872559,0.017265915870666504,0.7176537586429578,-0.629817064384776,0.07397159957099456,0.28780524413363473
1729786378381342000,2.588342041015625,-0.40336233377456665,-0.7429708242416382,0.8566619753837585,0.4746539294719696,0.8583837151527405,-0.1946306824684143,-0.0632617175579071,-0.008224964141845703,-0.024744808673858643,0.7150071417161543,-0.6303296678328871,0.07327460979544391,0.2933942479316306
1729786378391372800,2.598372802734375,-0.10183192789554596,-0.7655214071273804,0.8468887209892273,0.4805438816547394,0.8547647595405579,-0.19609962403774261,-0.08152645826339722,0.06732404232025146,-0.04712536931037903,0.7132213660036679,-0.6297888259994315,0.0729124353784608,0.2989402475485402
1729786378401404000,2.60840380859375,0.0406477265059948,-0.7306944131851196,0.8167867660522461,0.4861835241317749,0.8507530689239502,-0.19961217045783997,-0.0855792760848999,0.09765708446502686,-0.042575180530548096,0.7121886641899537,-0.6284015881898387,0.07283787272285218,0.3042918021343683
1729786378411435000,2.61843505859375,-0.047498513013124466,-0.6844540238380432,0.7911311984062195,0.4916221499443054,0.8467873334884644,-0.20312321186065674,-0.09997481107711792,0.056411027908325195,0.03593277931213379,0.7112240009960278,-0.6270000307952697,0.07286534122903852,0.3093899375448268
1729786378421464800,2.62846484375,-0.2889595925807953,-0.625976026058197,0.7513672709465027,0.49685779213905334,0.8432711362838745,-0.20500293374061584,-0.09448355436325073,-0.0025117993354797363,0.1488201767206192,0.7097410027106335,-0.6262676646201215,0.07271413922296675,0.3142756694228983
1729786378431496000,2.638495849609375,-0.5368105173110962,-0.5795790553092957,0.6916688084602356,0.5017587542533875,0.8404998183250427,-0.20444628596305847,-0.07172030210494995,-0.03971850872039795,0.22577816247940063,0.7074801329250459,-0.6265501794549108,0.07219232424432503,0.31889665038483234
1729786378441526800,2.64852685546875,-0.622012734413147,-0.5270718932151794,0.6676494479179382,0.5063745975494385,0.8382619619369507,-0.20224151015281677,-0.04893141984939575,-0.020696043968200684,0.2729661464691162,0.7047200393815558,-0.6275157511122619,0.07143684981648328,0.3232497789457641
1729786378451558000,2.658557861328125,-0.478610098361969,-0.594076931476593,0.732144832611084,0.5110896229743958,0.8358712196350098,-0.2002665400505066,-0.026821494102478027,-0.0003151893615722656,0.24070246517658234,0.7020148962784978,-0.6283742247110989,0.07079943974902242,0.32757957813307625
1729786378461589000,2.668589111328125,-0.4208437204360962,-0.5263189673423767,0.8281826972961426,0.5166221857070923,0.8326141834259033,-0.19963765144348145,0.021448493003845215,0.010525524616241455,0.1636422872543335,0.699538176392407,-0.6286494029888672,0.07057692885750175,0.33236304185521337
1729786378471620000,2.6786201171875,-0.32484614849090576,-0.5086860060691833,0.6459795832633972,0.5218353867530823,0.8294970989227295,-0.19905439019203186,0.1036224365234375,0.03384530544281006,0.1698797345161438,0.6972232174953354,-0.6288935653525203,0.07046762114391232,0.3367597252648562
1729786378481651000,2.68865087890625,-0.2608890235424042,-0.5306261777877808,0.5458545684814453,0.5257276892662048,0.8269643783569336,-0.19935014843940735,-0.10633987188339233,0.021088719367980957,0.1273592710494995,0.695490238019643,-0.6288218801563964,0.07005692016956742,0.34054151243368785
1729786378491682000,2.69868212890625,-0.06898549199104309,-0.45766404271125793,0.5346037745475769,0.5291788578033447,0.8244693875312805,-0.20054972171783447,-0.15771889686584473,0.06894809007644653,0.11655020713806152,0.6941842518299878,-0.6283849186318161,0.06969603202748975,0.3440686343125763
1729786378501713200,2.708713134765625,-0.011797572486102581,-0.41592833399772644,0.6257217526435852,0.5331417322158813,0.821401059627533,-0.202633798122406,-0.09573328495025635,0.13256323337554932,0.09269434213638306,0.6932527611279223,-0.6275189566027601,0.07002183669211565,0.3474445465539897
1729786378511743000,2.718742919921875,-0.24681095778942108,-0.4579888582229614,0.6711453795433044,0.5376344323158264,0.8181313872337341,-0.20398657023906708,-0.06722116470336914,0.05006331205368042,0.13237720727920532,0.6918857803002694,-0.626941537136675,0.07036348757695493,0.35112318818608496
1729786378521774000,2.728774169921875,-0.4874323308467865,-0.4348782002925873,0.6668729186058044,0.5422167778015137,0.8152697682380676,-0.2033134400844574,0.005329608917236328,-0.021202266216278076,0.27824950218200684,0.6896612354378647,-0.6272232465491699,0.07024440414115342,0.35499887820488174
1729786378531805000,2.738804931640625,-0.6194076538085938,-0.3850404918193817,0.6946142315864563,0.5469641089439392,0.8126621246337891,-0.20102384686470032,-0.000333249568939209,-0.07489961385726929,0.28261274099349976,0.6868370537814307,-0.6281636575426995,0.06998923068982142,0.3588409810071924
1729786378541836000,2.7488359375,-0.6369280219078064,-0.3969131112098694,0.6531733274459839,0.5517422556877136,0.8102109432220459,-0.19783543050289154,-0.027221381664276123,-0.10664337873458862,0.24387133121490479,0.6836894934070576,-0.6294689519745313,0.0696500085916022,0.3626106554801224
1729786378551867100,2.7588671875,-0.5638378858566284,-0.373325914144516,0.6434165835380554,0.5562472939491272,0.8078031539916992,-0.19504612684249878,-0.0444522500038147,-0.0695982575416565,0.20327076315879822,0.6807139411854366,-0.6306183078889553,0.06926389453281738,0.36626709893300535
1729786378561898000,2.76889794921875,-0.44775283336639404,-0.2890957295894623,0.681784987449646,0.560955286026001,0.805065393447876,-0.19287021458148956,-0.008449792861938477,-0.0013239383697509766,0.12495347857475281,0.6780230172554128,-0.6314766956981781,0.06929703508137483,0.36975654941564473
1729786378571929000,2.77892919921875,-0.5595105886459351,-0.33767932653427124,0.6805753707885742,0.5659987926483154,0.8020656704902649,-0.1906200349330902,-0.008076488971710205,0.025799989700317383,0.09073616564273834,0.675286607699103,-0.6323343564052682,0.06959340324275867,0.37322645223433804
1729786378581960000,2.7889599609375,-0.7715780735015869,-0.4493398070335388,0.6377951502799988,0.5705129504203796,0.7996097207069397,-0.18745440244674683,-0.03909510374069214,-0.0018955469131469727,0.11996491253376007,0.6720399413211608,-0.6336438795197421,0.06905237336317009,0.37694756950397323
1729786378591991000,2.798990966796875,-0.8409409523010254,-0.44107377529144287,0.6685003638267517,0.5748929977416992,0.7973670959472656,-0.18358613550662994,-0.03515911102294922,0.03158193826675415,0.121376171708107,0.6683913781356321,-0.6352733563614754,0.06807860597614397,0.3808491900981189
1729786378602020900,2.809020751953125,-0.9416521191596985,-0.4561227560043335,0.6477186679840088,0.5794296264648438,0.7951076030731201,-0.17906762659549713,-0.06806188821792603,-0.026629149913787842,0.03488744795322418,0.664417676324346,-0.6371619591405356,0.06701360017733153,0.3848154942959007
1729786378612052000,2.819052001953125,-0.9712603092193604,-0.5039281249046326,0.5489915013313293,0.5833722949028015,0.7933043241500854,-0.17419840395450592,-0.10751175880432129,-0.11640912294387817,0.012897863984107971,0.6603151426158209,-0.6392311625513931,0.06545469485249193,0.3886941756481849
1729786378622083000,2.8290830078125,-0.8173711895942688,-0.5007879734039307,0.4977826476097107,0.5866705179214478,0.791792094707489,-0.16995039582252502,-0.11457890272140503,-0.13412296772003174,0.03925903141498566,0.6565396445770196,-0.6410676231674832,0.06369538302331199,0.3923403858202322
1729786378632114000,2.839114013671875,-0.5792006850242615,-0.4323647618293762,0.5289150476455688,0.5899249911308289,0.7899775505065918,-0.16710470616817474,-0.08350110054016113,-0.0634760856628418,0.04756750166416168,0.653418145980992,-0.6423012745244826,0.06242371616247685,0.39572350812881896
1729786378642145000,2.84914501953125,-0.3022231459617615,-0.3689756691455841,0.5910468101501465,0.5937544107437134,0.787330687046051,-0.16603073477745056,-0.07071363925933838,0.04758453369140625,0.042282119393348694,0.6510008784452102,-0.6427532434867133,0.06207173678457245,0.39901539461056984
1729786378652176000,2.85917578125,-0.1644275188446045,-0.291263610124588,0.574050784111023,0.597857654094696,0.784174919128418,-0.16624127328395844,-0.07454222440719604,0.04646790027618408,0.06672358512878418,0.6491938030830499,-0.6426353011130943,0.06244383333809853,0.4020798065779255
1729786378662207000,2.86920703125,-0.09692305326461792,-0.21195495128631592,0.5325371623039246,0.6018384695053101,0.781018078327179,-0.16673821210861206,-0.10325741767883301,-0.02979719638824463,0.06856326758861542,0.6477289294998119,-0.6423697756289085,0.06318202503813487,0.40474257128138236
1729786378672237800,2.87923779296875,-0.13861337304115295,-0.1605297178030014,0.4146398603916168,0.6052882671356201,0.7782934904098511,-0.16698987782001495,-0.14274853467941284,-0.11256760358810425,0.05529563128948212,0.6464455783857476,-0.6422013327083987,0.06389453710067954,0.4069437118980599
1729786378682269200,2.889269287109375,-0.25726065039634705,-0.10999464988708496,0.2579959034919739,0.6076694130897522,0.7766024470329285,-0.166212797164917,-0.1685824990272522,-0.1874452829360962,0.05676163733005524,0.6451636592967185,-0.6424788779004845,0.06414429175106429,0.4084976888753977
1729786378692299000,2.899299072265625,-0.3582771420478821,-0.13460688292980194,0.18154560029506683,0.6091607809066772,0.7757922410964966,-0.16452836990356445,-0.16403144598007202,-0.17734253406524658,0.0755545049905777,0.6437588673059034,-0.6431658303191626,0.06382418848582053,0.40968129769305195
1729786378702329900,2.909329833984375,-0.40264248847961426,-0.17544034123420715,0.12393131107091904,0.6100991368293762,0.7754783034324646,-0.1625191569328308,-0.112601637840271,-0.11964023113250732,0.09550268948078156,0.642252952885866,-0.6440258637900973,0.06301672596848279,0.41081719339085243
1729786378712361200,2.919361328125,-0.4043717384338379,-0.2215016782283783,0.3589611351490021,0.6112392544746399,0.7750035524368286,-0.16048666834831238,-0.03500640392303467,-0.07753962278366089,0.1362863928079605,0.6405849411567365,-0.6448998284149497,0.0621359520280927,0.41218228605989843
1729786378722392000,2.92939208984375,-0.2782593369483948,-0.028829965740442276,1.047399640083313,0.6166216135025024,0.7710623145103455,-0.1588732898235321,0.06370675563812256,0.015436708927154541,0.20234574377536774,0.6381483626406261,-0.6453975682035844,0.06344553845941227,0.41497388023937687
1729786378732423200,2.939423095703125,-0.26282361149787903,0.03976704552769661,0.687527596950531,0.6238647103309631,0.7656912207603455,-0.15655681490898132,0.25356149673461914,-0.15768945217132568,0.22502315044403076,0.6352510517406011,-0.6460463938072932,0.06592151962707622,0.4180127599973233
1729786378742454000,2.9494541015625,-0.04575307294726372,0.028677642345428467,0.33571627736091614,0.6275847554206848,0.7629576325416565,-0.15502600371837616,0.08124703168869019,-0.5291013717651367,0.0881621241569519,0.6336571683454649,-0.6465082635348851,0.0671867803614664,0.41951359185136994
1729786378752485000,2.959485107421875,0.7032261490821838,0.1800585836172104,0.2946215569972992,0.6301165819168091,0.7605396509170532,-0.1566285938024521,-0.17197144031524658,-0.3996998071670532,0.055081501603126526,0.6339153656773273,-0.6456834597580898,0.06912724573911215,0.42007807798629043
1729786378762516000,2.969515869140625,1.698377013206482,0.37966811656951904,0.26322636008262634,0.6327322721481323,0.7567892074584961,-0.164073646068573,-0.02976590394973755,0.03938394784927368,0.08216458559036255,0.6371210149920717,-0.6423116036609045,0.07347775767739449,0.4196590861122597
1729786378772547000,2.979547119140625,2.3394312858581543,0.6089327335357666,0.22218036651611328,0.6353968381881714,0.751785397529602,-0.17632277309894562,0.025095105171203613,0.19641107320785522,0.014244019985198975,0.6429709353172232,-0.6367228422501893,0.08014136854117193,0.41803095883366265
1729786378782578000,2.989577880859375,2.630064010620117,0.7973156571388245,0.17477478086948395,0.6382331252098083,0.7458613514900208,-0.19065535068511963,0.014248013496398926,0.1211431622505188,0.09821772575378418,0.6502093506005315,-0.6299780450639316,0.08831752455796706,0.4153980966373232
1729786378792608000,2.99960791015625,2.636981248855591,0.8482936024665833,-0.03341596946120262,0.6404692530632019,0.7401162385940552,-0.20500561594963074,0.025973618030548096,-0.0566444993019104,0.18434536457061768,0.657982365844241,-0.6229972737625149,0.09680697033185642,0.41177926206742466
1729786378802639000,3.00963916015625,2.2745308876037598,0.8476816415786743,-0.21174684166908264,0.6413735151290894,0.7356307506561279,-0.21791604161262512,0.02339082956314087,-0.13213032484054565,0.14427724480628967,0.6655134645519217,-0.6165670057076857,0.10434130745812753,0.40749216278335265
1729786378812670000,3.019669921875,1.7663183212280273,0.8792892098426819,-0.41060665249824524,0.6410372853279114,0.7330982685089111,-0.22724021971225739,0.06603974103927612,-0.04402655363082886,0.18282201886177063,0.6718844718382294,-0.6117157911462221,0.1103797112175347,0.4027298827246365
1729786378822701000,3.029701171875,1.229955792427063,0.9322469830513,-0.41967764496803284,0.6399698257446289,0.7324181199073792,-0.23238439857959747,0.09974581003189087,0.020298004150390625,0.19660264253616333,0.6768377443143826,-0.6087206689134727,0.11518225400048142,0.3975964899679383
1729786378832732000,3.03973193359375,0.6203208565711975,0.7900629639625549,-0.1565925031900406,0.6398575305938721,0.7321466207504272,-0.23354600369930267,0.12468409538269043,0.012817978858947754,0.1576947122812271,0.6796971436888642,-0.6074967365105728,0.11905759277715945,0.39342704907120624
1729786378842763000,3.049762939453125,0.3516637980937958,0.6606506109237671,0.012798928655683994,0.6411333084106445,0.7314431071281433,-0.2322477102279663,0.2449445128440857,-0.00797814130783081,0.14609672129154205,0.6807593295500317,-0.6073971190306511,0.12224926641784521,0.39075643633368334
1729786378852793900,3.0597939453125,0.509113073348999,0.60533207654953,-0.007548687048256397,0.6427069902420044,0.7304155826568604,-0.2311297506093979,0.2635277509689331,-0.0204545259475708,0.04944348335266113,0.6815624294379213,-0.6072491605024355,0.1252341026395029,0.3886356141406017
1729786378862825000,3.069824951171875,1.1627137660980225,0.5975005626678467,-0.09473392367362976,0.6437229514122009,0.7288824915885925,-0.23313331604003906,0.1450953483581543,0.09309327602386475,-0.07878671586513519,0.6837331845037237,-0.6056965055389704,0.1287054103444048,0.3861031428599097
1729786378872855800,3.079855712890625,2.0749120712280273,0.5319928526878357,-0.13642385601997375,0.644207775592804,0.7257804870605469,-0.24132782220840454,0.050662219524383545,0.1958962082862854,-0.21216323971748352,0.68849991118762,-0.6012780965145359,0.1334194219978615,0.38292535175035486
1729786378882886000,3.089885986328125,2.5597267150878906,0.5519385933876038,-0.1883762627840042,0.6444092392921448,0.7209826707839966,-0.25479528307914734,0.038558900356292725,0.20833861827850342,-0.3022114336490631,0.6954502957338574,-0.5943028720035598,0.13930707134513692,0.3791391115519696
1729786378892917000,3.0999169921875,2.763446807861328,0.6035209894180298,-0.18044590950012207,0.6445788741111755,0.7151359915733337,-0.2703678607940674,0.07487303018569946,0.16613543033599854,-0.21686038374900818,0.7033321329739846,-0.5861250617058429,0.14585434090146146,0.3748438667200565
1729786378902947800,3.10994775390625,2.564703941345215,0.5291996002197266,-0.11895456910133362,0.6451313495635986,0.7086173295974731,-0.28577446937561035,0.11413073539733887,0.04487699270248413,-0.1425395905971527,0.7110087315913843,-0.5778050686859302,0.15249286370985246,0.37061271477002866
1729786378912979000,3.11997900390625,2.1115059852600098,0.434135764837265,-0.05011798441410065,0.645963728427887,0.7022428512573242,-0.2993090748786926,0.16345399618148804,-0.07214629650115967,-0.10462146997451782,0.7175589154496629,-0.5703300967593886,0.15833207075875683,0.3671019265836368
1729786378923009800,3.130009765625,1.5272672176361084,0.34930849075317383,0.02665029838681221,0.6470800638198853,0.696773886680603,-0.3095053434371948,0.18896424770355225,-0.18474990129470825,-0.06219860911369324,0.7224392212166986,-0.564498946391293,0.16305907874922768,0.3644643612788644
1729786378933041200,3.140041259765625,1.0175085067749023,0.23240973055362701,0.13293012976646423,0.6485902070999146,0.6922762393951416,-0.31636112928390503,0.18515002727508545,-0.2929689288139343,-0.08148115873336792,0.7255995599719912,-0.5603927860972261,0.16667141777444253,0.36288547879285027
1729786378943072000,3.150072021484375,0.8142615556716919,0.09506385028362274,0.17651009559631348,0.6502052545547485,0.6883960366249084,-0.321471631526947,0.18133771419525146,-0.28304630517959595,-0.09907570481300354,0.7276575470172925,-0.5573150978366583,0.16930464116360722,0.36228485404131716
1729786378953103000,3.16010302734375,0.8100039958953857,0.1447294056415558,0.2095964103937149,0.6519668102264404,0.6844534873962402,-0.3262864947319031,0.15890049934387207,-0.18214929103851318,-0.09784668684005737,0.7294619030955615,-0.554390634640824,0.17177829425696492,0.36197885567913474
1729786378963134000,3.170134033203125,0.9346750974655151,0.17056873440742493,0.21665750443935394,0.653965175151825,0.6801930069923401,-0.33116036653518677,0.12406522035598755,-0.08993715047836304,-0.12233072519302368,0.7313302786865573,-0.551325710031281,0.17452730949677817,0.3615748117085209
1729786378973164000,3.1801640625,0.8607063293457031,0.13125525414943695,0.22230900824069977,0.6560536026954651,0.6756273508071899,-0.33633530139923096,0.11323350667953491,-0.05155801773071289,-0.1403796672821045,0.7333025707782981,-0.548049713016663,0.1774087405545085,0.36115798465853977
1729786378983195100,3.190195068359375,0.5403831601142883,0.1357855647802353,0.2077217996120453,0.6579599976539612,0.6717988848686218,-0.34025728702545166,0.1310873031616211,-0.04501354694366455,-0.04655289649963379,0.7347347554966706,-0.545486656573175,0.17976556245859746,0.36096207469397806
1729786378993226000,3.20022607421875,0.22985805571079254,0.11793822050094604,0.2012047916650772,0.6597830653190613,0.6691393256187439,-0.3419634997844696,0.1285775899887085,-0.05512559413909912,0.027678310871124268,0.7352915137259641,-0.5441285522622659,0.1815003162759858,0.3610100749847036
1729786379003257000,3.210257080078125,-0.06961973011493683,0.04482246935367584,0.21068909764289856,0.6614646911621094,0.6675070524215698,-0.34190478920936584,0.13721078634262085,-0.12224942445755005,-0.037459105253219604,0.7350472373987476,-0.5438138937058081,0.18252136935795518,0.36146654209108176
1729786379013288000,3.220287841796875,-0.23231416940689087,-0.05186891928315163,0.17199815809726715,0.6627838015556335,0.666746973991394,-0.34083181619644165,0.19048774242401123,-0.16331368684768677,-0.0369909405708313,0.7342458319982875,-0.5442272280410719,0.18275889329142353,0.3623522197573897
1729786379023319000,3.230319091796875,-0.27468693256378174,-0.042162228375673294,0.09272997826337814,0.6635041832923889,0.6667457222938538,-0.33942973613739014,0.20876449346542358,-0.1480688452720642,-0.0033435821533203125,0.7333346590002783,-0.544971868609356,0.18245763327714273,0.36322901736355306
1729786379033350000,3.240349853515625,-0.23876620829105377,0.028933091089129448,0.026312340050935745,0.6639389991760254,0.6671857833862305,-0.33771052956581116,0.1532912254333496,-0.08806884288787842,0.02067875862121582,0.7325168073784708,-0.545855282142954,0.18217231096797992,0.3636957158061166
1729786379043381000,3.250381103515625,-0.0973166674375534,0.08481419831514359,-0.0627104789018631,0.6639622449874878,0.6679455041885376,-0.3361594080924988,0.08907431364059448,-0.003669261932373047,0.04659348726272583,0.7320104902173924,-0.5466354127314701,0.18196159392351524,0.3636488216656126
1729786379053411800,3.260411865234375,0.08638984709978104,0.13291898369789124,-0.0125314611941576,0.6640702486038208,0.6682291626930237,-0.3353813886642456,0.0736006498336792,0.02357393503189087,0.10010623931884766,0.7319961703562781,-0.5468798230256384,0.18229582824699103,0.36314244672255974
1729786379063442000,3.27044189453125,-0.029263515025377274,0.1133711189031601,-0.021904457360506058,0.6644063591957092,0.6680747270584106,-0.3350232243537903,0.13837379217147827,-0.041579246520996094,0.033235013484954834,0.7320575856630903,-0.5468795911302394,0.1827870259791787,0.3627718994904509
1729786379073473000,3.28047314453125,-0.29329609870910645,0.13158228993415833,-0.12415333092212677,0.6644153594970703,0.669097363948822,-0.33295828104019165,0.17953306436538696,-0.07040339708328247,0.1025201678276062,0.7315747354729293,-0.5478245616448979,0.18278159627712115,0.3623227000354104
1729786379083503900,3.29050390625,-0.22699430584907532,0.22132521867752075,-0.18502308428287506,0.6638815402984619,0.671133816242218,-0.32991036772727966,0.11326390504837036,-0.024618804454803467,0.18623369932174683,0.7309277224905774,-0.5493299740092674,0.1824319063239991,0.3615244680606274
1729786379093535000,3.300534912109375,0.11746228486299515,0.2786472737789154,-0.11870476603507996,0.6637137532234192,0.6723307371139526,-0.32780393958091736,0.06957787275314331,0.03178608417510986,0.1842341125011444,0.7308179467241389,-0.5501408296488122,0.18287454492060076,0.36028751315525426
1729786379103565800,3.31056591796875,0.25861406326293945,0.24352522194385529,-0.03444315120577812,0.6641558408737183,0.6721238493919373,-0.3273325264453888,0.07116514444351196,0.07326805591583252,0.10937610268592834,0.7312312833301465,-0.5499673261536687,0.18403718174984396,0.35911983757727567
1729786379113597000,3.320596923828125,0.4330965578556061,0.04767630994319916,-0.03275657072663307,0.6644351482391357,0.671193540096283,-0.32867202162742615,0.12369656562805176,0.037775635719299316,-0.01571875810623169,0.732101789714167,-0.5489950404225893,0.18511735615727004,0.3582779905306784
1729786379123627800,3.330627685546875,0.4748421311378479,-0.05310329794883728,0.028237540274858475,0.6644193530082703,0.6696343421936035,-0.3318685293197632,0.15485548973083496,-0.07998889684677124,-0.11399313807487488,0.7334020000025343,-0.5472558575764914,0.18594827071976225,0.3578488080859094
1729786379133659000,3.340658935546875,0.16917434334754944,-0.11564156413078308,0.035407569259405136,0.6644169688224792,0.6682113409042358,-0.3347296416759491,0.15302687883377075,-0.1543104648590088,-0.11339038610458374,0.7343401481584491,-0.5458071261708118,0.18635922041094757,0.3579239290790193
1729786379143690000,3.35068994140625,-0.010066783986985683,-0.05693963170051575,-0.013413233682513237,0.6641919612884521,0.6679773330688477,-0.3356419503688812,0.08628112077713013,-0.1412132978439331,-0.02528935670852661,0.7345300206087441,-0.5454634163736672,0.18614157633580014,0.35817140356716143
1729786379153721000,3.36072119140625,0.16578161716461182,0.005759008694440126,-0.02107887715101242,0.6640474200248718,0.6678493022918701,-0.3361821174621582,0.015823185443878174,-0.10147345066070557,0.029724717140197754,0.7347518449836128,-0.5452059297386663,0.18617044026021434,0.35809338982247146
1729786379163751000,3.3707509765625,0.3710639178752899,-0.009778406471014023,-0.007771327625960112,0.6639717221260071,0.6669989228248596,-0.33801475167274475,0.00442427396774292,-0.08476930856704712,-0.0593697726726532,0.7355277880765083,-0.5442031082727258,0.18664297490990808,0.3577795904786031
1729786379173781800,3.38078173828125,0.4608539342880249,-0.012862026691436768,-0.03340158984065056,0.6638450026512146,0.6656534075737,-0.3409038186073303,0.0311775803565979,-0.06351101398468018,0.002433478832244873,0.7367119141685904,-0.5426397053362169,0.18732389685214787,0.35736192412852835
1729786379183813000,3.390813232421875,0.4933311939239502,0.05420782417058945,-0.11686479300260544,0.6634365320205688,0.6644843220710754,-0.34396612644195557,0.03906285762786865,-0.05945795774459839,0.05717730522155762,0.7381229482157161,-0.5409712453808903,0.18806129987418108,0.35659180780574484
1729786379193844000,3.400843994140625,0.5367552638053894,0.1202949583530426,-0.17693719267845154,0.662776529788971,0.6636895537376404,-0.3467617332935333,0.019367694854736328,-0.03688889741897583,0.06026279926300049,0.7396660985439517,-0.5393882791543793,0.188889954644834,0.35535209359567266
1729786379203875000,3.410875,0.7611183524131775,0.16563820838928223,-0.26649209856987,0.6619005799293518,0.6628250479698181,-0.3500726521015167,0.02111339569091797,0.019822776317596436,0.0533808171749115,0.7416686888389166,-0.5374376979534303,0.1900641753367672,0.35350264441335766
1729786379213906200,3.42090625,0.7510251402854919,0.22659775614738464,-0.35770028829574585,0.6605138778686523,0.6622212529182434,-0.3538145422935486,-0.0036992430686950684,0.10962951183319092,0.07901909947395325,0.7440678443554017,-0.5352602293807269,0.19128308047689876,0.35109903625463984
1729786379223937000,3.43093701171875,0.6920287013053894,0.25272950530052185,-0.385294109582901,0.6589117050170898,0.6620942950248718,-0.35702455043792725,-0.021323204040527344,0.17457568645477295,0.1807093322277069,0.7464346333580464,-0.5333299951503105,0.19247556663000784,0.34834983270389347
1729786379233968000,3.440968017578125,0.7409445643424988,0.3364562392234802,-0.3648069500923157,0.6574923396110535,0.6620661020278931,-0.35968372225761414,0.005883514881134033,0.12492126226425171,0.1443365216255188,0.7486551724888636,-0.5316019225351012,0.19379768107581838,0.3454813340878273
1729786379243999000,3.4509990234375,0.9305762648582458,0.391761839389801,-0.3271905779838562,0.6565572023391724,0.6612859964370728,-0.36281338334083557,0.04856669902801514,0.01615852117538452,0.07831335067749023,0.7511145344529836,-0.529421554062034,0.19571950468608929,0.3423941613483728
1729786379254029000,3.461029052734375,0.8301551342010498,0.3487813472747803,-0.31137460470199585,0.6558199524879456,0.6600903868675232,-0.36630719900131226,0.05691808462142944,-0.05028808116912842,0.05052667856216431,0.7536773394226144,-0.52697846409972,0.1978385516242012,0.3392995520009633
1729786379264060000,3.471059814453125,0.5726535320281982,0.29988062381744385,-0.2325940579175949,0.655242383480072,0.6592645049095154,-0.3688196539878845,0.06366026401519775,-0.03107529878616333,0.07017475366592407,0.755665994061265,-0.5251351853469646,0.19955751955966727,0.3367177737976556
1729786379274091000,3.481091064453125,0.15058209002017975,0.26555079221725464,-0.20211924612522125,0.6549085378646851,0.6592812538146973,-0.36938220262527466,0.08740103244781494,-0.11231458187103271,0.006574094295501709,0.7567078595164185,-0.5244263303163575,0.2007135210251344,0.3347901695432119
1729786379284122000,3.4911220703125,-0.2724333703517914,0.23530739545822144,-0.17759472131729126,0.6546342372894287,0.6607992053031921,-0.3671492338180542,0.08444046974182129,-0.19388020038604736,0.006553620100021362,0.7565543658345122,-0.5253481201086686,0.201083908823396,0.3334668761296642
1729786379294153000,3.501153076171875,-0.4557182192802429,0.1113576591014862,-0.14944963157176971,0.6542013883590698,0.6632442474365234,-0.36349382996559143,0.07342922687530518,-0.1741236448287964,0.043639183044433594,0.7556482088691269,-0.5272371703956111,0.20068396201747554,0.3327804496416221
1729786379304184000,3.51118408203125,-0.5589817762374878,0.07392586767673492,-0.14985284209251404,0.6535744071006775,0.6660109162330627,-0.3595412075519562,0.08287572860717773,-0.12703996896743774,0.0060867369174957275,0.7544636294546607,-0.529438552699517,0.19981043327548992,0.3324984662022758
1729786379314215000,3.52121484375,-0.6632850766181946,0.08619339764118195,-0.16478252410888672,0.6528871655464172,0.6692655086517334,-0.3547140657901764,0.062246501445770264,-0.06011933088302612,0.025948286056518555,0.7529527290374958,-0.5321238884531749,0.19871370913554218,0.3322939655159053
1729786379324246000,3.53124609375,-0.6071293950080872,0.07725609838962555,-0.16595058143138885,0.6520123481750488,0.6726091504096985,-0.34996703267097473,0.03242063522338867,-0.015321493148803711,0.0901709794998169,0.7514602320198588,-0.5348078295096579,0.19747674881686075,0.33210107410349426
1729786379334276900,3.54127685546875,-0.6042089462280273,0.11499873548746109,-0.14719447493553162,0.6513651013374329,0.6757333278656006,-0.34512022137641907,0.017137646675109863,0.02415686845779419,0.04293528199195862,0.7499519711778005,-0.5374468563908187,0.19644532907533557,0.33186164798666046
1729786379344307000,3.551306884765625,-0.5460502505302429,0.11629994958639145,-0.15560047328472137,0.6507638692855835,0.6786636114120483,-0.3404737114906311,0.01949375867843628,0.05740523338317871,0.03957048058509827,0.7485420589369047,-0.5399325065472661,0.1955403722166131,0.3315446914839304
1729786379354338000,3.561338134765625,-0.4805324375629425,0.1051308661699295,-0.14168785512447357,0.6501535773277283,0.6814000606536865,-0.3361465036869049,0.047722458839416504,0.05556905269622803,0.04209446907043457,0.7472448179897845,-0.5422372489748785,0.19469337211055474,0.3312077333530118
1729786379364369000,3.571368896484375,-0.32692238688468933,0.11352409422397614,-0.13668110966682434,0.6496094465255737,0.6836249232292175,-0.33266276121139526,0.06532585620880127,0.08454835414886475,-0.012643516063690186,0.7462574991098084,-0.5440637459033701,0.19407023805102322,0.33080382101440053
1729786379374399200,3.581399169921875,-0.17502903938293457,0.13862966001033783,-0.1550004631280899,0.6490291953086853,0.6854134798049927,-0.33010539412498474,0.024997293949127197,0.0696524977684021,-0.09253242611885071,0.7456831516880337,-0.5453615942052941,0.19372154630342295,0.3301657226492529
1729786379384430000,3.59143017578125,0.07297969609498978,0.2270737737417221,-0.09754994511604309,0.6487540602684021,0.6864659190177917,-0.3284552991390228,-0.0178336501121521,0.07450520992279053,-0.12990334630012512,0.7455362889796868,-0.5460366320680966,0.1939493301222092,0.329246690424172
1729786379394461200,3.601461181640625,0.40093785524368286,0.2405409961938858,-0.05231216177344322,0.6491060853004456,0.6860803961753845,-0.3285650908946991,-0.04813867807388306,0.08166563510894775,-0.19943466782569885,0.7460824590911057,-0.5455797528705324,0.19509021743657745,0.328090717153607
1729786379404492000,3.611491943359375,0.5894657373428345,0.20079278945922852,-0.09968607127666473,0.649344801902771,0.6848981380462646,-0.33055421710014343,-0.064872145652771,0.0687946081161499,-0.2090880274772644,0.7473491665253865,-0.544143435973401,0.19654723440668623,0.3267208374631981
1729786379414523100,3.621523193359375,0.7707694172859192,0.21134358644485474,-0.13090604543685913,0.6492471694946289,0.6833858489990234,-0.33385899662971497,-0.043229103088378906,0.11046791076660156,-0.12062391638755798,0.749180387758872,-0.5420496629669179,0.19812284933761895,0.3250510651248834
1729786379424554000,3.631553955078125,0.8031638264656067,0.18609122931957245,-0.13696660101413727,0.649038553237915,0.681498646736145,-0.33809566497802734,-0.011923015117645264,0.09686750173568726,-0.0870903730392456,0.7513877112424528,-0.5394570076895042,0.19984568419271537,0.32320957688518076
1729786379434584000,3.641583984375,0.5190134644508362,0.17070189118385315,-0.15846550464630127,0.6486645340919495,0.6801698207855225,-0.3414725363254547,0.026338517665863037,-0.00562441349029541,-0.06869888305664062,0.7532427822746036,-0.5373781030558149,0.20121757723260897,0.32149912248687906
1729786379444615200,3.651615234375,0.15172338485717773,0.16251187026500702,-0.1584034562110901,0.6481249332427979,0.6800575852394104,-0.3427184820175171,0.03398871421813965,-0.06273269653320312,0.027929723262786865,0.7542518900408457,-0.536522596724741,0.20195114927840516,0.3200991787433769
1729786379454646000,3.66164599609375,-0.20309676229953766,0.15726783871650696,-0.1044137105345726,0.6479994654655457,0.6809042692184448,-0.34127146005630493,-0.004780471324920654,-0.08727622032165527,0.06760519742965698,0.7541207742850722,-0.537083797857513,0.20225050800293692,0.3192768538966782
1729786379464677000,3.671677001953125,-0.11309389770030975,0.26922500133514404,-0.07189811766147614,0.6479848027229309,0.6822016835212708,-0.3386983871459961,-0.011250793933868408,-0.04243111610412598,0.020201772451400757,0.7536136083840977,-0.5381889231051735,0.20249320106717447,0.31845835577030684
1729786379474708000,3.6817080078125,0.05142839998006821,0.22954651713371277,-0.02263682708144188,0.6486252546310425,0.6825209259986877,-0.33682456612586975,-0.0687759518623352,-0.008250117301940918,-0.044721394777297974,0.7533220706009629,-0.5387474530029193,0.20331967898855005,0.317676534854025
1729786379484739000,3.691739013671875,0.23663420975208282,0.11960269510746002,-0.08342453837394714,0.6490557789802551,0.6822690367698669,-0.3365052044391632,-0.02523064613342285,0.1403629183769226,-0.11301866173744202,0.7535459665405364,-0.5385704651319881,0.20417946629132788,0.31689313039497813
1729786379494770200,3.701770263671875,0.5375223159790039,0.13436774909496307,-0.026035286486148834,0.6489758491516113,0.6813908219337463,-0.3384334146976471,-0.03578615188598633,0.2429715394973755,-0.14282870292663574,0.754614010939423,-0.5373293837768819,0.20508638839750648,0.3158711970075448
1729786379504801000,3.711801025390625,0.6007508635520935,0.14642706513404846,0.017484229058027267,0.6494749188423157,0.6793902516365051,-0.3414842486381531,-0.0486447811126709,0.19228345155715942,-0.10898560285568237,0.7560130816088543,-0.535356741787225,0.20652125819730024,0.3149389172033592
1729786379514832100,3.72183203125,0.633198082447052,0.13021619617938995,0.03698256239295006,0.6501980423927307,0.6770890951156616,-0.3446633517742157,-0.013326764106750488,0.15752094984054565,-0.03254905343055725,0.7574494864145247,-0.5332406348355619,0.20814117292197362,0.31400943945809834
1729786379524862000,3.731862060546875,0.658750057220459,0.0836058184504509,0.04561759531497955,0.6508692502975464,0.6745292544364929,-0.3483957052230835,-0.018545031547546387,0.10234153270721436,0.017158061265945435,0.7590076736802316,-0.530880146486523,0.2096864650582322,0.3132175490735614
1729786379534893000,3.74189306640625,0.5460050106048584,0.0920112356543541,0.05174979194998741,0.6515164971351624,0.6720736026763916,-0.3519138991832733,0.015628278255462646,0.043838322162628174,0.014328539371490479,0.7604477845832387,-0.5286553342543624,0.21110798525914817,0.31253189050998303
1729786379544924000,3.751923828125,0.4378434121608734,0.12272466719150543,0.07238822430372238,0.6523450613021851,0.6699337959289551,-0.35444995760917664,0.020582854747772217,-0.019955039024353027,0.0722845196723938,0.7615069531262518,-0.5269139008888473,0.2124541464016592,0.3119811778549993
1729786379554955000,3.761955078125,0.2696450352668762,0.15176618099212646,0.1062239482998848,0.6534546613693237,0.6680448055267334,-0.35596805810928345,0.018359363079071045,-0.06916779279708862,0.0827290415763855,0.7621801017128049,-0.5256440069379721,0.21380914352937103,0.3115535506794448
1729786379564986000,3.771986083984375,0.18279801309108734,0.1033613532781601,0.1209925040602684,0.6547625064849854,0.666477620601654,-0.35650190711021423,0.016807258129119873,-0.05969655513763428,0.047297924757003784,0.7624058397655887,-0.5249080334739896,0.21498977017777782,0.31142939930494973
1729786379575017000,3.782016845703125,0.04933655261993408,0.07135719060897827,0.11363712698221207,0.6558563709259033,0.665256679058075,-0.3567720055580139,0.022991955280303955,-0.10263454914093018,0.02258932590484619,0.7624534941096459,-0.5244403103325226,0.21581557285664377,0.3115298933419672
1729786379585048000,3.792048095703125,-0.08773501217365265,0.0658484473824501,0.11028847098350525,0.6568877100944519,0.6645940542221069,-0.3561088442802429,0.009692490100860596,-0.13389325141906738,0.011336565017700195,0.7621251696200428,-0.524531552083999,0.21636135378104124,0.31180094602659697
1729786379595079200,3.8020791015625,-0.21643880009651184,0.0419318750500679,0.10389687865972519,0.6578210592269897,0.6644159555435181,-0.35471540689468384,0.018234848976135254,-0.10936218500137329,0.0345403254032135,0.7614899158863845,-0.5250851289705443,0.21662849417732727,0.31223528629045094
1729786379605110300,3.8121103515625,-0.345390647649765,0.04188074171543121,0.06493563205003738,0.6585608124732971,0.6648573875427246,-0.3525085747241974,0.04195493459701538,-0.09861892461776733,0.04158034920692444,0.7605497634022982,-0.5261542315084683,0.2165812626352333,0.312759183292656
1729786379615141000,3.82214111328125,-0.3836897611618042,0.08184093981981277,0.08687236160039902,0.659235417842865,0.6656870245933533,-0.3496704697608948,0.05391460657119751,-0.082450270652771,0.07052624225616455,0.7594087136883204,-0.527567696193024,0.21641879513336298,0.31326291403413437
1729786379625171200,3.832171142578125,-0.2705208659172058,0.062395866960287094,0.12991861999034882,0.6604763269424438,0.6659960746765137,-0.3467283248901367,0.04664647579193115,-0.06360948085784912,0.056857168674468994,0.7581720800775796,-0.5288887833156827,0.21659293048245948,0.3139099619979702
1729786379635202000,3.8422021484375,0.06023813784122467,0.16191186010837555,-0.03004946932196617,0.6610868573188782,0.6660863161087036,-0.345388799905777,0.08602923154830933,0.0076808929443359375,-0.05054616928100586,0.7577181002956529,-0.5293983247796039,0.21689402961328652,0.31393922545735425
1729786379645233200,3.852233154296875,0.33321693539619446,0.23319029808044434,0.01222874503582716,0.6617243885993958,0.665496289730072,-0.3453052341938019,-0.005581200122833252,0.04715031385421753,-0.11274826526641846,0.758040748584641,-0.5289908704885183,0.2179817530346849,0.3130926396331396
1729786379655264300,3.86226416015625,0.6654424071311951,0.26150813698768616,0.03881508484482765,0.6628434658050537,0.6635910272598267,-0.3468221127986908,-0.06126570701599121,0.11192178726196289,-0.012430727481842041,0.7589840887782295,-0.5275181077349911,0.2198035133419849,0.312016530916135
1729786379665295000,3.872295166015625,0.751960277557373,0.17584887146949768,-0.048176273703575134,0.6636372804641724,0.6610315442085266,-0.350175678730011,-0.007845044136047363,0.16584229469299316,-0.02096378803253174,0.7606756168432799,-0.5250750854680196,0.22182947726294333,0.31058103959540834
1729786379675326200,3.882326171875,0.477431982755661,0.08545409888029099,0.007455828599631786,0.6641355156898499,0.6588843464851379,-0.35326430201530457,0.012134015560150146,0.15079283714294434,-0.04672950506210327,0.7621381270042751,-0.5229557075003076,0.2233498815408125,0.3094799437316931
1729786379685357000,3.892357177734375,0.2632882595062256,0.12524598836898804,-0.08219682425260544,0.6640831828117371,0.6579179763793945,-0.3551586866378784,0.04401618242263794,-0.00803077220916748,-0.02298450469970703,0.763101571152718,-0.5217229090054414,0.22411127389058036,0.3086349765847885
1729786379695388200,3.90238818359375,0.13012154400348663,0.07432134449481964,0.009518980048596859,0.6643275618553162,0.6574499011039734,-0.35556820034980774,-0.03293406963348389,-0.2142888307571411,0.0390857458114624,0.7634693236695493,-0.5212523789931371,0.22474843090743973,0.30805660659008777
1729786379705419000,3.9124189453125,-0.05534844845533371,0.04942239075899124,0.013139546848833561,0.6646649837493896,0.657188892364502,-0.35541975498199463,-0.02587103843688965,-0.17952775955200195,0.05181577801704407,0.7635074458864588,-0.5211521724317091,0.22514557767944807,0.3078412968450407
1729786379715449000,3.922448974609375,-0.1408008188009262,0.0015569678507745266,0.03139498457312584,0.6649190187454224,0.6574398875236511,-0.35447958111763,-0.021776258945465088,-0.0830683708190918,0.022173762321472168,0.7631256922461866,-0.5216176524810345,0.22511158788714786,0.30802458083549594
1729786379725480200,3.932480224609375,0.03438909724354744,0.019656609743833542,-0.003037824761122465,0.6650434732437134,0.6575981974601746,-0.3539518415927887,-0.02017652988433838,-0.07333910465240479,0.026635676622390747,0.7629109408334783,-0.521885131450673,0.225077726443126,0.30812808579219014
1729786379735511000,3.942510986328125,0.41434696316719055,0.06479191780090332,-0.03718327730894089,0.6651135087013245,0.6569225192070007,-0.35507315397262573,-0.04824644327163696,-0.07418930530548096,0.009110718965530396,0.7634470621300247,-0.5211433143160225,0.2255505882953121,0.30770962755069803
1729786379745542100,3.952542236328125,0.6686378121376038,0.11045021563768387,-0.0926569253206253,0.6650107502937317,0.6553888320922852,-0.3580867648124695,-0.06416541337966919,0.01477724313735962,-0.015051573514938354,0.7648840655483111,-0.5192453956658509,0.22658517777576678,0.3065871591563833
1729786379755573000,3.962572998046875,0.8103953003883362,0.08922785520553589,-0.10187172889709473,0.664796769618988,0.6533287763595581,-0.3622250556945801,-0.08287227153778076,0.08132100105285645,0.03948652744293213,0.7668282147886757,-0.5166705229213974,0.22790137638511543,0.3051019440877904
1729786379765604000,3.97260400390625,0.7642804980278015,0.06667913496494293,-0.11807546019554138,0.664361834526062,0.6511046886444092,-0.36699602007865906,-0.03949916362762451,0.0716431736946106,0.06285792589187622,0.7689987965760098,-0.5137993641596752,0.22915542150853563,0.30354392371596023
1729786379775635000,3.982635009765625,0.4246523082256317,0.03500024974346161,-0.1134684607386589,0.6638028621673584,0.6496437191963196,-0.37057915329933167,0.0221102237701416,-0.05111759901046753,0.05501222610473633,0.7706600182947354,-0.5116875145042147,0.22997023477216155,0.3022793714888371
1729786379785666000,3.992666015625,0.08159695565700531,-0.002026742324233055,-0.06621918827295303,0.663336992263794,0.649326741695404,-0.3719664514064789,0.05579453706741333,-0.20952260494232178,0.12385863065719604,0.7713823145363663,-0.5108948477120231,0.23022430908817842,0.3015836445919994
1729786379795697000,4.00269677734375,-0.13859739899635315,-0.0384427011013031,-0.06302739679813385,0.662878692150116,0.6498668789863586,-0.3718399405479431,0.07923257350921631,-0.28847765922546387,0.12463241815567017,0.7713989161618826,-0.5110815871033138,0.22994704027278495,0.3014360974519718
1729786379805727000,4.01272705078125,-0.2378976196050644,-0.047924354672431946,-0.06498987972736359,0.6623094081878662,0.6510002613067627,-0.37087053060531616,0.10241532325744629,-0.24433821439743042,0.09168055653572083,0.7710512620128608,-0.5118317873436489,0.2293315532532591,0.30152156863336493
1729786379815758000,4.022758056640625,-0.31541717052459717,-0.06597968190908432,-0.07326671481132507,0.6616900563240051,0.6524699926376343,-0.3693903088569641,0.0904461145401001,-0.120472252368927,0.06686964631080627,0.7704866609440305,-0.5129115160574914,0.22853146078383962,0.3017374059912181
1729786379825789000,4.032788818359375,-0.401125431060791,-0.09252127259969711,-0.07796745747327805,0.6609019637107849,0.6543127298355103,-0.36753731966018677,0.08076673746109009,-0.030304431915283203,0.04789626598358154,0.7697677854773386,-0.5142715856687029,0.22749962618270445,0.30203712587965376
1729786379835820000,4.042820068359375,-0.505932092666626,-0.12296600639820099,-0.08551459014415741,0.6599963307380676,0.6564921736717224,-0.3652711808681488,0.07068610191345215,-0.010663807392120361,0.05908840894699097,0.7688419451627322,-0.5159414882693484,0.22620520473928488,0.3025190097426274
1729786379845851100,4.05285107421875,-0.6943424940109253,-0.14567610621452332,-0.078511543571949,0.6589760184288025,0.6592193245887756,-0.36218851804733276,0.06946331262588501,-0.02684926986694336,0.07118821144104004,0.7675624172974064,-0.5181415749988633,0.2245775016722136,0.30321977908121395
1729786379855882200,4.06288232421875,-0.8926790356636047,-0.14715784788131714,-0.03508630394935608,0.6580817699432373,0.6624722480773926,-0.3578536808490753,0.049987196922302246,-0.06368666887283325,0.07315525412559509,0.7657225766498599,-0.5210585698177325,0.22264575274975804,0.3042959178918157
1729786379865913000,4.0729130859375,-0.9170552492141724,-0.10207611322402954,-0.00789729505777359,0.6575188040733337,0.6658708453178406,-0.3525408208370209,0.042569637298583984,-0.1471329927444458,0.056261032819747925,0.7634704824121389,-0.5244216849987653,0.22070677878923295,0.30558670231186014
1729786379875944200,4.082944091796875,-0.4966300427913666,0.012760086916387081,0.022170860320329666,0.657403290271759,0.6684222221374512,-0.34789738059043884,0.015082001686096191,-0.1996416449546814,0.0006990134716033936,0.7615604322131164,-0.5271710742359956,0.21941277258035086,0.3065524194080153
1729786379885975000,4.09297509765625,0.05518864840269089,0.04322291910648346,0.011660960502922535,0.6576700806617737,0.6690270900726318,-0.3462265431880951,-0.023820042610168457,-0.12441033124923706,-0.08495619893074036,0.7609238299798278,-0.5280184723441042,0.21927886489991438,0.3067705896970225
1729786379896006100,4.103006103515625,0.4902969002723694,0.03634142130613327,-0.0016697589308023453,0.6578984260559082,0.6679885387420654,-0.3477947413921356,-0.0453801155090332,0.07990586757659912,-0.14181393384933472,0.7615979120679617,-0.5270110323313161,0.21991360627855613,0.30637587600673905
1729786379906036200,4.1130361328125,0.6500167846679688,0.01364382915198803,-0.020152628421783447,0.6579200029373169,0.6659675240516663,-0.35160887241363525,-0.02956300973892212,0.22560358047485352,-0.10481196641921997,0.7631538927989533,-0.5247864211210792,0.22089540240301547,0.30561538305877284
1729786379916067000,4.123067138671875,0.49824318289756775,0.01146259531378746,-0.0448574423789978,0.6577644944190979,0.6641114950180054,-0.35538962483406067,0.0041312575340271,0.1690947413444519,-0.06968960165977478,0.7647111001576086,-0.5226168212596071,0.22175854010732818,0.3048141860078189
