time,seconds_elapsed,rotationRateX,rotationRateY,rotationRateZ,gravityX,gravityY,gravityZ,accelerationX,accelerationY,accelerationZ,quaternionW,quaternionX,quaternionY,quaternionZ
1728329686911423700,0.152423828125,0.17223377525806427,-0.003395088016986847,0.008211314678192139,0.5418663620948792,0.17071533203125,-0.822944164276123,0.0005224347114562988,0.05274958908557892,-0.02042442560195923,0.9547104129709014,-0.08940686636126599,0.2837857329256697,1.4109537345672213e-17
1728329686921454600,0.16245458984375,0.10963111370801926,-0.002606526017189026,0.004274098668247461,0.5420367121696472,0.16897648572921753,-0.8231908082962036,-0.002623319625854492,0.020964905619621277,-0.0029047727584838867,0.954775025533847,-0.08846012808141328,0.28386509264885845,-0.00010117571471411223
1728329686931486700,0.17248681640625,-0.006156736984848976,-0.003946362063288689,0.005075444001704454,0.5423066020011902,0.1678560972213745,-0.8232423067092896,-0.006952047348022461,-0.015848085284233093,0.020523130893707275,0.9547885192029524,-0.08788852716161004,0.28399729215034997,-0.000046111093837289975
1728329686941517600,0.182517578125,-0.10822491347789764,-0.010366976261138916,0.0017353068105876446,0.5424568057060242,0.16761153936386108,-0.8231931328773499,-0.00862818956375122,-0.037499889731407166,0.033566057682037354,0.9547755784954256,-0.08782649256352856,0.28405974778321225,0.000171860022063475
1728329686951548700,0.192548583984375,-0.19190755486488342,-0.018742084503173828,0.017998166382312775,0.542355477809906,0.16822881996631622,-0.8231340050697327,-0.007092535495758057,-0.04588387906551361,0.035872042179107666,0.9547600674129365,-0.08825557108305822,0.28397877581977066,0.0005228862601255817
1728329686961579500,0.20257958984375,-0.23128193616867065,-0.01901783049106598,0.02349706180393696,0.5421138405799866,0.16967253386974335,-0.8229968547821045,-0.006072700023651123,-0.04088839888572693,0.026533782482147217,0.9547238422939636,-0.08914520158548633,0.2838216053200189,0.0009610944799653675
1728329686971611000,0.21261083984375,-0.2345626801252365,-0.028979916125535965,0.019917240366339684,0.5417737364768982,0.1717594414949417,-0.822787880897522,-0.004206657409667969,-0.0275333970785141,0.018664956092834473,0.9546686138075647,-0.09036336886534027,0.28362036434120724,0.0013657274690801748
1728329686981641700,0.222641845703125,-0.15937118232250214,-0.02259536273777485,-0.006156438030302525,0.5413175821304321,0.17391225695610046,-0.8226358890533447,-0.00629878044128418,-0.01856255531311035,0.013019740581512451,0.9546283354840082,-0.09156968886080469,0.2833673599237665,0.0016194144525985047
1728329686991672800,0.2326728515625,-0.039822157472372055,-0.008856114000082016,-0.02096601016819477,0.5410158634185791,0.17533089220523834,-0.8225331902503967,-0.005600333213806152,-0.003272831439971924,0.0039907097816467285,0.9546013403520757,-0.09231784404765404,0.2832151535099974,0.00162876298014035
1728329687001704700,0.24270458984375,0.10288446396589279,0.013030809350311756,-0.015071103349328041,0.5409611463546753,0.17532628774642944,-0.8225702047348022,-0.005057334899902344,0.026440635323524475,-0.015762925148010254,0.9546114376499063,-0.09226800211112993,0.283198711111209,0.001472285556574147
1728329687011735600,0.252735595703125,0.2118101567029953,0.02499053254723549,-0.01602131873369217,0.5411751866340637,0.17384697496891022,-0.8227433562278748,0.0013509392738342285,0.0561029314994812,-0.015391409397125244,0.9546570903024674,-0.09140563987700433,0.2833254895317336,0.0011914005473821594
1728329687021766700,0.2627666015625,0.22757086157798767,0.032200030982494354,-0.027427371591329575,0.5415313243865967,0.17164885997772217,-0.822970449924469,0.0043822526931762695,0.06173427402973175,-0.014630258083343506,0.9547169205160386,-0.09013895294674905,0.2835308260542817,0.0008209176661752082
1728329687031797800,0.2727978515625,0.16214019060134888,0.02513439767062664,-0.022487208247184753,0.5419549345970154,0.16953279078006744,-0.8231303095817566,0.004080772399902344,0.04175563156604767,-0.0018514394760131836,0.9547590591331806,-0.08893092170572654,0.28377129383892286,0.0004976088896767169
1728329687041828600,0.28282861328125,0.04729729890823364,0.01970788650214672,-0.023214783519506454,0.5422771573066711,0.16822920739650726,-0.8231855034828186,0.0031633973121643066,0.015288203954696655,0.018177509307861328,0.9547735430644395,-0.08819251285806914,0.28395305061573367,0.00031440435953103776
1728329687051859700,0.292859619140625,-0.07613702118396759,0.013311506249010563,-0.024666206911206245,0.5424657464027405,0.16817449033260345,-0.8230724334716797,0.003310561180114746,-0.014228597283363342,0.026807785034179688,0.9547440326373253,-0.08814976929311007,0.2840658187098108,0.0002577567056000233
1728329687061891800,0.302891845703125,-0.15902724862098694,0.004148316569626331,-0.028165601193904877,0.5425246953964233,0.1691485196352005,-0.8228339552879333,-0.006163120269775391,-0.03685486316680908,0.02696603536605835,0.9546815524303537,-0.08868558326261038,0.2841089211383771,0.00032464006688465017
1728329687071922700,0.312922607421875,-0.1808081716299057,-0.0008962433785200119,-0.018326018005609512,0.5424584746360779,0.17077471315860748,-0.8225416541099548,-0.009377479553222656,-0.037229835987091064,0.026338040828704834,0.9546050003699015,-0.08958343031897703,0.28408443837622976,0.00045560780891453493
1728329687081953800,0.322953857421875,-0.11220241338014603,0.004273377358913422,-0.03022608906030655,0.5422265529632568,0.17256970703601837,-0.8223198652267456,-0.012060046195983887,-0.018974781036376953,0.013314127922058105,0.954546769392423,-0.09053954078516223,0.2839764995192871,0.0004907829585894744
1728329687091984600,0.332984619140625,-0.0073652127757668495,0.020966071635484695,-0.04249473661184311,0.5420721173286438,0.17412753403186798,-0.8220933079719543,-0.013843417167663574,0.0019436031579971313,-0.00848841667175293,0.9544875842491415,-0.09129414003698799,0.28393435422561886,0.00026539739572610245
1728329687102015700,0.343015625,0.10206993669271469,0.03779112547636032,-0.03678518533706665,0.542096734046936,0.17481498420238495,-0.8219311237335205,-0.006299793720245361,0.033559009432792664,-0.022505521774291992,0.9544450866817875,-0.0915407711943184,0.2839977512467347,-0.0001297582172492245
1728329687112046600,0.353046630859375,0.15081384778022766,0.04418355971574783,-0.036868009716272354,0.5423514246940613,0.17445255815982819,-0.8218401074409485,0.00492018461227417,0.05912892520427704,-0.017408549785614014,0.9544210716421391,-0.09121630853292254,0.2841822014622961,-0.0005894643749485464
1728329687122077700,0.36307763671875,0.1116374060511589,0.04047617316246033,-0.04220312088727951,0.5427590608596802,0.1737295240163803,-0.8217241764068604,0.00017905235290527344,0.043509796261787415,-0.012061834335327148,0.9543903523164031,-0.09071416799217549,0.28444482219150363,-0.001012630137291931
1728329687132109600,0.373109619140625,0.020749244838953018,0.03686460852622986,-0.0517532154917717,0.5432500243186951,0.17314527928829193,-0.8215230107307434,-0.0017615556716918945,0.007167786359786987,0.009602844715118408,0.9543373655598653,-0.09032662918963048,0.2847447672921479,-0.0013013750248641112
1728329687142140700,0.383140625,-0.04977285861968994,0.02893478237092495,-0.04972122609615326,0.5436025857925415,0.17294442653656006,-0.8213321566581726,-0.0029074549674987793,-0.02963392436504364,0.029355168342590332,0.954287158473337,-0.0901837162828824,0.28495759771014273,-0.0014425081444775743
1728329687152171500,0.393171630859375,-0.06014879792928696,0.02388676069676876,-0.048612285405397415,0.5438427329063416,0.17317983508110046,-0.821123480796814,-0.0065198540687561035,-0.04039791226387024,0.02102881669998169,0.9542323162868803,-0.09028558492392827,0.28510835436733045,-0.0015309908762496855
1728329687162202600,0.40320263671875,-0.027078531682491302,0.018324002623558044,-0.0440598763525486,0.5438921451568604,0.17358897626399994,-0.8210043907165527,-0.0025256872177124023,-0.01649978756904602,-0.002420961856842041,0.9542009623702872,-0.0904643470953616,0.285156120663246,-0.0016598684815749799
1728329687172233500,0.4132333984375,0.027302153408527374,0.02642960101366043,-0.03757881000638008,0.5437504053115845,0.17385649681091309,-0.8210417032241821,0.008999168872833252,0.012743204832077026,-0.015933454036712646,0.9542103075939035,-0.09053617334137133,0.28510062091146504,-0.0018859847919006666
1728329687182264600,0.4232646484375,0.04796428978443146,0.019650258123874664,-0.026584215462207794,0.5435450077056885,0.1742858737707138,-0.8210866451263428,0.010043799877166748,0.025283798575401306,-0.022403955459594727,0.954221421209796,-0.09066507450892823,0.2850202024005709,-0.0022046782403396495
1728329687192295700,0.433295654296875,0.05080055817961693,0.025847965851426125,-0.02035481482744217,0.5434799790382385,0.17508503794670105,-0.8209596872329712,0.0121077299118042,0.017740249633789062,-0.008569180965423584,0.9541872155101107,-0.09098094212643382,0.28503094396229905,-0.0025599505028498005
1728329687202327800,0.443327880859375,0.02911004051566124,0.02677575685083866,-0.023952214047312737,0.5434698462486267,0.175638809800148,-0.8208480477333069,0.005617618560791016,-0.007151305675506592,0.0019698143005371094,0.9541570518968215,-0.09118298150751897,0.28506428708808684,-0.002864335225407388
1728329687212358700,0.453358642578125,-0.011266677640378475,0.017826735973358154,-0.01502929162234068,0.5436506867408752,0.17580872774124146,-0.8206918835639954,-0.00005644559860229492,-0.01873481273651123,0.010816395282745361,0.954115717845548,-0.09123545182536105,0.28518440149446705,-0.0029987097895787054
1728329687222389800,0.4633896484375,-0.04238085448741913,0.014156315475702286,-0.004391028545796871,0.5440729260444641,0.17546245455741882,-0.8204862475395203,0.004602551460266113,-0.01851058006286621,0.015066266059875488,0.9540622449097304,-0.09108484039835398,0.2854127497617566,-0.0029102474954204286
1728329687232420600,0.473420654296875,-0.06751204282045364,0.005784934852272272,-0.00022584479302167892,0.544349193572998,0.17498299479484558,-0.8204053044319153,0.0016711950302124023,-0.02567577362060547,0.009522676467895508,0.9540415247610841,-0.09090046695596919,0.28554240060076347,-0.002691995437153455
1728329687242451700,0.48345166015625,-0.07098940014839172,0.0007352093234658241,0.004042403306812048,0.5443398952484131,0.17512542009353638,-0.8203810453414917,-0.0007303953170776367,-0.025558799505233765,0.0022505521774291992,0.9540356749853113,-0.0910247115271558,0.28552401867108335,-0.002528298768201385
1728329687252482600,0.493482666015625,-0.06747295707464218,-0.000559619627892971,0.022207558155059814,0.54430091381073,0.17580606043338776,-0.8202613592147827,0.004099905490875244,-0.014307096600532532,-0.003636956214904785,0.9540046142659584,-0.09142406052801444,0.28550123374441844,-0.0023959876048163663
1728329687262513700,0.503513671875,-0.048241470009088516,-0.002868102863430977,0.014323269948363304,0.5441796779632568,0.17664043605327606,-0.8201625347137451,0.012613415718078613,-0.010304421186447144,-0.0010502338409423828,0.9539789891230026,-0.09189724593367582,0.2854358584101021,-0.0022848535203626877
1728329687272545500,0.513545654296875,-0.0165083110332489,-0.0004358375445008278,0.0035904650576412678,0.5442698001861572,0.1773752123117447,-0.8199441432952881,0.006602883338928223,-0.01566261053085327,-0.00953894853591919,0.9539218085687381,-0.09229350888801922,0.2854993004330259,-0.0022655598769347647
1728329687282576600,0.52357666015625,0.017283674329519272,0.003409980796277523,0.019787011668086052,0.5444784760475159,0.1769271045923233,-0.8199024200439453,0.0025490522384643555,-0.001786753535270691,-0.009626448154449463,0.9539111512384086,-0.09209150510449819,0.28560101610160465,-0.002158392769151701
1728329687292607700,0.533607666015625,0.026383429765701294,0.010927285999059677,0.030075600370764732,0.5447967648506165,0.17586098611354828,-0.8199203610420227,0.01027214527130127,0.00970110297203064,-0.00422215461730957,0.9539163174416438,-0.09159134964694247,0.28574610912817605,-0.0019598199526807184
1728329687302638800,0.543638916015625,-0.008424218744039536,0.004474871791899204,0.03367087244987488,0.5453368425369263,0.17491759359836578,-0.8197631239891052,0.008618175983428955,0.0006347447633743286,0.0024870634078979492,0.9538756066236194,-0.09117551771213137,0.28601655158362316,-0.0017086244676564216
1728329687312669700,0.553669677734375,-0.08899255841970444,0.0003301938995718956,0.03861662745475769,0.5456964373588562,0.17418989539146423,-0.819678783416748,0.007266700267791748,-0.020671263337135315,0.0077738165855407715,0.9538541371744407,-0.09091015134472451,0.2861746960752525,-0.0013276038578488227
1728329687322700800,0.56370068359375,-0.17433655261993408,-0.00774216465651989,0.05400730296969414,0.5457963347434998,0.17410212755203247,-0.8196309208869934,0.006037712097167969,-0.04174743592739105,0.018895387649536133,0.9538421397765943,-0.09102568940742735,0.2861797953651687,-0.0007929466062018547
1728329687332732700,0.573732666015625,-0.25285667181015015,-0.013135598972439766,0.06266869604587555,0.5458441972732544,0.17502637207508087,-0.8194021582603455,0.006172895431518555,-0.05808304250240326,0.023747801780700684,0.9537824979589825,-0.09171560556438045,0.2861593606401863,-0.00012737728553552767
1728329687342763800,0.583763671875,-0.318715900182724,-0.0158043522387743,0.08215317875146866,0.5460988283157349,0.1766432821750641,-0.8188853859901428,0.0032632946968078613,-0.06302636861801147,0.022284984588623047,0.9536468408434541,-0.092823361174883,0.28625362251333514,0.0006954173063926431
1728329687352794600,0.593794677734375,-0.38796180486679077,-0.01261761412024498,0.11701742559671402,0.5461674928665161,0.1784144937992096,-0.8184554576873779,0.003408193588256836,-0.062112048268318176,0.026951491832733154,0.9535327139224038,-0.09408484530337731,0.28621725068202547,0.001766945020794819
1728329687362825700,0.60382568359375,-0.4661484956741333,-0.006204776465892792,0.1502281129360199,0.5462272763252258,0.18099920451641083,-0.8178477883338928,0.008032917976379395,-0.06895396113395691,0.03266096115112305,0.9533700528875166,-0.09583883350110446,0.28616608812366096,0.0030411480842503454
1728329687372856600,0.613856689453125,-0.5787203311920166,-0.006223950535058975,0.19287890195846558,0.5465439558029175,0.18436279892921448,-0.8168843388557434,0.009226799011230469,-0.08518072962760925,0.04340106248855591,0.9531111366834628,-0.09809979040202502,0.2862416176877466,0.0046066025705731465
1728329687382887700,0.6238876953125,-0.7434940934181213,0.013041249476373196,0.24003683030605316,0.5470607280731201,0.18839381635189056,-0.8156177401542664,0.012478947639465332,-0.10643893480300903,0.06084173917770386,0.9527670002928267,-0.1008561372503934,0.28638988209147476,0.006618556030384281
1728329687392918500,0.63391845703125,-0.9885376691818237,0.03817722946405411,0.3018357455730438,0.5478573441505432,0.1935703307390213,-0.813869059085846,0.006295979022979736,-0.14002728462219238,0.08115726709365845,0.9522867747711238,-0.10439950736797317,0.2866464886469309,0.009185893956593244
1728329687402950700,0.64395068359375,-1.3344814777374268,0.06405787914991379,0.4066289961338043,0.5489781498908997,0.201071634888649,-0.8112910389900208,0.0001703500747680664,-0.17934316396713257,0.10306960344314575,0.9515718763764623,-0.10942544436472748,0.2870201000468232,0.012509071212008456
1728329687412981800,0.653981689453125,-1.7707077264785767,0.08037985861301422,0.5370970368385315,0.5505613088607788,0.21104703843593597,-0.8076764941215515,0.004843235015869141,-0.22391024231910706,0.12766849994659424,0.9505529634580511,-0.11613980722587043,0.28752963279936644,0.01694961300016056
1728329687423012600,0.6640126953125,-2.3839519023895264,0.10932283103466034,0.6543421745300293,0.5526091456413269,0.2244073748588562,-0.8026608228683472,0.01088261604309082,-0.2773096561431885,0.14129912853240967,0.9491127488861237,-0.12511115303787812,0.28812631442887643,0.022701510344502202
1728329687433043700,0.674043701171875,-3.196348190307617,0.06323949247598648,0.8056507110595703,0.5550763010978699,0.24268221855163574,-0.795610249042511,0.02333855628967285,-0.31511572003364563,0.1839158535003662,0.947046978362041,-0.1373065065053209,0.28868981838326596,0.030117452805034448
1728329687443074800,0.68407470703125,-4.116281032562256,-0.0031735673546791077,0.9339690208435059,0.557532548904419,0.26677271723747253,-0.7861232161521912,0.0779958963394165,-0.3490481376647949,0.25534623861312866,0.9441919074402652,-0.1533641839898603,0.28882142651696985,0.03953608275294233
1728329687453105700,0.694105712890625,-5.073455810546875,-0.074526846408844,1.0239492654800415,0.5600094795227051,0.2972567677497864,-0.773322582244873,0.12489646673202515,-0.37614473700523376,0.30243629217147827,0.9402531454631705,-0.17366886943996346,0.2884056730048962,0.05084614043444647
1728329687463136800,0.70413671875,-5.9366865158081055,-0.1605944037437439,1.138988971710205,0.5625772476196289,0.3334970772266388,-0.7564961910247803,0.11535537242889404,-0.38504132628440857,0.3476369380950928,0.934960102708834,-0.19801838213966763,0.28729883417486635,0.0640126128616216
1728329687473168600,0.714168701171875,-6.638162136077881,-0.26594293117523193,1.1964434385299683,0.5651637315750122,0.374019056558609,-0.7353228330612183,0.10574990510940552,-0.397761732339859,0.355729877948761,0.9281479234773088,-0.22569634970592625,0.2853064029725295,0.07875768224314489
1728329687483199500,0.724199462890625,-7.116896629333496,-0.38151875138282776,1.240066647529602,0.5676608085632324,0.4170845150947571,-0.7097898721694946,0.0851711630821228,-0.38450703024864197,0.33675819635391235,0.919752183701142,-0.25577407760970183,0.2822847526766005,0.09460842311789487
1728329687493230600,0.734230712890625,-7.346869468688965,-0.5127745270729065,1.2246732711791992,0.5700236558914185,0.460511177778244,-0.6804428100585938,0.08418154716491699,-0.3236704170703888,0.29747772216796875,0.90988044907518,-0.28702478591285946,0.27820021793374533,0.11108059970780906
1728329687503261400,0.744261474609375,-7.255471706390381,-0.6755341291427612,1.1994878053665161,0.571881115436554,0.5024263262748718,-0.6484749913215637,0.06888115406036377,-0.23599261045455933,0.24349141120910645,0.8988653100234619,-0.3182205902568586,0.27294351180658044,0.12758792690400866
1728329687513292800,0.754292724609375,-6.814465045928955,-0.8303016424179077,1.2136597633361816,0.573441207408905,0.5402553677558899,-0.6158645749092102,0.07754433155059814,-0.11293309926986694,0.1523788571357727,0.88727310900834,-0.34768710394795993,0.2667984269713607,0.14380039624558236
1728329687523323600,0.76432373046875,-6.078286647796631,-0.9113593101501465,1.2340798377990723,0.574987530708313,0.5721247792243958,-0.5848612189292908,0.10407429933547974,0.006824195384979248,0.037543654441833496,0.8758118991986894,-0.3739652820657315,0.26022943061166504,0.1593242385277061
1728329687533355800,0.774355712890625,-5.209944725036621,-0.9643359780311584,1.2962007522583008,0.5770611763000488,0.5971798300743103,-0.5571146607398987,0.1177935004234314,0.1229129433631897,-0.0694570541381836,0.8650456194506984,-0.39621937454341655,0.2538757112625614,0.1739352438481294
1728329687543386600,0.78438671875,-4.264041423797607,-1.0036348104476929,1.3725000619888306,0.5798158049583435,0.6153433918952942,-0.5340093970298767,0.13936132192611694,0.20309221744537354,-0.1363549828529358,0.8554449334726392,-0.41408102805190444,0.24805683696541111,0.1876659928257631
1728329687553417700,0.794417724609375,-3.4033524990081787,-1.0370063781738281,1.3726779222488403,0.5830455422401428,0.6274710297584534,-0.5160793662071228,0.16216307878494263,0.23095792531967163,-0.18071329593658447,0.847277669743191,-0.42773787410737163,0.24290045979419878,0.20039992659331016
1728329687563448600,0.804448486328125,-2.7168097496032715,-1.09430992603302,1.3281205892562866,0.5861961841583252,0.6350986361503601,-0.5030147433280945,0.16444462537765503,0.2166469693183899,-0.1840428113937378,0.8405422196981985,-0.43790180532074924,0.23819035115370119,0.21212297263131633
1728329687573479700,0.814479736328125,-2.250958204269409,-1.1895503997802734,1.2626901865005493,0.588813304901123,0.6398183107376099,-0.4938940405845642,0.1496509313583374,0.17452794313430786,-0.15283450484275818,0.8349917625796812,-0.4455183960172626,0.2335943880154033,0.22301492520195876
1728329687583510500,0.824510498046875,-1.9447299242019653,-1.307037591934204,1.2633732557296753,0.5907917022705078,0.6426490545272827,-0.48781895637512207,0.1570109724998474,0.13977587223052979,-0.1097610592842102,0.8302908505719536,-0.4513592953084909,0.2288346884712481,0.23350908122080785
1728329687593541600,0.834541748046875,-1.787034273147583,-1.3940918445587158,1.2654553651809692,0.5924095511436462,0.6441687345504761,-0.48383629322052,0.18928289413452148,0.10700619220733643,-0.07034772634506226,0.8260778762813993,-0.4560166979605352,0.22389868731033868,0.2439538315363961
1728329687603573500,0.844573486328125,-1.776609182357788,-1.4783616065979004,1.2408524751663208,0.5935901403427124,0.645282506942749,-0.48089635372161865,0.20561939477920532,0.06968331336975098,-0.03260773420333862,0.8220262285423897,-0.46016078414888995,0.21864097293838403,0.2544033458471504
1728329687613604900,0.85460498046875,-1.922440767288208,-1.5587270259857178,1.2528311014175415,0.5943859219551086,0.6467036604881287,-0.4779956638813019,0.19386780261993408,0.03969764709472656,0.013151824474334717,0.817775113468253,-0.46440540739680375,0.21290793926242105,0.26503166410246903
1728329687623635700,0.8646357421875,-2.183253526687622,-1.6583783626556396,1.2267284393310547,0.5948247909545898,0.6490471363067627,-0.4742586612701416,0.19019407033920288,0.0010840892791748047,0.045669734477996826,0.8129762414067586,-0.4692909626570186,0.2064864631094477,0.2760415515032039
1728329687633666800,0.874666748046875,-2.47920560836792,-1.7535349130630493,1.1342527866363525,0.5944697856903076,0.6530249714851379,-0.46921640634536743,0.1763584017753601,-0.02216559648513794,0.062355995178222656,0.8075176852128344,-0.4751524958446476,0.19905251028454293,0.2872687516744036
1728329687643697700,0.88469775390625,-2.6578786373138428,-1.8132199048995972,1.033875584602356,0.5932769775390625,0.6586338877677917,-0.46284306049346924,0.12423688173294067,-0.010455846786499023,0.03751954436302185,0.8014688487341033,-0.4818937332331407,0.19067485948738805,0.29844451211650197
1728329687653728800,0.894728759765625,-2.6183431148529053,-1.8622527122497559,0.9920368194580078,0.5914823412895203,0.6648613214492798,-0.4561885595321655,0.062265098094940186,0.01998358964920044,0.017605125904083252,0.795200397470949,-0.4887580701042416,0.18171753699998497,0.3094359526964817
1728329687663760600,0.9047607421875,-2.4440207481384277,-1.82968008518219,1.044787883758545,0.5899020433425903,0.6703715920448303,-0.4501306712627411,0.03567773103713989,0.06859630346298218,-0.0025824308395385742,0.7889740029573471,-0.49502102392160247,0.17288393452051642,0.32028961222354985
1728329687673791700,0.914791748046875,-2.2578063011169434,-1.7625300884246826,1.0966521501541138,0.5891000032424927,0.6745593547821045,-0.44489428400993347,0.02726346254348755,0.10872012376785278,-0.015310883522033691,0.7828751350574128,-0.5004388976424877,0.1646625930744897,0.33098898644326186
1728329687683822600,0.924822509765625,-2.1507315635681152,-1.714802861213684,1.165736436843872,0.5890512466430664,0.6776474118232727,-0.44024160504341125,0.01676839590072632,0.1369125247001648,0.020044982433319092,0.7768215153916032,-0.5052017135427674,0.15700455745365882,0.3415687192251178
1728329687693853700,0.934853759765625,-2.0848848819732666,-1.6447758674621582,1.204879879951477,0.589805543422699,0.6798723936080933,-0.4357786178588867,0.01590728759765625,0.14623844623565674,0.06517308950424194,0.7706621983418882,-0.5095618613550912,0.14985792404887,0.35209253808661206
1728329687703884500,0.944884521484375,-2.1229467391967773,-1.5840117931365967,1.2050864696502686,0.5911126136779785,0.6817982196807861,-0.4309723377227783,-0.01759582757949829,0.12336236238479614,0.09485161304473877,0.7642798808141744,-0.5138654422595608,0.1430249734196257,0.3624396402431162
1728329687713915600,0.95491552734375,-2.2006402015686035,-1.5328881740570068,1.1266639232635498,0.5924534201622009,0.684115469455719,-0.4254233241081238,-0.0696568489074707,0.0939454436302185,0.1136709451675415,0.7576172868194279,-0.5184171523833491,0.1361322572620889,0.3724617459656977
1728329687723946500,0.964946533203125,-2.3522706031799316,-1.479358434677124,1.0495775938034058,0.5935485363006592,0.6872740387916565,-0.4187535047531128,-0.10554200410842896,0.0681275725364685,0.1252812147140503,0.7506315724672107,-0.5234376662920267,0.12898158741777177,0.38200654110879884
1728329687733978600,0.974978515625,-2.518937826156616,-1.3939471244812012,1.0283769369125366,0.5947401523590088,0.6912363767623901,-0.4104587733745575,-0.10745084285736084,0.08264362812042236,0.1480228304862976,0.7430870069259261,-0.5291338695083627,0.12160577399469938,0.3912174700978193
1728329687744009700,0.985009765625,-2.6422295570373535,-1.2863667011260986,1.0164068937301636,0.5964065194129944,0.6956270337104797,-0.4005025327205658,-0.12019509077072144,0.10123270750045776,0.1461384892463684,0.7349608769066645,-0.5354390260707014,0.11425312507438379,0.40010473703602195
1728329687754040800,0.995040771484375,-2.791726589202881,-1.207205057144165,1.024078607559204,0.5986339449882507,0.7002772688865662,-0.3889075219631195,-0.165147066116333,0.10665327310562134,0.13501650094985962,0.7262291885122489,-0.5423185287842921,0.1069432355837577,0.4087112147313552
1728329687764071700,1.00507177734375,-2.831853151321411,-1.137755036354065,1.0572261810302734,0.6014763712882996,0.7048259973526001,-0.37609362602233887,-0.18143248558044434,0.1470111608505249,0.12566637992858887,0.7169589974544263,-0.5495549141778812,0.09971249063381525,0.41715286762769976
1728329687774102800,1.015102783203125,-2.74879789352417,-1.0923532247543335,1.0448579788208008,0.6048211455345154,0.7088345885276794,-0.3629668354988098,-0.18566232919692993,0.19387537240982056,0.06172776222229004,0.7075065722793977,-0.5566991099664264,0.09275063870727794,0.4253444872251321
1728329687784133600,1.025133544921875,-2.538043975830078,-1.0736932754516602,1.1317640542984009,0.6086822748184204,0.7117142677307129,-0.35066884756088257,-0.19487929344177246,0.2503829002380371,0.026938319206237793,0.6981973357097049,-0.5632272492446113,0.08625912772048355,0.4334223157569962
1728329687794164700,1.035164794921875,-2.1578481197357178,-0.9481278657913208,1.1182153224945068,0.6132944822311401,0.7129061818122864,-0.3400511145591736,-0.1942881941795349,0.2958371043205261,-0.02480185031890869,0.6894456537953965,-0.5687233502652937,0.08079722639883374,0.44123727592744455
1728329687804196600,1.045196533203125,-1.8346580266952515,-0.7965635061264038,1.0125876665115356,0.617997944355011,0.7129964232444763,-0.3312320113182068,-0.28383058309555054,0.23587137460708618,-0.10297209024429321,0.6817215291665442,-0.573186165816416,0.07643040246553959,0.44818724978534796
1728329687814227500,1.0552275390625,-1.7874305248260498,-0.7105093598365784,0.896156907081604,0.622404158115387,0.712902307510376,-0.32308435440063477,-0.33762943744659424,0.1572454571723938,-0.0991416871547699,0.6746627078614789,-0.577223778024193,0.07259846776970036,0.454282401715627
1728329687824258000,1.065258056640625,-1.97893488407135,-0.6446937322616577,0.7317498326301575,0.6261118054389954,0.7137541770935059,-0.3139088451862335,-0.3180522918701172,0.09883731603622437,0.0063526928424835205,0.6675744165448958,-0.581692171469224,0.06840898199614648,0.4596723742556236
1728329687834289200,1.0752890625,-2.1964261531829834,-0.6157917380332947,0.6102359294891357,0.628956139087677,0.7160056829452515,-0.3029022514820099,-0.32527589797973633,0.06306225061416626,0.08273318409919739,0.660112082550536,-0.586963127740964,0.0634284258351889,0.46443839672819826
1728329687844320000,1.085320068359375,-2.348128080368042,-0.6036210060119629,0.5456020832061768,0.6313531398773193,0.719113826751709,-0.29029056429862976,-0.3240106701850891,0.09123468399047852,0.09043091535568237,0.6521853407388476,-0.5928830485344424,0.0578308262050875,0.4688279510417979
1728329687854351000,1.09535107421875,-2.3477871417999268,-0.5166046023368835,0.5119831562042236,0.6335458755493164,0.722468912601471,-0.27687209844589233,-0.32194626331329346,0.14471852779388428,0.06417986750602722,0.6440600114793338,-0.599049359475012,0.05199815811188317,0.4728875851717764
1728329687864383200,1.10538330078125,-2.3122811317443848,-0.46436765789985657,0.5669907331466675,0.6361705660820007,0.7253227233886719,-0.26304730772972107,-0.3207409977912903,0.1662483811378479,0.03836160898208618,0.6358669258390177,-0.6052351105053574,0.04654896026629443,0.4766517040403107
1728329687874414000,1.1154140625,-2.3311212062835693,-0.4475407302379608,0.5346013903617859,0.6390601992607117,0.7277365922927856,-0.24900096654891968,-0.2967751622200012,0.17166221141815186,0.04419751465320587,0.6275239710032101,-0.6113927330188395,0.041212153227606206,0.4803270838449569
1728329687884445200,1.125445068359375,-2.1779072284698486,-0.41007399559020996,0.5218057036399841,0.641884446144104,0.7298417687416077,-0.2351917177438736,-0.29076457023620605,0.17300546169281006,0.05498535931110382,0.6193514609091529,-0.6173379070661671,0.036028484943596166,0.48373495149338513
1728329687894476300,1.135476318359375,-1.9950109720230103,-0.3656458258628845,0.4813743233680725,0.6447415947914124,0.7313321232795715,-0.2223992943763733,-0.3124815821647644,0.1490389108657837,0.036364153027534485,0.6116822122104375,-0.6227504051820723,0.03134148014904367,0.48687205834798736
1728329687904507100,1.145507080078125,-1.722537636756897,-0.3170965015888214,0.3706512749195099,0.6471291184425354,0.7326264977455139,-0.2109076976776123,-0.3056833744049072,0.1397947072982788,0.019028380513191223,0.6048337415942139,-0.6275458346453822,0.027062506875610296,0.4895200200263323
1728329687914538200,1.155538330078125,-1.395668625831604,-0.2403295338153839,0.26588118076324463,0.6489233374595642,0.7337472438812256,-0.2012796401977539,-0.3354926109313965,0.15594696998596191,0.007874488830566406,0.5991545077595672,-0.6315161964058289,0.023398177575982622,0.4915828750760265
1728329687924569000,1.165569091796875,-1.0795774459838867,-0.10806600004434586,0.1474275290966034,0.6501087546348572,0.7348315119743347,-0.19334271550178528,-0.3424457907676697,0.17161691188812256,0.02786114811897278,0.5947467428880535,-0.6347509214683223,0.020491641232950907,0.49289732887163756
1728329687934601000,1.17560107421875,-0.8425909280776978,0.0030994033440947533,0.03729889541864395,0.6507189869880676,0.7360330820083618,-0.18660135567188263,-0.3188251852989197,0.16078698635101318,0.07672280073165894,0.5914598499270503,-0.6374677681257913,0.01828017044903625,0.49343282119885773
1728329687944632000,1.185632080078125,-0.5826626420021057,0.11509943753480911,-0.07057111710309982,0.65068519115448,0.7374817132949829,-0.18091236054897308,-0.2712145447731018,0.15511161088943481,0.1335795670747757,0.5891980354702141,-0.6397405175840597,0.016610041058683384,0.4932562323727163
1728329687954663000,1.195662841796875,-0.2680888772010803,0.23899763822555542,-0.08826568722724915,0.6504012942314148,0.7387761473655701,-0.17660033702850342,-0.23788005113601685,0.16840457916259766,0.17495234310626984,0.5880129483954336,-0.6414434466960351,0.015815677459416675,0.49248428690286783
1728329687964694000,1.205694091796875,0.058928120881319046,0.3662036657333374,-0.07503244280815125,0.6503288149833679,0.7394916415214539,-0.17385175824165344,-0.2003624439239502,0.18224602937698364,0.20786356925964355,0.5878606695078076,-0.6425042954953903,0.016197173015183572,0.49126941947819175
1728329687974725000,1.21572509765625,0.32827702164649963,0.4403015971183777,-0.07068030536174774,0.6505160331726074,0.7395976185798645,-0.17269663512706757,-0.1708713173866272,0.156566321849823,0.21880865097045898,0.5886474632793055,-0.6429149354898611,0.017665445132870942,0.4897370813188625
1728329687984756200,1.225756103515625,0.5239115953445435,0.4694143831729889,-0.07485321164131165,0.6507960557937622,0.7393072843551636,-0.17288492619991302,-0.13674277067184448,0.13322079181671143,0.23559850454330444,0.5901449559454311,-0.6427785072520487,0.01983257086004954,0.48802803349950435
1728329687994787300,1.235787353515625,0.770655632019043,0.4420008659362793,-0.0972709059715271,0.6509490609169006,0.7387630939483643,-0.1746269315481186,-0.12009578943252563,0.15373879671096802,0.22881083190441132,0.5923755941949848,-0.6420132842856059,0.022482798375714704,0.48621464856668073
1728329688004819200,1.245819091796875,1.1040749549865723,0.4284229576587677,-0.054679498076438904,0.6511057019233704,0.7376481890678406,-0.1787073165178299,-0.12266343832015991,0.19510626792907715,0.1982385665178299,0.5955198688747946,-0.6402984311710573,0.025773274061151707,0.48446837614231286
1728329688014850000,1.25585009765625,1.4486489295959473,0.472898006439209,0.04006006196141243,0.6518844962120056,0.735337495803833,-0.185270756483078,-0.08958297967910767,0.2413012981414795,0.16111606359481812,0.599579545156319,-0.6375360516855614,0.030205997975113925,0.4828454076755584
1728329688024881200,1.265881103515625,1.7151955366134644,0.5751922726631165,0.09282313287258148,0.6533941626548767,0.7318658828735352,-0.19351565837860107,-0.07156133651733398,0.23302364349365234,0.1171911358833313,0.6043915279895206,-0.6340003199333873,0.03585752169219038,0.48111190739058995
1728329688034912000,1.275912109375,1.8398027420043945,0.6349719762802124,0.13925695419311523,0.6554639935493469,0.7275403141975403,-0.20261350274085999,-0.1087874174118042,0.167128324508667,0.1009899377822876,0.6096618946617091,-0.6299967844892973,0.04239458423586177,0.47918597296158894
1728329688044943000,1.285943115234375,1.7564834356307983,0.6423860192298889,0.1672060340642929,0.657926619052887,0.7227615714073181,-0.21153758466243744,-0.11512583494186401,0.07232809066772461,0.15425606071949005,0.6148391797927613,-0.6259481731839751,0.049194408922420586,0.4772226495286349
1728329688054974000,1.295973876953125,1.5681124925613403,0.6031773686408997,0.13473357260227203,0.6603915095329285,0.7181369662284851,-0.21945907175540924,-0.08067965507507324,0.013430416584014893,0.20696210861206055,0.619521189715792,-0.6222383254063594,0.05558717274602065,0.4753135613065123
1728329688065006000,1.306006103515625,1.4066671133041382,0.5739699602127075,0.0833851620554924,0.6625090837478638,0.714094877243042,-0.22616390883922577,-0.05052495002746582,0.007218539714813232,0.18971063196659088,0.6236931959209677,-0.6189994537642467,0.06130025705370607,0.47338003386483574
1728329688075037200,1.316037109375,1.3053652048110962,0.5416620373725891,0.08893545717000961,0.664389431476593,0.7104121446609497,-0.23216672241687775,-0.028601527214050293,0.01798146963119507,0.11473503708839417,0.6275181671201999,-0.6160290624931135,0.06651941325277218,0.47149168629776594
1728329688085068300,1.326068359375,1.170318365097046,0.5439527034759521,0.15618880093097687,0.6665317416191101,0.7066835761070251,-0.2373472899198532,0.04080462455749512,0.046551287174224854,0.07648909091949463,0.6308610221981638,-0.6133594900626153,0.0715296532386632,0.4697743999007541
1728329688095099100,1.33609912109375,0.980747401714325,0.47161030769348145,0.2133663296699524,0.669084370136261,0.7028447985649109,-0.24152693152427673,0.09861570596694946,0.05043584108352661,0.07705241441726685,0.6335454717237448,-0.61108024872546,0.07627231780275,0.4683840024545681
1728329688105130200,1.346130126953125,0.7587761282920837,0.3253178298473358,0.150163933634758,0.6714653372764587,0.6993970274925232,-0.24490444362163544,0.09689092636108398,-0.004527032375335693,0.09565818309783936,0.6355587441718933,-0.6091953099381306,0.08018014493056819,0.46745840778547115
1728329688115161000,1.3561611328125,0.7565262913703918,0.2602812945842743,-0.04581223800778389,0.6724849343299866,0.6972716450691223,-0.2481456696987152,0.05235320329666138,-0.07622367143630981,0.04733997583389282,0.6375922928440482,-0.6074902939333492,0.08296210446618787,0.4664214070313198
1728329688125192200,1.366192138671875,0.8821284174919128,0.26612773537635803,-0.022149786353111267,0.6727997660636902,0.6955428719520569,-0.25211241841316223,0.006262063980102539,-0.07968282699584961,-0.050286293029785156,0.6400884124041618,-0.6054936910126874,0.08556389957157652,0.46512691392325234
1728329688135224000,1.37622412109375,0.9536147117614746,0.285482794046402,0.09123056381940842,0.673791766166687,0.6929193735122681,-0.2566468417644501,0.026708781719207764,-0.06213611364364624,-0.020620375871658325,0.642659962710555,-0.6031624330380507,0.08872233296289424,0.4640169302105943
1728329688145255200,1.386255126953125,1.0438649654388428,0.27911943197250366,0.07150080054998398,0.6751617193222046,0.6897266507148743,-0.2615985572338104,0.02858877182006836,-0.07954293489456177,0.05662721395492554,0.6453275882120529,-0.6005767883337422,0.09224014723815285,0.462981183336163
1728329688155286000,1.3962861328125,1.2273962497711182,0.25662875175476074,0.004792349878698587,0.6761313080787659,0.686466634273529,-0.26759999990463257,-0.013091325759887695,-0.12822389602661133,0.044608086347579956,0.6485079159221746,-0.5975076007906864,0.09583664463855679,0.46177628408848975
1728329688165317000,1.406317138671875,1.4413830041885376,0.23316125571727753,0.011432675644755363,0.6768048405647278,0.6828199625015259,-0.2751217782497406,0.0037217140197753906,-0.13167250156402588,0.0009671151638031006,0.6523823584860441,-0.5937106018636679,0.09973380851071106,0.46038903206728726
1728329688175348000,1.416347900390625,1.6338253021240234,0.2862972319126129,0.06423064321279526,0.6778018474578857,0.6782516241073608,-0.28382977843284607,0.05356711149215698,-0.08756864070892334,0.05212503671646118,0.656680204061074,-0.589259714840114,0.10420220250181844,0.4590054044102986
1728329688185379000,1.426379150390625,1.9889761209487915,0.3113449513912201,-0.034350525587797165,0.6787995100021362,0.6728560924530029,-0.2941017150878906,0.05713176727294922,-0.08871912956237793,0.07777789235115051,0.6618271724779168,-0.5839296974912458,0.10943145786922254,0.45720408214954206
1728329688195411200,1.4364111328125,2.2299156188964844,0.3843657970428467,-0.11177022010087967,0.679387629032135,0.6669213771820068,-0.30601999163627625,0.019235968589782715,-0.10146117210388184,-0.0025737881660461426,0.6679619032894827,-0.5776779844875674,0.11523084347633705,0.45479315509314044
1728329688205442300,1.4464423828125,2.245922327041626,0.4966452419757843,-0.2983907163143158,0.679421603679657,0.6612298488616943,-0.31805890798568726,0.030112028121948242,-0.12827080488204956,-0.02649986743927002,0.6746561421309885,-0.5711989420962901,0.1212530780673128,0.4515181134514178
1728329688215473200,1.45647314453125,2.022169351577759,0.6309801936149597,-0.5023888349533081,0.6785924434661865,0.6570162177085876,-0.3283931016921997,0.0158502459526062,-0.20010703802108765,-0.007452905178070068,0.6813340355042106,-0.5654263529042948,0.1268719526330325,0.4471918081056192
1728329688225504300,1.466504150390625,1.3885284662246704,0.6735745668411255,-0.5014937520027161,0.6774137616157532,0.6547260284423828,-0.3353274464607239,0.03440868854522705,-0.2581043243408203,0.0762941837310791,0.6869594189653352,-0.5612728871251218,0.1315637875676713,0.4424369862769097
1728329688235535000,1.47653515625,0.5994751453399658,0.6061414480209351,-0.20796917378902435,0.6771417260169983,0.6539746522903442,-0.33733704686164856,0.14158380031585693,-0.30795103311538696,0.2022661566734314,0.6901328091541217,-0.5595713485794463,0.1349495718383036,0.4386173984920188
1728329688245566200,1.486566162109375,-0.07408125698566437,0.3570401072502136,0.29417088627815247,0.6791598200798035,0.6526972055435181,-0.3357502520084381,0.31377530097961426,-0.39032232761383057,0.24644052982330322,0.6904006666058129,-0.5596944605648713,0.13735715463497675,0.43728936080514896
1728329688255597000,1.49659716796875,-0.7087674140930176,0.26302891969680786,0.42450758814811707,0.6826599836349487,0.6514219641685486,-0.3310960531234741,0.5098295211791992,-0.43520498275756836,0.19272932410240173,0.6882394943792532,-0.5614644868209917,0.1385987351426917,0.43803459637307784
1728329688265629000,1.50662890625,-0.9384669065475464,0.36485543847084045,0.41009536385536194,0.6863869428634644,0.6514161825180054,-0.32331061363220215,0.4250173568725586,-0.30078452825546265,0.19557926058769226,0.684659594211772,-0.5648405239429832,0.1389240041552745,0.43919975267690997
1728329688275660000,1.516659912109375,-0.6275857090950012,0.39700332283973694,0.4240226149559021,0.6903951168060303,0.6510812640190125,-0.315353125333786,0.2837105393409729,-0.14921969175338745,0.1257931888103485,0.6811807477779094,-0.5681609712856589,0.139701616366707,0.4400786449735172
1728329688285691100,1.526691162109375,-0.18107269704341888,0.35410434007644653,0.40060386061668396,0.6942748427391052,0.6494882106781006,-0.31007659435272217,0.21179193258285522,-0.03927391767501831,0.03995019197463989,0.6788284658906301,-0.5700955365187155,0.14125434319533467,0.4407155456525391
1728329688295722200,1.53672216796875,0.2878606915473938,0.385116845369339,0.36856362223625183,0.697928786277771,0.6466086506843567,-0.307884156703949,0.16957908868789673,0.03953331708908081,0.030952394008636475,0.677880680503057,-0.5704341052815496,0.1437457811635754,0.4409306847785836
1728329688305753300,1.54675341796875,0.5549495816230774,0.30629977583885193,0.28711163997650146,0.701158344745636,0.6429402232170105,-0.30822882056236267,0.17101871967315674,0.05115163326263428,-0.0011889636516571045,0.6781354736531418,-0.5694913802043008,0.14685080315712673,0.4407343930325536
1728329688315784200,1.5567841796875,0.652925968170166,0.24639993906021118,0.2435636669397354,0.7036803960800171,0.6391950249671936,-0.31026390194892883,0.19722896814346313,-0.014103472232818604,0.035575151443481445,0.6791160328114311,-0.5678042482993082,0.14988793103645362,0.44037871304502835
1728329688325815300,1.566815185546875,0.4276910424232483,0.253130167722702,0.2505570948123932,0.7060522437095642,0.6356843113899231,-0.31208276748657227,0.22702264785766602,-0.1863892674446106,0.05542987585067749,0.6799658749143493,-0.5662577766383102,0.15267856760461573,0.44009975454712014
1728329688335847200,1.57684716796875,-0.055535804480314255,0.24304796755313873,0.19580411911010742,0.7084463238716125,0.6332842111587524,-0.31153616309165955,0.2238197922706604,-0.29040396213531494,0.11958050727844238,0.6798105720428854,-0.5659397062681741,0.1547390471157721,0.44002908425205206
1728329688345878000,1.5868779296875,-0.6162501573562622,0.1586025357246399,0.029264135286211967,0.709701657295227,0.6335283517837524,-0.30816447734832764,0.17398053407669067,-0.27627426385879517,0.15414220094680786,0.678590813679863,-0.5673389218599232,0.15506226007997675,0.439996258780526
1728329688355909000,1.5969091796875,-1.8795815706253052,-0.22479277849197388,0.3090158700942993,0.7106479406356812,0.6362065076828003,-0.3003678321838379,0.15119892358779907,-0.4143437147140503,-0.07685995101928711,0.674662291696974,-0.5714152347841581,0.15264569257481028,0.4416047239880395
1728329688365940000,1.60693994140625,-2.439053535461426,-0.37409794330596924,0.34150031208992004,0.7119582891464233,0.640259861946106,-0.2884143590927124,0.3990188241004944,-0.6954966187477112,-0.19423642754554749,0.6677538436447494,-0.5779094828484767,0.147693749323292,0.4453224751315083
1728329688375971000,1.61697119140625,-2.1652822494506836,-0.4620685577392578,0.29240813851356506,0.7128143906593323,0.6447007060050964,-0.2761459946632385,0.41168200969696045,-0.6041123270988464,-0.17668908834457397,0.660459655711948,-0.5846218204768073,0.1419307082656043,0.44929503502256096
1728329688386002200,1.627002197265625,-1.1624339818954468,-0.5521290898323059,0.1507548838853836,0.7128559350967407,0.6477023959159851,-0.2689199149608612,0.3040506839752197,-0.07426184415817261,-0.2440042793750763,0.6553028524875164,-0.5888712976535435,0.13700599898222585,0.45281122278713515
1728329688396033000,1.637032958984375,0.18726672232151031,-0.4566846191883087,0.12076156586408615,0.7123094201087952,0.6481501460075378,-0.2692887783050537,0.17848330736160278,0.3353703022003174,-0.4668410122394562,0.6539548045286279,-0.5892531430246092,0.13467126644519598,0.45495859186399396
1728329688406065200,1.647065185546875,0.4878619909286499,-0.48877090215682983,0.05155825987458229,0.7117893695831299,0.6460798382759094,-0.2755661606788635,0.11976873874664307,0.3395463824272156,-0.6324234008789062,0.6552726176534898,-0.5866391105295489,0.13443018569505785,0.4565093838219802
1728329688416096300,1.65709619140625,-0.06669978052377701,-0.3030279278755188,-0.1587880551815033,0.7101877331733704,0.6460440158843994,-0.2797505855560303,0.11419868469238281,0.22591948509216309,-0.3023722469806671,0.656325865537137,-0.5850946634631737,0.13337519273073495,0.45728717741751584
1728329688426127000,1.667127197265625,-0.41519197821617126,-0.18824860453605652,-0.07620742917060852,0.7087958455085754,0.6475713849067688,-0.27974933385849,0.03188091516494751,-0.017093539237976074,0.022211462259292603,0.6559863142230952,-0.5854786966520273,0.1316815337812596,0.45777350849806636
1728329688436158200,1.677158203125,-0.30045127868652344,-0.15677803754806519,-0.16324618458747864,0.707657516002655,0.6494265794754028,-0.2783270478248596,0.17460554838180542,-0.04102814197540283,-0.006249427795410156,0.6551451706542804,-0.5864838849654893,0.12989663254235873,0.45820119777619556
1728329688446189000,1.68718896484375,0.2394319325685501,-0.10683977603912354,-0.34497418999671936,0.7056683897972107,0.6512776613235474,-0.27905118465423584,0.11554425954818726,0.2364940047264099,-0.032289206981658936,0.6557219644041304,-0.5864437590080231,0.1286783700415682,0.4577710437730223
1728329688456220200,1.69722021484375,0.42966046929359436,0.006239109672605991,-0.4789298474788666,0.7027721405029297,0.6532298922538757,-0.281783789396286,-0.029935896396636963,0.39367562532424927,-0.08276396989822388,0.6577465933039306,-0.5854141674895242,0.12805605386252825,0.45635663119985465
1728329688466252000,1.707251953125,0.7901634573936462,0.23015530407428741,-0.521386444568634,0.6998469829559326,0.6551030874252319,-0.2847003638744354,-0.08430743217468262,0.40468090772628784,0.09228697419166565,0.660491789289156,-0.5841120467429327,0.1283079571182848,0.4539833472961675
1728329688476283100,1.717283203125,1.5476258993148804,0.2130735218524933,-0.6011766195297241,0.6968752145767212,0.6556479930877686,-0.2906726598739624,-0.06946444511413574,0.34123921394348145,0.0697559118270874,0.6650070331077442,-0.5811466947760411,0.1301237233155994,0.4506683613418252
1728329688486314000,1.72731396484375,2.0151114463806152,0.24025507271289825,-0.6203058362007141,0.6934646964073181,0.654597818851471,-0.30101242661476135,-0.02360391616821289,0.31618165969848633,-0.09452593326568604,0.6714785882831842,-0.575999557724229,0.13311009445634472,0.4467916009880055
1728329688496345000,1.737344970703125,2.066143035888672,0.2660520374774933,-0.6093347072601318,0.6902360916137695,0.6524723172187805,-0.3128162920475006,0.008463799953460693,0.2510311007499695,-0.017795920372009277,0.6786316817343698,-0.5699695979522127,0.13684483679301804,0.44256887007566653
1728329688506376000,1.7473759765625,1.7404533624649048,0.2713543772697449,-0.5297600030899048,0.6874039769172668,0.6502987146377563,-0.3233996033668518,0.0053907036781311035,0.05012547969818115,0.07419300079345703,0.6851317914422366,-0.5644375110597568,0.1403940665889381,0.43851366605766157
1728329688516407300,1.7574072265625,1.4780046939849854,0.28107091784477234,-0.4960654377937317,0.6850166320800781,0.6485167741775513,-0.3319312036037445,0.0168876051902771,-0.086703360080719,0.13976195454597473,0.690551979264253,-0.559879606172997,0.14341974952500153,0.4348605207952517
1728329688526438100,1.767438232421875,1.2269666194915771,0.2598783075809479,-0.5037230849266052,0.6827006936073303,0.647354781627655,-0.33889737725257874,-0.003150641918182373,-0.1778419017791748,0.10174527764320374,0.695243790552383,-0.5561066461835725,0.14593391075059603,0.4313753365261549
1728329688536470300,1.77747021484375,0.892260730266571,0.2406335026025772,-0.4644065797328949,0.6804284453392029,0.6470317840576172,-0.3440447449684143,-0.021615147590637207,-0.22378355264663696,0.12074759602546692,0.6990481028100293,-0.5533037309988945,0.14775860186300996,0.42819856918132765
1728329688546501000,1.787501220703125,0.7568104863166809,0.24079649150371552,-0.3952682614326477,0.6784570217132568,0.6471740007400513,-0.3476516604423523,0.0003453493118286133,-0.22374260425567627,0.1825820505619049,0.7020196366377249,-0.5513054617004121,0.14911895194479632,0.425433988679399
1728329688556532200,1.7975322265625,0.9053200483322144,0.291559100151062,-0.3372768461704254,0.6770771145820618,0.6467458605766296,-0.35112154483795166,0.015061497688293457,-0.18080347776412964,0.11326748132705688,0.7048381098842125,-0.5492641841245094,0.15082466201101855,0.4228048790714979
1728329688566563000,1.80756298828125,1.0372768640518188,0.34151506423950195,-0.33888301253318787,0.6760386228561401,0.6455492973327637,-0.35529983043670654,-0.0003337264060974121,-0.0912737250328064,0.05183297395706177,0.7079841398244736,-0.546728909541384,0.15309340215224784,0.4200100040047743
1728329688576594200,1.81759423828125,1.036059021949768,0.3393038213253021,-0.37295788526535034,0.6750449538230896,0.6441577076911926,-0.35968726873397827,-0.011791348457336426,-0.0458301305770874,0.09001865983009338,0.7113199885927485,-0.5440064648669111,0.15560635666503553,0.4169740400255115
1728329688586625000,1.827625,0.8003790378570557,0.31460291147232056,-0.3899451196193695,0.6737802028656006,0.6433463096618652,-0.36349111795425415,-0.0007608532905578613,-0.06880712509155273,0.16305160522460938,0.7143816039286577,-0.5416585874897366,0.15767183814618063,0.41401031205857036
1728329688596656000,1.83765625,0.4761597216129303,0.34491127729415894,-0.40095648169517517,0.6724870204925537,0.6436474323272705,-0.3653479814529419,0.013319134712219238,-0.137253999710083,0.22634035348892212,0.716658173055476,-0.5403702061169213,0.1591415944670928,0.41118735562551073
1728329688606688000,1.84768798828125,0.06831163913011551,0.32882189750671387,-0.4128563106060028,0.6710646748542786,0.6453768610954285,-0.36491191387176514,0.012986719608306885,-0.20670199394226074,0.20319923758506775,0.7180040616577674,-0.5403699687888693,0.15982596528702636,0.40856570376664664
1728329688616719400,1.85771923828125,-0.29747670888900757,0.23476862907409668,-0.3393794298171997,0.6696996688842773,0.6483807563781738,-0.3620840013027191,0.04981321096420288,-0.18127870559692383,0.18094688653945923,0.7181818623539735,-0.5417435279713004,0.15959931692360296,0.4065180028113443
1728329688626750200,1.867750244140625,-0.47927987575531006,0.16514961421489716,-0.3016589283943176,0.6683013439178467,0.6519253849983215,-0.35828277468681335,0.11050713062286377,-0.14763766527175903,0.14490383863449097,0.7176193167806515,-0.5437828587659177,0.158615303397748,0.40517143147066065
1728329688636781300,1.87778125,-0.646121084690094,0.11773016303777695,-0.3358387351036072,0.6668732762336731,0.6560226678848267,-0.35343196988105774,0.11170631647109985,-0.15573275089263916,0.04833245277404785,0.7165147129771081,-0.5464291917146721,0.15715963393542828,0.4041318741880583
1728329688646812200,1.887812255859375,-0.6681298613548279,0.06023113429546356,-0.4195248484611511,0.664581835269928,0.6609693169593811,-0.34849730134010315,0.06747370958328247,-0.10731947422027588,0.02787962555885315,0.7154058158741338,-0.549289916992645,0.1550223527902417,0.4030422001664581
1728329688656843300,1.89784326171875,-0.4354899823665619,0.026247866451740265,-0.3523029386997223,0.6622642278671265,0.6654279232025146,-0.34440040588378906,0.015210628509521484,-0.02855658531188965,0.05132478475570679,0.7145835676605404,-0.5517006243083957,0.153056240440196,0.40195831534118454
1728329688666875100,1.907875244140625,-0.2967548072338104,-0.008583351969718933,-0.39653778076171875,0.6597669720649719,0.6691384315490723,-0.3419962227344513,0.0529710054397583,0.049825191497802734,-0.027586936950683594,0.7143353539914555,-0.5532740508188556,0.1512934678783582,0.40090297580883794
1728329688676906000,1.917906005859375,-0.12493511289358139,-0.0357649065554142,-0.423907607793808,0.656936764717102,0.6725863814353943,-0.3406783640384674,0.028045475482940674,0.08930021524429321,-0.048451364040374756,0.714578117078191,-0.5543148539672342,0.14965246954064018,0.3996464967335233
1728329688686937000,1.92793701171875,0.010561123490333557,-0.04970277100801468,-0.4082415699958801,0.6539914608001709,0.6755067706108093,-0.340566486120224,-0.0008391737937927246,0.0617673397064209,-0.081400066614151,0.7152902177684284,-0.5547419397965625,0.14825023803098678,0.39830014913105033
1728329688696968200,1.93796826171875,0.11680420488119125,-0.05031929165124893,-0.36168205738067627,0.6512003540992737,0.6778182983398438,-0.3413214087486267,0.008131802082061768,0.03916168212890625,-0.12205752730369568,0.7162725601368556,-0.5547019287585825,0.14712261874228924,0.3970064937635779
1728329688706999000,1.9479990234375,0.3047429621219635,-0.08557289093732834,-0.3425019681453705,0.6486613750457764,0.6793493032455444,-0.3431073725223541,0.001393437385559082,0.04204040765762329,-0.14151176810264587,0.7175780583629674,-0.5540943272992234,0.1463755156084246,0.3957716545775291
1728329688717030100,1.958030029296875,0.43769195675849915,-0.17065688967704773,-0.3844957649707794,0.6457549333572388,0.6803857088088989,-0.3465193510055542,-0.00009465217590332031,0.0280950665473938,-0.1688157618045807,0.7194510742218,-0.552736665892259,0.14567946264933493,0.39452461312462983
1728329688727061000,1.96806103515625,0.2414497286081314,-0.17918087542057037,-0.3723514676094055,0.6425310373306274,0.681566059589386,-0.3501735329627991,-0.010603666305541992,-0.009385943412780762,-0.07936140894889832,0.7213231077287326,-0.5513471228675929,0.14467062921066465,0.39342048397619106
1728329688737093000,1.978093017578125,0.14585742354393005,-0.02896101027727127,-0.41750776767730713,0.6395767331123352,0.6834139823913574,-0.35197579860687256,-0.02159583568572998,-0.009875774383544922,0.04095584154129028,0.7226068690131522,-0.5508137166585084,0.14358394317234105,0.3922081275350272
1728329688747124200,1.988124267578125,0.0876038447022438,0.09072235226631165,-0.4732586443424225,0.6363205313682556,0.6859853863716125,-0.3528743386268616,-0.10209512710571289,0.013523280620574951,0.002440929412841797,0.7239591449126069,-0.5506572474208019,0.14261637157253373,0.39028240352293864
1728329688757155000,1.998155029296875,0.08522697538137436,-0.06893202662467957,-0.6779974102973938,0.6330148577690125,0.6892067790031433,-0.35254237055778503,-0.207203209400177,0.11944794654846191,0.004687756299972534,0.7248409656371159,-0.5511445651217345,0.14130987131303388,0.3884284655143276
1728329688767186200,2.008186279296875,0.763215959072113,0.15842625498771667,-0.5620915293693542,0.6283079385757446,0.6919234395027161,-0.3556276559829712,-0.24816584587097168,0.25222939252853394,-0.06676620244979858,0.7275727933385283,-0.5499357651465401,0.1405590017200202,0.38529421580621165
1728329688777217000,2.018217041015625,0.9584320783615112,-0.03280922397971153,-0.20596009492874146,0.6261744499206543,0.6909807920455933,-0.3611803352832794,-0.2550349831581116,0.282301127910614,-0.19126415252685547,0.7304889097249077,-0.5471818450864081,0.14142791637374755,0.38337472065868244
1728329688787248000,2.028248046875,0.907416045665741,-0.05815362185239792,-0.36241522431373596,0.6242108941078186,0.6891378164291382,-0.36803534626960754,-0.020359575748443604,0.2465311884880066,-0.11814025044441223,0.7336739545896537,-0.5437730523972456,0.14245417165272803,0.3817594824697373
1728329688797279200,2.038279296875,0.6346441507339478,-0.05972515791654587,-0.3618583679199219,0.6213071942329407,0.6886499524116516,-0.37381601333618164,-0.1023101806640625,-0.017064929008483887,-0.05793145298957825,0.7365492598254009,-0.5410651712861828,0.14262005845223796,0.38000395097609174
1728329688807311000,2.04831103515625,0.4373559057712555,0.0035540051758289337,-0.2556515038013458,0.6191686391830444,0.6884910464286804,-0.3776375949382782,-0.022794246673583984,-0.1441795825958252,0.0417000949382782,0.7385689015498204,-0.5392657350503498,0.1427363578712642,0.3785956889262233
1728329688817342000,2.058342041015625,0.361890971660614,0.045191194862127304,-0.28855299949645996,0.617432177066803,0.6886645555496216,-0.3801562488079071,0.02729743719100952,-0.1381884217262268,0.02349722385406494,0.7401104783637716,-0.5380634893314014,0.14286201627767806,0.3772462088180631
1728329688827373600,2.06837353515625,0.26641252636909485,0.029271086677908897,-0.2210002988576889,0.6157970428466797,0.6890736818313599,-0.3820619285106659,-0.007642924785614014,-0.05731409788131714,-0.04150685667991638,0.7414190317680682,-0.5371636268850247,0.14291354257241654,0.37593704885881346
1728329688837404400,2.078404296875,0.24365262687206268,0.00341205857694149,-0.17006413638591766,0.6145755052566528,0.6892721056938171,-0.38366782665252686,0.030611872673034668,0.027952075004577637,-0.02215498685836792,0.7424228565457569,-0.5364085573098872,0.14294034549750026,0.37502304888382154
1728329688847435500,2.088435546875,0.23313355445861816,-0.013938329182565212,-0.17538540065288544,0.6133825182914734,0.689371645450592,-0.3853941857814789,0.048803091049194336,0.049626827239990234,-0.008221566677093506,0.743412720839152,-0.535604038160053,0.14293781801591343,0.37421200368890856
1728329688857466400,2.09846630859375,0.14085155725479126,-0.008969669230282307,-0.1412665843963623,0.6122563481330872,0.6896149516105652,-0.3867471218109131,0.02104431390762329,0.028494179248809814,-0.03265601396560669,0.7442141550032032,-0.5350020628472217,0.14282590456859984,0.373522161518269
1728329688867497500,2.10849755859375,-0.01060115359723568,0.012289333157241344,-0.14573164284229279,0.611338198184967,0.6901707649230957,-0.3872077763080597,0.030324280261993408,0.0077509284019470215,-0.03204271197319031,0.7446544849683702,-0.5348433825597481,0.14261371335293135,0.3729524498719325
1728329688877529600,2.118529541015625,-0.16532015800476074,-0.01508609764277935,-0.15143053233623505,0.6102774143218994,0.6914817094802856,-0.3865419030189514,0.033139944076538086,0.005295693874359131,-0.005975306034088135,0.7446817235033742,-0.5353119577727674,0.14202167370996108,0.3724515342774582
1728329688887560700,2.128560791015625,-0.24724631011486053,-0.05230814591050148,-0.06917162239551544,0.6094229817390442,0.6929181218147278,-0.3853154182434082,0.02845531702041626,-0.006242156028747559,-0.014113932847976685,0.744352653148408,-0.5360909743822987,0.14124007646776193,0.3722857914024566
1728329688897591600,2.138591552734375,-0.4009717106819153,-0.04175190627574921,-0.05863961949944496,0.6088190674781799,0.694502055644989,-0.3834139406681061,0.04193764925003052,-0.041395366191864014,-0.04274880886077881,0.7436397269544966,-0.5372246868330157,0.14029491196154908,0.37243388212080947
1728329688907622700,2.14862255859375,-0.5895644426345825,0.00642734207212925,-0.04605591669678688,0.6084064245223999,0.696735143661499,-0.38000234961509705,0.003165721893310547,-0.05023550987243652,-0.003069579601287842,0.7423988277848523,-0.5391000509022293,0.13917598609816306,0.3726193883617539
1728329688917653500,2.158653564453125,-0.5684873461723328,0.06470049917697906,0.009767133742570877,0.6084420680999756,0.6990770101547241,-0.3756190240383148,-0.01766759157180786,-0.030528366565704346,0.037865638732910156,0.7407891848737543,-0.5413894928819193,0.1381589872992159,0.3728819379024156
1728329688927684600,2.1686845703125,-0.3986784517765045,0.13546660542488098,0.004906865302473307,0.6089059114456177,0.7008553743362427,-0.37153124809265137,-0.02470797300338745,0.011531710624694824,-0.010197937488555908,0.739356545222496,-0.5434032282526345,0.1376492064859436,0.37298474732293463
1728329688937715500,2.178715576171875,-0.16435116529464722,0.1617104560136795,-0.016841573640704155,0.6094507575035095,0.7019155025482178,-0.3686251938343048,-0.05757087469100952,0.1233561635017395,-0.09460124373435974,0.7384936825786217,-0.544729527928077,0.1376849626040544,0.3727462524695724
1728329688947747600,2.18874755859375,0.053304191678762436,0.1388431191444397,0.024452069774270058,0.610033392906189,0.7021104097366333,-0.36728742718696594,-0.06875848770141602,0.2513807415962219,-0.12677690386772156,0.7382308772678937,-0.5452235696713332,0.13815770190760815,0.3723691152787551
1728329688957778400,2.1987783203125,0.3012045621871948,0.06610526889562607,0.1012970507144928,0.6108976602554321,0.701038122177124,-0.3678985834121704,-0.044262707233428955,0.2929803729057312,-0.13065186142921448,0.7385197500192443,-0.5447120040698954,0.13906665788016118,0.37220652215580874
1728329688967809500,2.2088095703125,0.43576422333717346,0.036511845886707306,0.12318316847085953,0.6119046807289124,0.6989232897758484,-0.3702413737773895,-0.021130263805389404,0.20679259300231934,-0.13035371899604797,0.7392954297336949,-0.5433250935224778,0.14027526809076152,0.3722402386982574
1728329688977840600,2.218840576171875,0.38621556758880615,0.02769811823964119,0.12371819466352463,0.6129122972488403,0.6965652704238892,-0.3730081617832184,-0.021390199661254883,0.07659751176834106,-0.09034022688865662,0.7401887009688545,-0.541723972660589,0.14153109460007826,0.3723232274412678
1728329688987871700,2.228871826171875,0.20911537110805511,0.04465281218290329,0.10774242877960205,0.6139058470726013,0.6946955323219299,-0.3748568296432495,-0.01457124948501587,-0.04007828235626221,0.000039905309677124023,0.7407509197740157,-0.5405970391459606,0.14257077540475105,0.3724465056544984
1728329688997902600,2.238902587890625,-0.05095270276069641,0.07626746594905853,0.09613238275051117,0.6148396730422974,0.6937538385391235,-0.37507036328315735,-0.009721934795379639,-0.12128984928131104,0.06853652000427246,0.7407466735995165,-0.540324432011533,0.1432282084268949,0.37259840091429347
1728329689007933700,2.24893359375,-0.33548134565353394,0.09579797089099884,0.14875991642475128,0.616026759147644,0.6937376260757446,-0.37314745783805847,-0.026762962341308594,-0.1425597071647644,0.1147092878818512,0.739923267240439,-0.5411335635421317,0.14352958588847772,0.37294396384628575
1728329689017965600,2.258965576171875,-0.4476313292980194,0.12782301008701324,0.2253207266330719,0.6177588105201721,0.6941162943840027,-0.36956262588500977,-0.03859633207321167,-0.13372206687927246,0.12720724940299988,0.7383536757789749,-0.5427496291015383,0.14367159235523672,0.37365100388676975
1728329689027996400,2.268996337890625,-0.20176830887794495,0.22541561722755432,0.19468079507350922,0.6199780702590942,0.6939737796783447,-0.3660975694656372,-0.037840187549591064,-0.1157267689704895,0.05170544981956482,0.736890026256584,-0.5441717017925257,0.1443203924054522,0.3742215736090999
1728329689038027500,2.279027587890625,0.0486961230635643,0.22590403258800507,0.12271019071340561,0.6219286918640137,0.6932713389396667,-0.36411458253860474,-0.04757273197174072,-0.03462570905685425,-0.06357401609420776,0.7362145874787421,-0.544777264299817,0.14546627323129005,0.37422625989790476
1728329689048058600,2.28905859375,0.25514957308769226,0.1775323450565338,0.14846083521842957,0.6236189007759094,0.691860556602478,-0.3639070391654968,-0.030372560024261475,0.0854983925819397,-0.08317551016807556,0.736236085986936,-0.5444905411721248,0.14688951107943865,0.37404520647617684
1728329689058089500,2.29908935546875,0.31816980242729187,0.14480635523796082,0.15413443744182587,0.6253191828727722,0.6897637844085693,-0.36496832966804504,0.028626680374145508,0.12438416481018066,-0.07208919525146484,0.7366342431801715,-0.5435691791431798,0.1484869695887143,0.37397080559958995
1728329689068120600,2.30912060546875,0.2390783727169037,0.13570991158485413,0.1049967110157013,0.6267356872558594,0.6879019141197205,-0.36605098843574524,0.03189462423324585,0.05597931146621704,-0.015998661518096924,0.7370578408122307,-0.5426846112472863,0.1498930350076582,0.37385986314345726
1728329689078151400,2.3191513671875,0.10117244720458984,0.1462824046611786,0.11906033009290695,0.6280240416526794,0.6865692138671875,-0.3663446307182312,-0.011843740940093994,-0.0385589599609375,0.043392300605773926,0.7372065946395233,-0.5422317898450628,0.15103764450938154,0.373762807761659
1728329689088183600,2.32918359375,-0.028489138931035995,0.20196904242038727,0.16582944989204407,0.6296687722206116,0.685528039932251,-0.36547020077705383,-0.03753632307052612,-0.08134108781814575,0.05608299374580383,0.7368896194141766,-0.5423265030103169,0.15214092239099922,0.37380308667582945
1728329689098214700,2.339214599609375,-0.11351960897445679,0.23307502269744873,0.1967165172100067,0.631777822971344,0.6846134662628174,-0.36353981494903564,-0.040347278118133545,-0.06823468208312988,0.04629427194595337,0.7361611610468097,-0.5428792835026057,0.15333680195971433,0.37394745698175363
1728329689108245500,2.34924560546875,-0.13842909038066864,0.23400916159152985,0.17940011620521545,0.6339316368103027,0.6838958263397217,-0.36113330721855164,-0.01831585168838501,-0.04678034782409668,0.014636695384979248,0.7352588201617716,-0.5436667897454285,0.1544660978058922,0.37411379682044477
1728329689118276600,2.359276611328125,-0.057284966111183167,0.2254529595375061,0.14853674173355103,0.6359332203865051,0.6831772327423096,-0.3589678108692169,0.006095528602600098,-0.02457737922668457,-0.006281852722167969,0.7344939329765966,-0.5443367483600571,0.1556072007351915,0.37416920986722907
1728329689128307500,2.369307373046875,0.05699000507593155,0.20607216656208038,0.14105698466300964,0.6376984119415283,0.682279646396637,-0.3575405180454254,0.003613114356994629,0.03140443563461304,-0.026919960975646973,0.7340344343350088,-0.5446546300246616,0.15678354509695325,0.37411725422242775
1728329689138338600,2.379338623046875,0.18383051455020905,0.17773960530757904,0.18101106584072113,0.6395218968391418,0.6807844638824463,-0.35713353753089905,-0.014109909534454346,0.09680348634719849,-0.05387726426124573,0.7339105671224602,-0.5444361375873449,0.1581850892770477,0.37408838525842697
1728329689148370400,2.389370361328125,0.23277294635772705,0.161984384059906,0.1823759227991104,0.641431987285614,0.6788077354431152,-0.35747063159942627,-0.01711869239807129,0.09102880954742432,-0.0691194236278534,0.7339959322665051,-0.54382858535848,0.15973463232542826,0.37414625648290367
1728329689158401500,2.399401611328125,0.14287075400352478,0.1505410522222519,0.1675511747598648,0.6432037949562073,0.6769703030586243,-0.3577711582183838,-0.02307140827178955,0.024399936199188232,-0.035615742206573486,0.7340683711468472,-0.5432671023762159,0.16116848218386834,0.3742048849568789
1728329689168432400,2.409432373046875,-0.005991687532514334,0.14003190398216248,0.1776336431503296,0.6449049115180969,0.6755983233451843,-0.3573019206523895,-0.021751224994659424,-0.04603588581085205,0.01724448800086975,0.733817694452539,-0.5431417580595421,0.16231471034676714,0.37438301189616047
1728329689178463500,2.41946337890625,-0.1405058205127716,0.12945488095283508,0.1815519481897354,0.6466593742370605,0.6746714115142822,-0.3558794856071472,-0.008964121341705322,-0.08465981483459473,0.04519522190093994,0.7331419907941594,-0.543536382358339,0.16318226432272392,0.3747567232735696
1728329689188494300,2.429494384765625,-0.2548196017742157,0.11647213995456696,0.15842318534851074,0.6482663750648499,0.6742726564407349,-0.3537047803401947,-0.012875199317932129,-0.08525288105010986,0.042593300342559814,0.7321726522227584,-0.5443683422827262,0.16373977529412173,0.37520071799692173
1728329689198525700,2.439525634765625,-0.2357439249753952,0.10924671590328217,0.14648504555225372,0.6497103571891785,0.6741787195205688,-0.35122567415237427,-0.019125759601593018,-0.06423914432525635,0.03640627861022949,0.7310855426970442,-0.5453996297962086,0.16409269771478838,0.37566836916656343
1728329689208556500,2.449556640625,-0.18700894713401794,0.1214003711938858,0.12185025960206985,0.6510562300682068,0.6739910840988159,-0.34908726811408997,-0.008172929286956787,-0.05076104402542114,0.02038237452507019,0.730172712497516,-0.5462510803115936,0.16451783880195953,0.3760206262785867
1728329689218588700,2.459588623046875,-0.11991992592811584,0.06975609064102173,0.06343142688274384,0.6520916819572449,0.6739019155502319,-0.3473221957683563,0.0015184283256530762,-0.024899840354919434,0.021989524364471436,0.7294351236318448,-0.546963296782162,0.1648334070157062,0.3762785879012392
1728329689228619500,2.46961962890625,0.030678043141961098,0.10821463912725449,0.06388869136571884,0.6527907848358154,0.673667848110199,-0.34646180272102356,0.014094531536102295,0.035469114780426025,-0.03960084915161133,0.7291628994141802,-0.5472238372100258,0.16527301530392402,0.37623440489364274
1728329689238650600,2.479650634765625,-0.05681345611810684,0.09183645993471146,0.12120603770017624,0.6537895798683167,0.6730625629425049,-0.34575411677360535,0.0286443829536438,0.05536144971847534,0.012593656778335571,0.728858924448767,-0.5473685474144439,0.16586326237963017,0.376353120822759
1728329689248681500,2.489681396484375,-0.0773530825972557,0.05733654275536537,0.08328529447317123,0.6548139452934265,0.6724910736083984,-0.34492653608322144,0.03822481632232666,0.0002688765525817871,0.11934056878089905,0.7284417463945794,-0.5475992678200066,0.16634836392924052,0.3766109577352771
1728329689258712600,2.499712646484375,-0.12866415083408356,0.037873148918151855,0.06360266357660294,0.6557826399803162,0.6720758080482483,-0.34389421343803406,0.011957168579101562,-0.05403381586074829,0.07103651762008667,0.7279146822184476,-0.5479654878108453,0.1666934702502609,0.3769447142108284
1728329689268743400,2.509743408203125,-0.21933431923389435,0.048052072525024414,0.11442989856004715,0.6568812131881714,0.6717621684074402,-0.3424069881439209,0.0046482086181640625,-0.05187392234802246,0.04830905795097351,0.7271591920399083,-0.5485636527560731,0.16695634567668036,0.37741609671504867
1728329689278774500,2.5197744140625,-0.2534984052181244,0.042037323117256165,0.10436154901981354,0.6580047011375427,0.6716351509094238,-0.3404938280582428,0.0205230712890625,-0.04359865188598633,0.04920351505279541,0.726216788274819,-0.5493902204544401,0.167103180329513,0.3779630485515882
1728329689288806400,2.529806396484375,-0.3603329360485077,0.025138072669506073,0.08479396998882294,0.6589217782020569,0.6718884110450745,-0.3382128179073334,0.019972145557403564,-0.03983885049819946,0.03764510154724121,0.7251255575963409,-0.5504637619077876,0.16698275111358937,0.37854887559916955
1728329689298837800,2.539837646484375,-0.35686177015304565,-0.00466962531208992,0.05408373475074768,0.6595480442047119,0.6725116968154907,-0.335744172334671,0.03841930627822876,-0.015742957592010498,0.03705337643623352,0.7239838746237677,-0.5516959294007846,0.1666118908919674,0.3791032390529184
1728329689308868600,2.54986865234375,-0.4325917363166809,-0.03502843528985977,0.07011809200048447,0.6593946814537048,0.6735215187072754,-0.3340170681476593,0.051527440547943115,-0.004728794097900391,0.013689279556274414,0.7230655899928662,-0.5527540406753242,0.16569379251041233,0.3797165650385841
1728329689318899700,2.559899658203125,-0.4212075173854828,-0.09754454344511032,0.08178513497114182,0.6594542860984802,0.6749204397201538,-0.33106258511543274,0.044982850551605225,-0.009972870349884033,0.013435602188110352,0.7217070545513705,-0.5543855204876562,0.16469790913038448,0.3803553681205745
1728329689328930600,2.5699306640625,-0.3496232330799103,-0.0842227190732956,0.0742579773068428,0.6596938371658325,0.6756506562232971,-0.3290901184082031,0.016239941120147705,-0.02733522653579712,-0.02666860818862915,0.7205609620739841,-0.5555252489205861,0.1638494384496911,0.3812309133969975
1728329689338961700,2.579961669921875,-0.39396432042121887,-0.061793312430381775,0.054831016808748245,0.6599087119102478,0.6764335632324219,-0.32704466581344604,-0.03355073928833008,-0.0120047926902771,-0.06583872437477112,0.7194681283652523,-0.5566702960054067,0.16308233330051689,0.381952873366953
1728329689348992500,2.589992431640625,-0.45057305693626404,-0.0549762025475502,0.04535655677318573,0.6600914597511292,0.6774370074272156,-0.32458916306495667,-0.0570489764213562,0.008826971054077148,-0.035182565450668335,0.7182482647605124,-0.5580190354901892,0.16223495886664843,0.3826406207717823
1728329689359024600,2.600024658203125,-0.6465548276901245,-0.04842323064804077,0.04575203359127045,0.6602247357368469,0.6789066791534424,-0.32123011350631714,-0.05281829833984375,-0.013684511184692383,-0.004560321569442749,0.7166736169985981,-0.5598444529026484,0.16111839968763095,0.3833977000283462
1728329689369055500,2.610055419921875,-0.6494172215461731,-0.05398939922451973,0.03277551755309105,0.6604079008102417,0.6807228922843933,-0.3169822096824646,-0.044700562953948975,-0.03410118818283081,0.037868380546569824,0.7147399857916499,-0.5621130234172619,0.15980565326550017,0.38423670000383514
1728329689379086600,2.620086669921875,-0.4942454695701599,-0.04443450644612312,-0.05096784979104996,0.6601939797401428,0.6825966835021973,-0.3133779466152191,-0.021857857704162598,-0.051722049713134766,0.0068898797035217285,0.7131632430357941,-0.5640869134009825,0.15848335654702958,0.38482097056211567
1728329689389117400,2.630117431640625,-0.2722233831882477,-0.0029217377305030823,-0.04328862577676773,0.6597718596458435,0.6841428279876709,-0.3108852207660675,-0.05476099252700806,-0.010207951068878174,-0.00892379879951477,0.7121857130801935,-0.5654627387999558,0.15750963611680888,0.38501178323793234
1728329689399148500,2.6401484375,-0.14384037256240845,0.015139021910727024,-0.01860645040869713,0.659621000289917,0.684924304485321,-0.3094814419746399,-0.03202712535858154,0.053799450397491455,-0.05256390571594238,0.7116691175549845,-0.5662014052183935,0.15708359203970573,0.38505550655735643
1728329689409179400,2.650179443359375,-0.13849428296089172,-0.01000121794641018,-0.06568900495767593,0.6593876481056213,0.6856045126914978,-0.30847087502479553,0.008779346942901611,0.04626798629760742,-0.09014979004859924,0.7113391297865925,-0.5667437129286536,0.1567358605692545,0.38500908386546095
1728329689419210800,2.660210693359375,-0.1654161661863327,-0.04910095036029816,-0.1007484570145607,0.6587194800376892,0.6866292953491211,-0.30761823058128357,0.017458438873291016,-0.01653951406478882,-0.04614165425300598,0.7110913921978755,-0.5672955138255346,0.15609833664364864,0.38491325339789406
1728329689429242600,2.67024267578125,-0.1868356317281723,-0.02981332689523697,-0.09817691147327423,0.657886803150177,0.6878516674041748,-0.3066675364971161,0.016276955604553223,-0.041306257247924805,-0.0300481915473938,0.7108106299567004,-0.5679306317615803,0.1553094496157447,0.38481421497376106
1728329689439273500,2.6802734375,-0.23091387748718262,-0.02416928857564926,-0.0638040229678154,0.6572776436805725,0.6889796853065491,-0.3054390847682953,-0.0016227960586547852,-0.05258136987686157,-0.0200614333152771,0.7103996718253398,-0.5686630712018522,0.15460519329354333,0.384775008218204
1728329689449304600,2.6903046875,-0.3166102170944214,-0.02945433370769024,-0.06775881350040436,0.6568241715431213,0.6901837587356567,-0.3036908507347107,0.0008600354194641113,-0.060712993144989014,-0.008336156606674194,0.709739315050654,-0.5696400420619112,0.15383368120071553,0.38485755624929163
1728329689459335700,2.700335693359375,-0.46575814485549927,-0.034789443016052246,-0.05344299226999283,0.6562969088554382,0.6917715668678284,-0.30120849609375,0.005766630172729492,-0.07452303171157837,0.013030946254730225,0.7087786853369659,-0.5710057122951938,0.1528012831104424,0.38501567320130387
1728329689469366500,2.710366455078125,-0.6469650864601135,-0.07691271603107452,-0.010981020517647266,0.6560384631156921,0.693583071231842,-0.29758334159851074,0.021680474281311035,-0.06942236423492432,0.022879332304000854,0.7072208282807859,-0.57293922389123,0.15148919524020987,0.3855259176033591
1728329689479397600,2.720397705078125,-0.2010033279657364,-0.011552350595593452,-0.2532128393650055,0.6552310585975647,0.6956941485404968,-0.294418066740036,0.04267537593841553,-0.06170666217803955,0.004699409008026123,0.7059789269753397,-0.5746988107079039,0.15004078733754087,0.38574970148318405
1728329689489428500,2.730428466796875,-0.6104429364204407,0.011057780124247074,0.032686565071344376,0.6539650559425354,0.6981601119041443,-0.2913796901702881,-0.011356532573699951,-0.018793046474456787,-0.1338828206062317,0.7047205071636028,-0.5765086054968456,0.1481484916270638,0.3860814185282358
1728329689499460400,2.74046044921875,-0.498881459236145,0.11610697209835052,-0.19673703610897064,0.653651773929596,0.700182318687439,-0.2872004210948944,-0.024791359901428223,0.03980797529220581,0.13653510808944702,0.7032625500670169,-0.5785762420779083,0.14713707336441248,0.38603363049089373
1728329689509491500,2.750491455078125,-0.2883414924144745,-0.005366412922739983,0.045687854290008545,0.6535264849662781,0.7013304829597473,-0.28467315435409546,-0.06542229652404785,-0.08376145362854004,-0.013117462396621704,0.702329524752513,-0.5798274639776798,0.14650438824951886,0.3860957123218487
1728329689519522600,2.7605224609375,-0.5256674885749817,0.007335799280554056,0.000655928160995245,0.6535660028457642,0.7025266289710999,-0.2816163897514343,0.04498124122619629,0.048114240169525146,-0.050964176654815674,0.7011050128507571,-0.5813321364121842,0.14575577525487407,0.3863418017833811
1728329689529553700,2.7705537109375,-0.34605324268341064,-0.15595485270023346,-0.17895564436912537,0.6527848243713379,0.7043604850769043,-0.2788334786891937,0.03526437282562256,0.03590434789657593,-0.027227312326431274,0.7000605551550114,-0.5828388961164644,0.14450632683079204,0.3864347920200917
1728329689539584500,2.78058447265625,-0.03880409523844719,0.04267355054616928,-0.02480282634496689,0.6515202522277832,0.7059140205383301,-0.27786049246788025,0.012435317039489746,-0.034405291080474854,-0.09742942452430725,0.699715011836359,-0.5835586425251907,0.14327967646917988,0.3864310606871231
1728329689549615600,2.79061572265625,-0.33829301595687866,0.035798922181129456,-0.1002296730875969,0.6497852802276611,0.7078920602798462,-0.276889830827713,-0.03880816698074341,0.05762612819671631,-0.11387258768081665,0.6997202341072576,-0.5842393087192417,0.14219536344347944,0.38579339048588834
1728329689559646700,2.800646728515625,0.4283793866634369,0.09346461296081543,-0.05944548919796944,0.6502724885940552,0.7076242566108704,-0.2764301002025604,-0.07313942909240723,0.009447276592254639,0.02171504497528076,0.6999360835705543,-0.5842182970478225,0.14308714759022617,0.3851033105040582
1728329689569678600,2.8106787109375,0.002288080519065261,-0.21445640921592712,-0.11649946123361588,0.6492961645126343,0.7077958583831787,-0.2782793343067169,0.015132367610931396,0.032285869121551514,-0.11341378092765808,0.7007502902124898,-0.5834814277767346,0.14286271440371956,0.3848228844852212
1728329689579709400,2.82070947265625,-0.02609003148972988,-0.07955025881528854,-0.055951688438653946,0.6485077738761902,0.708109974861145,-0.2793166935443878,0.03864121437072754,0.01544654369354248,0.11792445182800293,0.701014763465341,-0.5831870118851238,0.1422482350865429,0.3850150367247649
1728329689589740500,2.830740478515625,-0.26922479271888733,0.0772957131266594,-0.1605563908815384,0.6478139758110046,0.7092320322990417,-0.2780768871307373,0.02259606122970581,-0.10557913780212402,0.03926154971122742,0.7006981876895192,-0.5838675244835719,0.14163427224762695,0.3847861035168161
1728329689599771400,2.840771484375,-0.2812249958515167,0.009494291618466377,-0.22916927933692932,0.6466955542564392,0.711156964302063,-0.27575457096099854,-0.06205517053604126,-0.09442722797393799,0.05178600549697876,0.7002296327023968,-0.5850563068059581,0.1408255436859614,0.38412979842774364
1728329689609802500,2.850802490234375,-0.3221752345561981,-0.0752558559179306,-0.1488853543996811,0.6452134251594543,0.7132439017295837,-0.27382972836494446,-0.04178941249847412,-0.02578967809677124,-0.02122950553894043,0.6996995133022784,-0.5861984976522074,0.1394863980938784,0.38384291910098334
1728329689619833300,2.860833251953125,-0.3707033395767212,0.021259766072034836,-0.16116546094417572,0.6441521644592285,0.7150513529777527,-0.27160537242889404,-0.012896120548248291,-0.0005432963371276855,-0.05497854948043823,0.6990103731247664,-0.5874127391515613,0.13836034090552962,0.38364976548033725
1728329689629864400,2.870864501953125,-0.18758684396743774,-0.017274683341383934,-0.186642587184906,0.6428167819976807,0.7170778512954712,-0.26941752433776855,-0.054804205894470215,-0.04471462965011597,-0.07163169980049133,0.6984533644919529,-0.5886144759898334,0.13720146336063968,0.38323822779359074
1728329689639896600,2.880896484375,-0.04555966705083847,-0.08494161069393158,-0.22088098526000977,0.6413410902023315,0.718574583530426,-0.26894620060920715,-0.037795066833496094,-0.0595780611038208,-0.07884737849235535,0.6985843077089693,-0.5890091855986526,0.1363637877380984,0.3826917037478204
1728329689649927700,2.890927734375,0.07490649074316025,-0.07386887818574905,-0.11853624135255814,0.6396952271461487,0.7197663187980652,-0.2696780264377594,-0.025452792644500732,0.02223801612854004,-0.0563260018825531,0.6989945845125942,-0.588925293790962,0.13538090216213983,0.3824204777626947
1728329689659958500,2.90095849609375,0.09190145134925842,-0.031234867870807648,-0.1321346014738083,0.6388319730758667,0.7201681137084961,-0.2706499993801117,-0.02446746826171875,0.02198880910873413,-0.016886621713638306,0.6995094575771424,-0.5885739075113803,0.13511385086453354,0.38211438605150894
1728329689669989600,2.91098974609375,0.11623875051736832,-0.01565505564212799,-0.1595800817012787,0.6376829147338867,0.7208686470985413,-0.27149349451065063,-0.02435600757598877,0.016268134117126465,-0.021902531385421753,0.7001072657952278,-0.5882899415558094,0.13478948164226034,0.38157094952189385
1728329689680020500,2.9210205078125,0.04772839695215225,-0.037639982998371124,-0.13411226868629456,0.636624276638031,0.7214931845664978,-0.27231788635253906,0.016268670558929443,0.004184305667877197,0.014566361904144287,0.7006502385604281,-0.5880142633755381,0.13446295774671743,0.38111428681619625
1728329689690051600,2.931051513671875,-0.12910568714141846,-0.1325986683368683,-0.2447381168603897,0.6350469589233398,0.7227702736854553,-0.27261409163475037,0.06351560354232788,0.007133901119232178,0.03854423761367798,0.7009749005082121,-0.5880914772930881,0.1335715824678807,0.3807114211320764
1728329689700083500,2.94108349609375,-0.3664977550506592,-0.1400163769721985,-0.2234882265329361,0.6329380869865417,0.7250080704689026,-0.2715744376182556,0.0220453143119812,-0.03520399332046509,0.06757962703704834,0.700733848029405,-0.5889180968689999,0.13186453134232554,0.38047244772845634
1728329689710114600,2.951114501953125,-0.5783470273017883,-0.11335594952106476,-0.23212938010692596,0.6310407519340515,0.7275973558425903,-0.26905328035354614,-0.010160744190216064,-0.08436310291290283,0.04127001762390137,0.6998693555067811,-0.5904207903911515,0.12991015931085498,0.38040708191506506
1728329689720145400,2.9611455078125,-0.7820413112640381,-0.1978551149368286,-0.26354217529296875,0.6288236975669861,0.7310691475868225,-0.2647993862628937,-0.05166006088256836,-0.05125957727432251,0.05766129493713379,0.6983731405409982,-0.59277320148797,0.12735870434247895,0.3803612399030735
1728329689730176500,2.971176513671875,-0.7499140501022339,-0.1035032570362091,-0.17730554938316345,0.6268855333328247,0.734348475933075,-0.2602819502353668,-0.04148221015930176,-0.00026345252990722656,0.06496939063072205,0.6965888162543205,-0.5952411441090676,0.12468765767899105,0.38066376774225646
1728329689740207600,2.98120751953125,-0.6120954751968384,-0.16983595490455627,-0.2152276337146759,0.6250559687614441,0.7374259233474731,-0.2559453547000885,-0.017618894577026367,0.0017403364181518555,-0.04901683330535889,0.6949869652074707,-0.5975479369827202,0.12232655604148704,0.3807437128709929
1728329689750238700,2.99123876953125,-0.4803061783313751,-0.17570890486240387,-0.15188567340373993,0.6233060359954834,0.7399539947509766,-0.25289860367774963,-0.028732120990753174,0.0057735443115234375,-0.049637436866760254,0.693790354335591,-0.5992552878054969,0.12018235898624273,0.38092554183149574
1728329689760269600,3.00126953125,-0.4152369201183319,-0.13318142294883728,-0.19504299759864807,0.6216303706169128,0.7421174049377441,-0.25067397952079773,0.03654211759567261,0.03362417221069336,-0.03591662645339966,0.692866583942744,-0.6005728089146554,0.11821721165079274,0.38114684830673795
1728329689770301700,3.0113017578125,-0.3702249825000763,-0.1441267430782318,-0.24658341705799103,0.6196514964103699,0.7444883584976196,-0.24853354692459106,0.017646968364715576,-0.0019804835319519043,0.01937699317932129,0.6922127674151464,-0.6018170152924263,0.11640236173341564,0.38093065550589283
1728329689780332500,3.02133251953125,-0.4792467951774597,-0.18299157917499542,-0.20123563706874847,0.617556631565094,0.7468944191932678,-0.2465202659368515,0.00671076774597168,-0.023734688758850098,0.04658433794975281,0.6914674293891864,-0.6030544330649164,0.11430317051270439,0.38096296556518766
1728329689790363600,3.03136376953125,-0.5807923078536987,-0.1143660843372345,-0.23453980684280396,0.615609347820282,0.7495101094245911,-0.24343302845954895,0.019797027111053467,-0.0028212666511535645,0.06527139246463776,0.6903569267773267,-0.6047343272160124,0.11216004656841976,0.38095108230282715
1728329689800394500,3.04139453125,-0.6598379015922546,-0.16990338265895844,-0.2560344636440277,0.613487720489502,0.7525432109832764,-0.2393985092639923,-0.018105030059814453,-0.014780640602111816,0.005847424268722534,0.6889487591009303,-0.6068364530933084,0.10977368508128389,0.3808528799040392
1728329689810425600,3.051425537109375,-0.6312704682350159,-0.257637619972229,-0.25762835144996643,0.6110279560089111,0.7556467652320862,-0.2358870804309845,0.006235778331756592,-0.03552347421646118,-0.04046487808227539,0.6876138569797968,-0.6087696812712269,0.1070324083212923,0.3809601712451666
1728329689820457500,3.06145751953125,-0.7873333096504211,-0.303070604801178,-0.2398911565542221,0.6084441542625427,0.7588018774986267,-0.23241189122200012,0.016815125942230225,-0.047193050384521484,-0.05036400258541107,0.6861098140154317,-0.6107347046121785,0.1039094538012406,0.38139109652836517
1728329689830488300,3.07148828125,-0.9234922528266907,-0.2775602638721466,-0.17481815814971924,0.6061833500862122,0.7620497941970825,-0.22764380276203156,-0.009320676326751709,-0.03553307056427002,0.02754002809524536,0.6840131837775395,-0.6132341672832402,0.10060793286663737,0.3820311153688543
1728329689840520700,3.081520751953125,-0.9808071851730347,-0.2652897536754608,-0.11456946283578873,0.6045524477958679,0.7650396823883057,-0.22187983989715576,-0.053481340408325195,-0.06929993629455566,0.038469135761260986,0.6814750631701112,-0.6160792607966097,0.09750089812896026,0.3827945453890414
1728329689850551600,3.091551513671875,-0.9960787892341614,-0.2637331485748291,-0.03521791473031044,0.6034060716629028,0.7676599025726318,-0.2158689796924591,-0.06901282072067261,-0.053807973861694336,0.012637138366699219,0.6786768037252996,-0.6189841845842768,0.09446738778564212,0.3838388805009476
1728329689860582700,3.101582763671875,-1.0103689432144165,-0.2373604029417038,0.007192390505224466,0.602797269821167,0.7698564529418945,-0.20965810120105743,-0.06114089488983154,0.01839733123779297,0.02759021520614624,0.6756880269352232,-0.6219101609443108,0.09164442315602186,0.38506463144135394
1728329689870613500,3.111613525390625,-0.975965678691864,-0.10792980343103409,0.03017839975655079,0.602586030960083,0.7718210816383362,-0.20293445885181427,-0.07132083177566528,0.05224508047103882,0.0348893404006958,0.6725963512665608,-0.6249624350737092,0.08918927697909237,0.38611061355783566
1728329689880644600,3.12164453125,-0.9225517511367798,-0.168839231133461,0.08858311921358109,0.6028014421463013,0.7733621001243591,-0.19631996750831604,-0.07709044218063354,0.04415816068649292,0.02555873990058899,0.6695365499855356,-0.6278967246136217,0.08709605665966126,0.3871444591763064
1728329689890675500,3.131675537109375,-0.7014977335929871,-0.18277816474437714,0.03230307251214981,0.6030135750770569,0.7745360732078552,-0.1909671574831009,-0.02137911319732666,0.039489805698394775,-0.027447164058685303,0.6668570186173788,-0.6302957421052221,0.08510992741731926,0.3883107827756819
1728329689900706600,3.14170654296875,-0.4346442222595215,-0.15369564294815063,-0.014789341017603874,0.602735698223114,0.7755481600761414,-0.18770889937877655,-0.016630470752716064,0.05593377351760864,-0.13716602325439453,0.6651707400846533,-0.6318039399490659,0.08348253640602102,0.3891044354262439
1728329689910738400,3.151738525390625,-0.4364987313747406,-0.18571215867996216,0.014609826728701591,0.6024209260940552,0.7763420939445496,-0.18542370200157166,-0.04370522499084473,0.11930304765701294,-0.09784048795700073,0.6639073686496587,-0.6328867170817722,0.08211305803287891,0.38979330236638965
1728329689920769500,3.16176953125,-0.30108070373535156,-0.1932542324066162,0.05364910513162613,0.6023556590080261,0.7768232822418213,-0.18361175060272217,-0.0157315731048584,0.1385667324066162,-0.010281741619110107,0.6626824018375693,-0.6337688574692393,0.08081561004449794,0.3907146001716574
1728329689930800400,3.17180029296875,-0.2987242341041565,-0.1889733076095581,-0.00576894823461771,0.6022746562957764,0.7771492004394531,-0.18249458074569702,-0.005503535270690918,0.020076751708984375,-0.09814512729644775,0.6618103404002464,-0.6343387805617801,0.07979360721947046,0.39147709778974815
1728329689940831500,3.18183154296875,-0.4362083077430725,-0.2194925993680954,0.0157318152487278,0.6018723249435425,0.7778569459915161,-0.18079885840415955,-0.02844715118408203,-0.04689991474151611,-0.08746594190597534,0.6607045798156621,-0.6351842585508345,0.07836790201730154,0.39226120558113475
1728329689950862300,3.1918623046875,-0.5052704215049744,-0.18473558127880096,0.0503113679587841,0.6018586754798889,0.7784316539764404,-0.17835402488708496,-0.015814483165740967,-0.016316235065460205,0.02541513741016388,0.6591750739662354,-0.6363272403411508,0.07688064972561116,0.39327489701139695
1728329689960893700,3.201893798828125,-0.3858606517314911,-0.15484000742435455,0.023415036499500275,0.6018537282943726,0.7790195345878601,-0.1757861077785492,-0.023530423641204834,-0.0021335482597351074,0.006993353366851807,0.6577159765066718,-0.6374925712561755,0.07556566882695676,0.39408476829743533
1728329689970924500,3.211924560546875,-0.24433700740337372,-0.05842340365052223,-0.0039018059615045786,0.6017851829528809,0.7794883251190186,-0.1739320605993271,-0.04442751407623291,0.00521010160446167,-0.0349607914686203,0.6567230449818847,-0.6383255815853014,0.0746620326755467,0.3945640267414091
1728329689980956700,3.221956787109375,-0.1621670424938202,-0.07748576998710632,-0.022567369043827057,0.6015831232070923,0.7799243927001953,-0.17267119884490967,-0.01578313112258911,0.04423320293426514,-0.029309436678886414,0.6561089189727651,-0.6388939947841914,0.07401937163369493,0.39478662555268995
1728329689990987500,3.231987548828125,-0.10770193487405777,0.009948840364813805,-0.05430265888571739,0.6011867523193359,0.7803908586502075,-0.17194390296936035,0.0064182281494140625,0.058934152126312256,0.0004045218229293823,0.6557905509369415,-0.6392410880728753,0.0734770838632643,0.3948553844186262
1728329690001018600,3.2420185546875,-0.0866861343383789,-0.11127719283103943,-0.06224021315574646,0.6007300615310669,0.7808411717414856,-0.17149478197097778,-0.02405470609664917,0.044369399547576904,0.03822445869445801,0.6556024103612147,-0.6394733182377251,0.07298276663336432,0.39488331520704695
1728329690011049500,3.252049560546875,-0.3178887367248535,-0.1419028490781784,-0.06755401939153671,0.599921464920044,0.7815464735031128,-0.17111173272132874,0.006157517433166504,0.01938730478286743,0.02981533110141754,0.6553510343539245,-0.6397264537026965,0.07207080941847228,0.39505798357667765
1728329690021080600,3.26208056640625,-0.7092559337615967,-0.14442913234233856,0.091196209192276,0.5998222231864929,0.7823506593704224,-0.16775131225585938,0.00907963514328003,-0.062242746353149414,0.0772056132555008,0.6535690898969714,-0.641214885454548,0.0704827430849578,0.39588251621637177
1728329690031111400,3.272111328125,-0.6333112716674805,-0.27338534593582153,0.009535972028970718,0.5999926924705505,0.7830623388290405,-0.16377417743206024,0.06585490703582764,-0.1798824667930603,-0.043943747878074646,0.6513901675519104,-0.6429535894258633,0.06872842603674571,0.3969607350560079
1728329690041142500,3.282142578125,-0.6749812364578247,-0.20742124319076538,-0.00229458836838603,0.599604606628418,0.7842022776603699,-0.15969064831733704,0.029698312282562256,-0.13916748762130737,-0.13843560218811035,0.6493298353249817,-0.644746922544116,0.06675390001709486,0.39776381312179887
1728329690051174400,3.29217431640625,-0.6594141721725464,-0.22177040576934814,0.07647931575775146,0.5994957685470581,0.7850289940834045,-0.15599393844604492,0.031622886657714844,-0.031382203102111816,-0.040310367941856384,0.6471845583560474,-0.6463862083403086,0.0647139851712315,0.39893483838879806
1728329690061205500,3.30220556640625,-0.6394966840744019,-0.30276963114738464,0.07719624042510986,0.5997561812400818,0.7855051159858704,-0.15255838632583618,0.06921952962875366,-0.015653491020202637,-0.0225057452917099,0.6450288129916609,-0.6478965525056398,0.06285588489996738,0.40027104647449435
1728329690071236600,3.312236572265625,-0.6459653377532959,-0.20646227896213531,0.05919407680630684,0.599885880947113,0.7860639095306396,-0.1491311639547348,0.05236613750457764,-0.0295180082321167,0.0029366910457611084,0.6429028984316905,-0.6494004881516744,0.06093785373592124,0.4015485356201677
1728329690081267700,3.322267822265625,-0.6592044234275818,-0.19770687818527222,0.08429622650146484,0.6001815795898438,0.7866170406341553,-0.14496730268001556,0.0212782621383667,-0.03724265098571777,0.08185690641403198,0.6406576021443827,-0.6511553702060068,0.05927085103774707,0.402543674203866
1728329690091298600,3.332298583984375,-0.7533149123191833,-0.280171662569046,0.090345598757267,0.6005694270133972,0.7871408462524414,-0.1404477059841156,0.017502963542938232,-0.033997535705566406,0.09175688028335571,0.6381768161957463,-0.6530509453571585,0.05745093761024748,0.4036758068062163
1728329690101329700,3.34232958984375,-0.9812135696411133,-0.15998481214046478,-0.01939341425895691,0.6007401943206787,0.787972092628479,-0.13494941592216492,0.008436441421508789,-0.030571460723876953,0.08448855578899384,0.6352523174904477,-0.6553505885062578,0.05514433347295963,0.40488181280431995
1728329690111360500,3.352360595703125,-0.929629921913147,-0.14759230613708496,0.016440482810139656,0.600432276725769,0.7892552614212036,-0.12867598235607147,-0.024351954460144043,-0.06163978576660156,0.0470261424779892,0.6322744165455506,-0.6579411400857093,0.052682703074038065,0.40566880957129525
1728329690121392400,3.362392333984375,-0.9616293907165527,-0.25399306416511536,0.019984085112810135,0.6003336906433105,0.7903763055801392,-0.12208542227745056,-0.0032573342323303223,-0.04130709171295166,-0.0156404972076416,0.629072690624925,-0.6606359584128534,0.050173893594287214,0.4065836892976826
1728329690131423500,3.372423583984375,-0.8785754442214966,-0.23891478776931763,0.048155803233385086,0.6002333164215088,0.7913302779197693,-0.11625845730304718,0.004014551639556885,0.04849809408187866,0.02098257839679718,0.6260168712782029,-0.6630281429132081,0.047586266035063975,0.4077155077463011
1728329690141454300,3.382454345703125,-0.7577084302902222,-0.25626179575920105,0.021713541820645332,0.6001632213592529,0.7921201586723328,-0.11112868785858154,-0.03073585033416748,0.11219185590744019,-0.01593129336833954,0.623287529406216,-0.6651216193920675,0.04526464350756237,0.40875038389317747
1728329690151485400,3.3924853515625,-0.6993780732154846,-0.20575101673603058,0.009806016460061073,0.6002225279808044,0.7926671504974365,-0.10682576149702072,-0.06265544891357422,0.10744881629943848,-0.027405858039855957,0.620845543982054,-0.6668757838849824,0.04317186285484215,0.40983373157498104
1728329690161516500,3.4025166015625,-0.7492388486862183,-0.16565392911434174,-0.034118298441171646,0.5999089479446411,0.7935165762901306,-0.10218027234077454,-0.06524103879928589,0.08737343549728394,0.011787161231040955,0.6184875838302729,-0.6687485462249169,0.041051736840792497,0.41056462055914017
1728329690171547400,3.41254736328125,-0.6510133147239685,-0.15794791281223297,-0.012579450383782387,0.5995637774467468,0.7943660020828247,-0.09749691933393478,-0.07496672868728638,0.07752108573913574,0.0550316721200943,0.6161907397077377,-0.6706180807657174,0.03902475375105385,0.41116575740529543
1728329690181578500,3.42257861328125,-0.486845463514328,-0.13611239194869995,-0.004523121751844883,0.5994080901145935,0.7949256300926208,-0.09382422268390656,-0.05529505014419556,0.0832023024559021,0.01414276659488678,0.6143086715015993,-0.672078057064562,0.03740285217021111,0.41174850333088325
1728329690191610600,3.432610595703125,-0.38105788826942444,-0.16429252922534943,-0.01379944384098053,0.5992116928100586,0.7953726649284363,-0.09125585108995438,-0.07595735788345337,0.10512477159500122,-0.021094679832458496,0.6128865360826473,-0.673108036289645,0.03602284021137999,0.4123081547065996
1728329690201641500,3.442641357421875,-0.30775412917137146,-0.16580866277217865,0.01623515412211418,0.5990633964538574,0.7956434488296509,-0.08985843509435654,-0.0845981240272522,0.07406175136566162,-0.029724717140197754,0.611904668771391,-0.6736860765349554,0.03489776334289216,0.41291870514068296
1728329690211672600,3.452672607421875,-0.4644779860973358,-0.16330304741859436,0.01484232023358345,0.5990505218505859,0.7958980202674866,-0.08766210079193115,-0.08167088031768799,0.03616368770599365,0.00822485238313675,0.6105322570235278,-0.6745667457881573,0.03359548285313402,0.4136197620478651
1728329690221703400,3.462703369140625,-0.3162349760532379,-0.1441570520401001,0.03980812430381775,0.5990777015686035,0.7961233854293823,-0.08540079742670059,-0.08128607273101807,-0.0223807692527771,0.012463755905628204,0.6091527770930633,-0.6754653453881828,0.03234454590131367,0.4142863410280621
1728329690231734500,3.472734619140625,-0.37334200739860535,-0.16096335649490356,0.07258843630552292,0.5994488596916199,0.7960402369499207,-0.08355246484279633,-0.05426764488220215,-0.046589553356170654,-0.042118966579437256,0.6078734568489486,-0.6761949298249998,0.03137173139716789,0.41504951506151433
1728329690241765400,3.482765380859375,-0.2520342171192169,-0.2012583166360855,0.03163328766822815,0.5997536182403564,0.7959650158882141,-0.08206918835639954,-0.03475123643875122,0.0060217976570129395,0.009345762431621552,0.6066971859070269,-0.6767894842836438,0.030354581612565917,0.4158764009716606
1728329690251796500,3.49279638671875,-0.33120641112327576,-0.19639798998832703,0.05216892063617706,0.5998643040657043,0.7959837317466736,-0.08107282966375351,-0.0026200413703918457,-0.004144012928009033,-0.059170790016651154,0.6057145120853646,-0.6772047807634002,0.029279152552251077,0.4167090169276894
1728329690261828400,3.502828369140625,-0.422082781791687,-0.18159028887748718,0.1012781411409378,0.6004196405410767,0.7957540154457092,-0.07919469475746155,0.0006087422370910645,0.02689307928085327,0.00816500186920166,0.6042795944593036,-0.6779423629662891,0.028227733158205485,0.4176643721024519
1728329690271859500,3.512859375,-0.47465550899505615,-0.4096411466598511,-0.013874812051653862,0.6007701754570007,0.7957713603973389,-0.0763089582324028,-0.006867647171020508,-0.018488645553588867,0.018539130687713623,0.6024444678828648,-0.6790640437214029,0.02678704649372293,0.41858699587881026
1728329690281890600,3.522890625,-0.44984522461891174,-0.06663504242897034,0.056450482457876205,0.6009901762008667,0.7958166003227234,-0.07407218217849731,-0.03173065185546875,-0.06585139036178589,-0.02433180809020996,0.6008724564630016,-0.6799408012056316,0.02538531470182006,0.41950969656799925
1728329690291921700,3.532921630859375,-0.2559046745300293,-0.26603424549102783,-0.050168368965387344,0.6006830334663391,0.796169102191925,-0.0727648138999939,-0.014287829399108887,0.028614342212677002,-0.0457196906208992,0.5998075544872504,-0.6804730843548799,0.02395777501690559,0.4202538985455799
1728329690301952500,3.542952392578125,-0.4655250012874603,-0.0770946592092514,0.09001749753952026,0.6007591485977173,0.7962999939918518,-0.07067403197288513,0.012796759605407715,-0.003651559352874756,-0.008870072662830353,0.5985573151085422,-0.6812773701260962,0.02289382922479291,0.42079233088043694
1728329690311983600,3.552983642578125,-0.26590052247047424,-0.29247477650642395,0.04540316015481949,0.6013604998588562,0.7960386276245117,-0.06847003102302551,0.08772635459899902,0.018536686897277832,0.002490989863872528,0.5970220178004298,-0.6821193255721723,0.021868055838159536,0.4216631016427168
1728329690322015500,3.563015380859375,-0.25823405385017395,-0.26019594073295593,-0.06947442144155502,0.6009188294410706,0.7963466644287109,-0.06876348704099655,0.11836510896682739,-0.10205650329589844,-0.21474486589431763,0.5964575396060211,-0.682055681615279,0.02045246556796797,0.4226346924743278
1728329690332046600,3.573046630859375,-0.5066034197807312,-0.18444392085075378,0.06943978369235992,0.6007444262504578,0.7966561317443848,-0.06667246669530869,0.05152297019958496,-0.028009891510009766,-0.01130002737045288,0.5950411053470285,-0.6828662125799299,0.018907719940782063,0.4233938133488722
1728329690342077400,3.583077392578125,-0.3096882104873657,-0.19426165521144867,-0.010965041816234589,0.6010295152664185,0.7965977191925049,-0.0647735446691513,0.06542855501174927,0.06596636772155762,0.032989442348480225,0.5936398604167425,-0.6835933782832753,0.017700922697280373,0.42423871855679096
1728329690352108500,3.593108642578125,-0.34894371032714844,-0.13003303110599518,-0.08322086185216904,0.6004235744476318,0.7971887588500977,-0.06309824436903,0.015863537788391113,-0.06548416614532471,-0.04165338724851608,0.5926300223418479,-0.6842413979068253,0.01626609536084314,0.42466299682677744
1728329690362139400,3.603139404296875,-0.051867298781871796,-0.05315396189689636,-0.048969946801662445,0.5998904705047607,0.7976841926574707,-0.061897892504930496,0.000847935676574707,0.015944957733154297,0.08802086114883423,0.5920026857740593,-0.684701922404939,0.015307898049863834,0.4248314747856031
1728329690372170500,3.61317041015625,0.26819685101509094,0.05377035588026047,-0.1418628692626953,0.5992063283920288,0.7981175184249878,-0.06293148547410965,0.013113617897033691,0.08335232734680176,0.01587330549955368,0.5926296379245889,-0.6843247883973241,0.015291820800475224,0.42456560897460266
1728329690382201300,3.623201416015625,0.2997657060623169,0.08504625409841537,-0.1763710379600525,0.5979569554328918,0.7989027500152588,-0.06482106447219849,-0.026240766048431396,0.10159462690353394,0.04763967543840408,0.5939817547160355,-0.6836271920147698,0.015599058112703483,0.4237878815309553
1728329690392233700,3.633233642578125,0.21068641543388367,0.0842035785317421,-0.15316985547542572,0.596699059009552,0.7997080087661743,-0.06646214425563812,-0.018207907676696777,0.11612451076507568,0.11670929193496704,0.5952310760401767,-0.6830211860347627,0.015842564255239715,0.42300229526893135
1728329690402264600,3.6432646484375,0.17663364112377167,0.03615216165781021,-0.18563032150268555,0.5954218506813049,0.8005668520927429,-0.06756795942783356,-0.006447970867156982,0.04841691255569458,0.04646497964859009,0.5962026267619782,-0.6826160950056732,0.015852005922753272,0.422287031991338
1728329690412295700,3.653295654296875,0.19192279875278473,-0.027850577607750893,-0.23249369859695435,0.5936946868896484,0.8017199635505676,-0.06907497346401215,-0.018423259258270264,-0.0028766989707946777,-0.10461585968732834,0.5973136686661487,-0.6820711987754462,0.015536820711718666,0.4216084724044337
1728329690422326500,3.663326416015625,-0.04410092532634735,-0.014136362820863724,-0.20540055632591248,0.591901957988739,0.8029718399047852,-0.06991679221391678,-0.042707741260528564,0.037436485290527344,-0.0795431137084961,0.5980825009024174,-0.6817768061198963,0.014899288579530438,0.42101751775535806
1728329690432357600,3.673357666015625,-0.16307391226291656,0.039634935557842255,-0.19819805026054382,0.5903445482254028,0.8042149543762207,-0.06878753751516342,-0.05270111560821533,0.04907184839248657,0.07130514830350876,0.5980428087953885,-0.6822099322442906,0.013994319765663043,0.4204029446707469
1728329690442388500,3.683388427734375,0.13752372562885284,0.14578773081302643,-0.2589101493358612,0.5885626077651978,0.805593729019165,-0.06791675835847855,-0.08282536268234253,0.06224989891052246,0.06558215618133545,0.5983607726046523,-0.6825414107022,0.013373178341943692,0.4194314093768218
1728329690452419600,3.693419677734375,0.5571454167366028,0.2990711033344269,-0.2824738025665283,0.5865067839622498,0.806955873966217,-0.06951180100440979,-0.1471605896949768,0.18816125392913818,0.09897644072771072,0.600173729078429,-0.6819463434664871,0.013902623103309062,0.41778858113987777
1728329690462451500,3.703451416015625,0.8408160209655762,0.3201707899570465,-0.28297659754753113,0.5844870209693909,0.808087170124054,-0.07327885925769806,-0.1695091724395752,0.31338798999786377,0.18193668127059937,0.6031106017104316,-0.6805322996684842,0.015374008595651733,0.415808760321811
1728329690472482600,3.713482666015625,0.9159449338912964,0.26664456725120544,-0.21611659228801727,0.5826564431190491,0.8088909387588501,-0.07878310233354568,-0.09419220685958862,0.20139342546463013,0.09245491027832031,0.6066351945774208,-0.6784626049315999,0.01723197034731475,0.4139870210528101
1728329690482513400,3.723513427734375,0.8358945846557617,0.22814801335334778,-0.16281235218048096,0.5813661217689514,0.8092422485351562,-0.08449938893318176,-0.027151763439178467,0.0172499418258667,-0.010364525020122528,0.61000717165859,-0.6762995156907451,0.019216424926083112,0.4124812880141519
1728329690492544500,3.73354443359375,0.6454648375511169,0.1122729703783989,-0.06143353879451752,0.5805526375770569,0.809295654296875,-0.08943668752908707,-0.021241843700408936,-0.06999218463897705,-0.04316221922636032,0.6127261290547592,-0.6744226570010494,0.020874296508055064,0.4114424207770339
1728329690502575400,3.743575439453125,0.5282575488090515,0.006454399321228266,0.10397139191627502,0.580820620059967,0.8085970878601074,-0.0939037874341011,-0.021998167037963867,-0.1355319619178772,-0.07441597431898117,0.6146567088964445,-0.6727173409755649,0.022349150062224668,0.4112771401492975
1728329690512606700,3.753606689453125,0.41037505865097046,0.02728159725666046,0.18705829977989197,0.5820912718772888,0.807242214679718,-0.09761957824230194,-0.04655367136001587,-0.1624974012374878,-0.12236642092466354,0.6159198749500236,-0.6712819200846742,0.023891321189245078,0.411645958977505
1728329690522637600,3.763637451171875,0.28553324937820435,-0.0010352600365877151,0.17412865161895752,0.5835520029067993,0.8058527708053589,-0.10034122318029404,-0.09359234571456909,-0.1501063108444214,-0.09925901889801025,0.616723922974101,-0.6702170940992106,0.02526729492493568,0.4120948958246913
1728329690532669400,3.77366943359375,-0.03723123297095299,-0.06073838099837303,0.2605825662612915,0.5852484107017517,0.8044608235359192,-0.10162080824375153,-0.034467339515686035,-0.20447009801864624,-0.045382365584373474,0.6167377010254641,-0.6697051708941689,0.02616451066926468,0.41284968942840267
1728329690542700500,3.783700439453125,-0.17009900510311127,-0.021692175418138504,0.3141573667526245,0.5875902771949768,0.8028474450111389,-0.10086395591497421,0.07836425304412842,-0.20641189813613892,0.04359769821166992,0.6156972199074578,-0.6699646488133154,0.026746767217816127,0.4139430789135541
1728329690552731400,3.7937314453125,-0.07802613079547882,0.0913853794336319,0.23993828892707825,0.5899101495742798,0.8013039827346802,-0.09958814829587936,0.06380677223205566,-0.14191073179244995,0.07631850987672806,0.6146543773229003,-0.6704088073939967,0.02753103423478128,0.4147215891166684
1728329690562762500,3.803762451171875,0.14442718029022217,0.19053485989570618,0.1050901859998703,0.5914967060089111,0.8002099394798279,-0.09897252917289734,-0.022572875022888184,0.010779380798339844,0.06656283885240555,0.6143572617543415,-0.6705920458819614,0.028636417552658684,0.41479070743957913
1728329690572793600,3.813793701171875,0.28486141562461853,0.16929376125335693,-0.05205175653100014,0.5918795466423035,0.7998468279838562,-0.09961717575788498,-0.05632668733596802,0.1288946270942688,0.0501328706741333,0.615025861787243,-0.670302344054649,0.029768767479421875,0.41418804698616063
1728329690582824400,3.823824462890625,0.2879437506198883,0.1756850779056549,-0.06266126036643982,0.5915408730506897,0.7999126315116882,-0.10108979046344757,-0.010135293006896973,0.12496834993362427,0.0023806095123291016,0.6161376137172555,-0.6697123379820156,0.030667422872234618,0.41342390006873514
1728329690592855600,3.83385546875,0.3393808901309967,0.2442314326763153,-0.10254449397325516,0.5911434292793274,0.8000602722167969,-0.10224121063947678,0.022244632244110107,0.14040005207061768,0.032172784209251404,0.6172773073095305,-0.6692343410371906,0.03169843107175752,0.4124190301457374
1728329690602887700,3.8438876953125,0.5568391680717468,0.2795766294002533,-0.14291800558567047,0.5904319882392883,0.800337016582489,-0.10416654497385025,-0.054283976554870605,0.159654438495636,0.047754764556884766,0.6189448239182043,-0.6684516918488702,0.0330009787795272,0.4110846058905805
1728329690612918500,3.85391845703125,0.849643886089325,0.2819069027900696,-0.15411260724067688,0.5895398259162903,0.8004692792892456,-0.10812820494174957,-0.09546035528182983,0.1480933427810669,-0.024791181087493896,0.6215572463226818,-0.6668751430494175,0.034834475983450346,0.4095493808104821
1728329690622949600,3.86394970703125,1.0348247289657593,0.2594149112701416,-0.15679094195365906,0.5886090993881226,0.800308883190155,-0.11421337723731995,-0.06826931238174438,0.15589827299118042,-0.07676570117473602,0.6250272475885622,-0.6644648921419318,0.03714457392702054,0.40797970749881446
1728329690632980500,3.87398046875,0.9750986099243164,0.2628478407859802,-0.17092594504356384,0.5876150727272034,0.8000656962394714,-0.12084481120109558,-0.043837666511535645,0.13584738969802856,-0.020833075046539307,0.6286753244966568,-0.6618303470057286,0.039473851270026505,0.40643542493504503
1728329690643011600,3.884011474609375,0.7484723925590515,0.28855186700820923,-0.15299513936042786,0.5866554379463196,0.7999449968338013,-0.12618879973888397,-0.02206498384475708,0.06124591827392578,0.0572190135717392,0.6318297711555074,-0.6596792799359354,0.04157941992407249,0.4048279229332469
1728329690653042400,3.89404248046875,0.515256404876709,0.2923952639102936,-0.11617988348007202,0.5859895944595337,0.7999200820922852,-0.12939763069152832,0.0027248263359069824,-0.027947545051574707,0.09559944272041321,0.6340753569076216,-0.6583480099513922,0.043348379110347036,0.40329529079562965
1728329690663074600,3.904074462890625,0.3228217661380768,0.22604450583457947,-0.08777832984924316,0.5855259895324707,0.7999588251113892,-0.1312444657087326,0.0007318258285522461,-0.10272377729415894,0.08952690660953522,0.635609453933267,-0.6575560130680832,0.04469738568177727,0.4020234126795055
1728329690673105400,3.91410546875,0.11553880572319031,0.1321488469839096,-0.05870433151721954,0.5851809978485107,0.8000959157943726,-0.13194586336612701,0.006249606609344482,-0.14268624782562256,0.016741931438446045,0.6364422337244973,-0.6572355068035142,0.04548142324340086,0.4011411214500559
1728329690683136500,3.924136474609375,-0.17685817182064056,0.026878874748945236,0.0025478373281657696,0.5850396752357483,0.8003154397010803,-0.13123823702335358,0.016095399856567383,-0.16036194562911987,-0.06051896512508392,0.6363794085944002,-0.6574990538987958,0.04556177674355196,0.40079947132557764
1728329690693167400,3.93416748046875,-0.43155336380004883,-0.057287611067295074,0.04521087929606438,0.5852571129798889,0.8005441427230835,-0.12885411083698273,0.017098844051361084,-0.18492817878723145,-0.07128025591373444,0.6353076170086764,-0.6584441067489331,0.04499225732889627,0.4010129583642346
1728329690703198500,3.944198486328125,-0.47944366931915283,-0.09001439809799194,0.07058494538068771,0.5856404304504395,0.8007954359054565,-0.12550660967826843,0.0030893683433532715,-0.18434035778045654,-0.07575684785842896,0.6336406791925794,-0.6597811711317056,0.043994291508459536,0.40156288404787266
1728329690713229300,3.954229248046875,-0.17995502054691315,-0.06485988944768906,0.05478813871741295,0.5860814452171326,0.8008440136909485,-0.12311486899852753,-0.01180177927017212,-0.11078059673309326,-0.09131693094968796,0.6323374612966679,-0.6607368322427989,0.043236619056894486,0.40212768683441213
1728329690723260400,3.964260498046875,0.21583224833011627,-0.02360645681619644,0.009338099509477615,0.5862934589385986,0.8006216287612915,-0.12355147302150726,-0.026921629905700684,0.03230983018875122,-0.09654133766889572,0.6323614129041967,-0.6605697820108118,0.04326462273550083,0.40236149020357803
1728329690733291500,3.97429150390625,0.6712573766708374,-0.011949853971600533,-0.02047572284936905,0.5862248539924622,0.800108015537262,-0.1271516978740692,-0.035672545433044434,0.20800966024398804,-0.06884747743606567,0.6338251050254935,-0.6591518420738116,0.044079516415249806,0.4022953325026625
1728329690743323600,3.98432373046875,1.0453507900238037,0.05496712774038315,-0.09884163737297058,0.5858075618743896,0.7992903590202332,-0.13403180241584778,-0.003516972064971924,0.2783769965171814,-0.0714736133813858,0.6367995764940386,-0.6564261952468268,0.04570279330320394,0.40187346932957113
1728329690753354500,3.9943544921875,1.1337300539016724,0.13568928837776184,-0.1585662066936493,0.5848549604415894,0.798549234867096,-0.14235030114650726,-0.00016880035400390625,0.24036061763763428,-0.037733957171440125,0.64069867908121,-0.6530994381174433,0.04781183862643803,0.40084935127382487
1728329690763385600,4.004385498046875,0.926988422870636,0.16700834035873413,-0.12092217057943344,0.5839614272117615,0.7978345155715942,-0.1498304158449173,-0.013938963413238525,0.12382686138153076,0.0802503228187561,0.6443639786239824,-0.6500687322565262,0.04995432791455782,0.3996376654375944
1728329690773416400,4.01441650390625,0.546208381652832,0.191462442278862,-0.15440049767494202,0.5831707119941711,0.797490656375885,-0.1546631008386612,0.004872441291809082,-0.06073528528213501,0.135101318359375,0.6469735116956498,-0.6480813193165713,0.05156597424097854,0.3984430999459434
1728329690783447600,4.024447509765625,0.2650432586669922,0.23916365206241608,-0.17367325723171234,0.582168698310852,0.797838568687439,-0.156630739569664,-0.002121150493621826,-0.17471545934677124,0.11982649564743042,0.6485613863552314,-0.6472445048434996,0.05252787550228102,0.3970938179963169
1728329690793478400,4.034478515625,0.171898752450943,0.2628708481788635,-0.1156453862786293,0.5814020037651062,0.7983896732330322,-0.156670480966568,-0.001278221607208252,-0.14310097694396973,0.0967644453048706,0.6494043318793453,-0.6471688338192071,0.05326594885888434,0.3957388933951931
1728329690803510500,4.044510498046875,0.21586674451828003,0.2750454843044281,-0.0805361345410347,0.5810710191726685,0.7986302375793457,-0.15667203068733215,0.016112148761749268,-0.0583806037902832,0.11031579971313477,0.650150064010143,-0.6470891300719319,0.054218490957593166,0.39451342716407717
1728329690813541400,4.054541259765625,0.2978764474391937,0.2872096300125122,-0.0585610531270504,0.580964207649231,0.7986074090003967,-0.1571844220161438,0.0019214749336242676,0.006202280521392822,0.09009145200252533,0.651068402376284,-0.6467888411961363,0.055425509995944845,0.39332205040829515
1728329690823572500,4.064572509765625,0.5574404001235962,0.22883553802967072,-0.06054297834634781,0.5809178948402405,0.7983114123344421,-0.15885014832019806,-0.018906235694885254,0.04943650960922241,-0.009759500622749329,0.6524305686516596,-0.6460138531625311,0.056929990690917726,0.39212175331452676
1728329690833603300,4.074603271484375,0.8219429850578308,0.14974908530712128,-0.017147570848464966,0.5809133052825928,0.7973690032958984,-0.16353099048137665,-0.007869601249694824,0.023508071899414062,-0.13902032375335693,0.6547655710558228,-0.6440314599272636,0.058804624945580995,0.39121289836039547
1728329690843634400,4.084634521484375,0.7924335598945618,0.07999850064516068,-0.018661577254533768,0.5809942483901978,0.7960939407348633,-0.16935163736343384,0.021743059158325195,0.017764031887054443,-0.15909384191036224,0.6573865825094495,-0.6415871143018608,0.06074667526288072,0.3905363200088627
1728329690853665300,4.094665283203125,0.5837864279747009,-0.011456957086920738,-0.015585359185934067,0.5809125304222107,0.7949814200401306,-0.17477135360240936,-0.003901541233062744,-0.01652383804321289,-0.10429666936397552,0.6596666205783179,-0.6393347805771037,0.06217202746215382,0.3901609208752961
1728329690863696400,4.1046962890625,0.3216642737388611,-0.038622528314590454,-0.046132881194353104,0.5806854367256165,0.794321596622467,-0.17848651111125946,-0.006009042263031006,-0.10396826267242432,-0.07390914857387543,0.6611636521191254,-0.6378081689638475,0.06290853346321562,0.3900073547230741
1728329690873728300,4.114728271484375,0.05782344564795494,-0.07159262150526047,-0.09112432599067688,0.5799867510795593,0.7944125533103943,-0.18034492433071136,-0.035202205181121826,-0.09417134523391724,-0.004301741719245911,0.661931131792854,-0.6370861447316833,0.06283934851784986,0.3898971193399802
1728329690883759600,4.124759521484375,-0.05139651894569397,-0.06294135004281998,0.040989771485328674,0.579585611820221,0.7946705222129822,-0.18049761652946472,-0.05982547998428345,0.016303718090057373,0.13639967143535614,0.6619283277334839,-0.6370644390300693,0.06245069397443249,0.38999965615303694
1728329690893790500,4.13479052734375,0.24232929944992065,0.019674278795719147,0.08892906457185745,0.5801790952682495,0.7940396070480347,-0.18136563897132874,-0.03870570659637451,0.03817486763000488,0.12182579934597015,0.6620706336867914,-0.6366889702982876,0.0628039223274964,0.3903144655719989
1728329690903821600,4.144821533203125,0.6265765428543091,0.014366332441568375,-0.07643965631723404,0.580338180065155,0.7932137846946716,-0.18444280326366425,-0.06259238719940186,0.04106038808822632,-0.03590939939022064,0.6633508227593915,-0.6353838257158022,0.06376512229091727,0.39011136484426423
1728329690913852400,4.154852294921875,0.9471694231033325,-0.06398749351501465,-0.12415551394224167,0.5793799161911011,0.7923290729522705,-0.1911378800868988,-0.09349429607391357,0.09657180309295654,-0.13465258479118347,0.6661933926126298,-0.6326272930720456,0.06491351668138538,0.38955795865585147
1728329690923883500,4.164883544921875,0.8718733191490173,-0.09261274337768555,-0.0021531744860112667,0.5787091255187988,0.790922999382019,-0.19883817434310913,-0.029469072818756104,0.14427292346954346,-0.11334145069122314,0.669232466217598,-0.6294404353424053,0.06622424254231592,0.38929043177074424
1728329690933914400,4.174914306640625,0.8550262451171875,-0.06148368865251541,0.03150758519768715,0.5787788033485413,0.7889909744262695,-0.20617471635341644,0.033922433853149414,0.06186950206756592,-0.03886619210243225,0.6719395061913566,-0.6263564587355411,0.06775120537820653,0.38933851226221816
1728329690943946200,4.1849462890625,0.6891517639160156,-0.04152196645736694,-0.032606154680252075,0.5786707401275635,0.7873726487159729,-0.21256573498249054,0.023669779300689697,-0.11482638120651245,-0.07870957255363464,0.6743801167648471,-0.6236530756835316,0.0690939219974442,0.3892224782106829
