time,seconds_elapsed,rotationRateX,rotationRateY,rotationRateZ,gravityX,gravityY,gravityZ,accelerationX,accelerationY,accelerationZ,quaternionW,quaternionX,quaternionY,quaternionZ
1729786658722450000,0.328449951171875,-0.09300240874290466,0.06670209020376205,0.03312577307224274,0.6844191551208496,0.461774080991745,-0.564211905002594,0.004042088985443115,-0.0061009228229522705,0.027941763401031494,0.8843674787690415,-0.2610759134195115,0.38695403641775966,-8.58734078763353e-18
1729786658732481000,0.33848095703125,-0.059568557888269424,0.08024879544973373,0.042145632207393646,0.684930682182312,0.4619602560997009,-0.5634381175041199,0.0058193206787109375,-0.019531697034835815,0.03153204917907715,0.884148665855376,-0.2613316515046633,0.3872811614302343,0.0001959906507105364
1729786658742511900,0.348511962890625,-0.030529048293828964,0.07593756169080734,0.07262790948152542,0.6854782700538635,0.4619123041629791,-0.5628111958503723,-0.002494990825653076,-0.006742656230926514,0.024801552295684814,0.8839713180925766,-0.2614471836471182,0.387607765985339,0.0004015867481021867
1729786658752543000,0.35854296875,-0.018130436539649963,0.07383659482002258,0.06341949850320816,0.6861958503723145,0.46158403158187866,-0.5622058510780334,-0.0069051384925842285,0.01772502064704895,0.008052349090576172,0.8838000045549534,-0.2614197094249561,0.3880165054956164,0.0006461723700398999
1729786658762574000,0.368573974609375,-0.029469909146428108,0.07525792717933655,0.06481046229600906,0.6869691610336304,0.46115347743034363,-0.5616145133972168,-0.0004305243492126465,0.016919642686843872,-0.009857654571533203,0.8836325462084506,-0.2613410840409331,0.3884502309024335,0.0009081052109018921
1729786658772606200,0.378606201171875,-0.029457394033670425,0.08091394603252411,0.04085879400372505,0.6875025033950806,0.46102359890937805,-0.561068058013916,-0.004748106002807617,0.00012746453285217285,-0.014996945858001709,0.8834776265905763,-0.2613864603075635,0.38877123946028064,0.0010733375712512563
1729786658782637000,0.388636962890625,-0.04086045175790787,0.0714157372713089,0.04437869414687157,0.6880110502243042,0.46110478043556213,-0.5603776574134827,-0.007820069789886475,-0.017440229654312134,-0.007157742977142334,0.8832821902838371,-0.2615345880671986,0.3891154303191844,0.0011730560468081884
1729786658792668200,0.398668212890625,-0.06308905780315399,0.06281664967536926,0.04038022458553314,0.6885342597961426,0.4614095091819763,-0.559483528137207,-0.011623919010162354,-0.02383318543434143,0.00014209747314453125,0.8830288854279251,-0.2618467306813559,0.38947981804277215,0.0013183584891553444
1729786658802699000,0.408698974609375,-0.05657542869448662,0.053704217076301575,0.0281459279358387,0.6892291307449341,0.46157774329185486,-0.5584881901741028,-0.011067569255828857,-0.01838621497154236,-0.0000445246696472168,0.8827466925030664,-0.2621104340207024,0.3899410424324652,0.001508549476140781
1729786658812730000,0.418730224609375,-0.06866857409477234,0.044261712580919266,0.04507191479206085,0.6900548934936523,0.46146413683891296,-0.5575616955757141,-0.003699362277984619,-0.01445797085762024,-0.008447825908660889,0.8824836667270871,-0.2622638476313868,0.39043159435789726,0.0018223381459038011
1729786658822761000,0.428760986328125,-0.050124455243349075,0.06304199993610382,0.013874047435820103,0.690625011920929,0.461651474237442,-0.5567001104354858,-0.0055359601974487305,-0.0021788477897644043,-0.02095186710357666,0.8822391744656738,-0.262531688580771,0.3908030989395522,0.0020214891433807908
1729786658832792000,0.4387919921875,0.004979010671377182,0.05858014523983002,0.009416713379323483,0.6907884478569031,0.4620988965034485,-0.5561259388923645,0.012962162494659424,-0.004167348146438599,-0.013454198837280273,0.8820767723372063,-0.2627824773816405,0.39100179200879753,0.0019050445082107975
1729786658842823000,0.448822998046875,0.03711111098527908,0.05673776939511299,0.044663120061159134,0.6909672021865845,0.4619940519332886,-0.5559907555580139,0.006862938404083252,-0.00607675313949585,0.0015169382095336914,0.8820385047782227,-0.26270296091314205,0.39114161516248747,0.0018333402330033609
1729786658852855000,0.45885498046875,0.01946580782532692,0.04832857474684715,0.02387874573469162,0.6911978721618652,0.4614887535572052,-0.5561237931251526,0.00972980260848999,0.0103435218334198,0.009508132934570312,0.8820762487227576,-0.26241262546669114,0.39125147537302807,0.0018493682905946153
1729786658862886000,0.468885986328125,-0.009116435423493385,0.044472794979810715,-0.003139557782560587,0.6914095878601074,0.46111544966697693,-0.5561702847480774,0.002361774444580078,-0.0020700395107269287,0.022845029830932617,0.8820894035602089,-0.26220081487599173,0.39136375848610416,0.0018571880571396303
1729786658872917000,0.4789169921875,-0.019156552851200104,0.04328182712197304,0.010395958088338375,0.6916601657867432,0.46087196469306946,-0.5560604333877563,-0.017252206802368164,-0.024180710315704346,0.025893807411193848,0.8820581294647768,-0.26209070578556665,0.39150765372919516,0.0018984277510340072
1729786658882948000,0.488947998046875,-0.03672182932496071,0.03174533694982529,-0.0037893690168857574,0.6918399930000305,0.46079662442207336,-0.5558991432189941,-0.007117152214050293,-0.027523338794708252,0.03218698501586914,0.8820123480462297,-0.262080520425318,0.39161743386270226,0.001940529340165446
1729786658892979200,0.498979248046875,-0.059454839676618576,0.02230895683169365,-0.016695845872163773,0.6918980479240417,0.4609255790710449,-0.5557199716567993,-0.012424170970916748,-0.021792888641357422,0.031199097633361816,0.8819614190573687,-0.2621975779497509,0.3916534604980857,0.0020052488980552103
1729786658903010000,0.509010009765625,-0.024825558066368103,0.01993437670171261,-0.008002223446965218,0.6917343735694885,0.46117115020751953,-0.5557200312614441,-0.015571653842926025,-0.0025224685668945312,0.015543580055236816,0.8819615025953895,-0.26232875961504387,0.39156557765667843,0.001987656838163098
1729786658913041200,0.519041259765625,-0.015456023626029491,0.006044660694897175,0.00005064299330115318,0.691818356513977,0.46111762523651123,-0.555659830570221,0.0010069012641906738,0.002413809299468994,0.00025522708892822266,0.8819442986992279,-0.26232677076912897,0.39160533143506404,0.002039761806631834
1729786658923073000,0.529072998046875,-0.020270220935344696,-0.010586780495941639,-0.008563351817429066,0.6918737292289734,0.46112334728240967,-0.5555860996246338,0.007451772689819336,0.001507878303527832,-0.0008714199066162109,0.8819232752219395,-0.2623541324094641,0.3916340931535027,0.0020798427191424658
1729786658933104000,0.539104248046875,-0.04404958337545395,0.0010978388600051403,-0.022544149309396744,0.6918925642967224,0.4615500569343567,-0.5552083253860474,0.0017414689064025879,-0.015993446111679077,0.011064648628234863,0.8818162531223862,-0.2626266331088506,0.3916925878932098,0.0020766307961969693
1729786658943135000,0.549135009765625,-0.04672352969646454,-0.004464013502001762,-0.04272265359759331,0.6918970346450806,0.46209049224853516,-0.5547528862953186,-0.004870116710662842,-0.032937079668045044,0.021885454654693604,0.8816871661884903,-0.26294767744568076,0.3917678696183971,0.0020224810983478668
1729786658953166000,0.559166015625,-0.06549056619405746,-0.021324221044778824,-0.017389599233865738,0.6918056607246399,0.46249982714653015,-0.5545256733894348,-0.016650080680847168,-0.02347397804260254,0.018453896045684814,0.881622674579758,-0.26321247179359053,0.3917350481371282,0.0020528429470553088
1729786658963197000,0.569197021484375,-0.07945697754621506,-0.01953047513961792,-0.020786993205547333,0.6918785572052002,0.46281901001930237,-0.5541684031486511,-0.004577040672302246,0.004267781972885132,0.011169075965881348,0.8815210223024051,-0.26349734564578275,0.3917715536818306,0.0022179699988127567
1729786658973228000,0.57922802734375,-0.06685196608304977,-0.00957131665199995,-0.036503639072179794,0.691874086856842,0.4633055031299591,-0.5537672638893127,0.013646483421325684,0.009915292263031006,0.018504202365875244,0.8814069260390671,-0.2638487998609704,0.3917909902063278,0.002310936211404622
1729786658983259000,0.5892587890625,-0.041941624134778976,-0.00913210865110159,-0.020256226882338524,0.6916582584381104,0.4638899862766266,-0.5535475015640259,0.009635627269744873,0.008705228567123413,0.01973402500152588,0.8813446878181024,-0.26418586931552707,0.39170407121131484,0.0022818698751061873
1729786658993290000,0.5992900390625,-0.03448477387428284,-0.0017892420291900635,-0.0050525059923529625,0.6915680170059204,0.46415916085243225,-0.5534346699714661,0.013357460498809814,0.01795750856399536,0.01617264747619629,0.8813125886657274,-0.26436964484403236,0.39165209561556336,0.0023304216865143385
1729786659003322000,0.609322021484375,-0.032359905540943146,0.0017090332694351673,-0.019373122602701187,0.6915735602378845,0.4643401503562927,-0.5532758235931396,0.020187795162200928,0.017044097185134888,0.010764837265014648,0.8812674062426898,-0.26449768085813186,0.391667048249936,0.0023568596590740356
1729786659013353200,0.619353271484375,-0.05195092037320137,-0.0031195441260933876,0.00862016249448061,0.6917270421981812,0.4643848240375519,-0.5530465245246887,0.0016933083534240723,0.00460931658744812,-0.0007407665252685547,0.8812020332131806,-0.2646041509923651,0.39174148371595247,0.002494754600611448
1729786659023384000,0.629384033203125,-0.060683224350214005,0.009561469778418541,0.010471592657268047,0.6920807957649231,0.46425867080688477,-0.5527098774909973,-0.008395493030548096,-0.002268284559249878,-0.005060017108917236,0.8811057983537853,-0.2646810515386928,0.3919043351044966,0.0027626043231310728
1729786659033415200,0.639415283203125,-0.051775749772787094,0.01398178469389677,0.008538403548300266,0.6923142671585083,0.4643164277076721,-0.5523686408996582,-0.003807246685028076,-0.01601320505142212,-0.007384777069091797,0.8810082652471922,-0.2648262827377188,0.39202387607937716,0.002948623259568473
1729786659043446000,0.649446044921875,-0.04161306098103523,0.01966523751616478,0.025518186390399933,0.692477285861969,0.46458661556243896,-0.5519369840621948,-0.01826775074005127,-0.006029486656188965,-0.009891629219055176,0.8808853758661,-0.2650746967552815,0.39213122952935253,0.0030783482273565722
1729786659053477000,0.65947705078125,-0.003375392407178879,0.03212004154920578,0.04289424791932106,0.6929488778114319,0.4646104574203491,-0.5513247847557068,-0.01291048526763916,0.013477891683578491,-0.012533307075500488,0.8807110778661417,-0.26521030383285527,0.39242974709337836,0.003232221985568868
1729786659063508000,0.669508056640625,0.027001354843378067,0.051373258233070374,0.05006800591945648,0.6935564279556274,0.4643556475639343,-0.5507751107215881,0.0014812946319580078,0.027053624391555786,-0.014120519161224365,0.8805545095933586,-0.2651670453783771,0.3928089654051244,0.003350788633126713
1729786659073540000,0.6795400390625,0.04036723077297211,0.059640511870384216,0.05551762878894806,0.6942049860954285,0.46403029561042786,-0.5502320528030396,0.010323762893676758,0.019398629665374756,-0.02194201946258545,0.8804001658762872,-0.2650517813484233,0.39323214479449853,0.003398732879965269
1729786659083571000,0.689571044921875,0.0212672371417284,0.058462969958782196,0.07670015096664429,0.6949388980865479,0.4635607600212097,-0.5497010946273804,0.0051953792572021484,0.018113374710083008,-0.03576338291168213,0.8802488167843955,-0.26489045656536964,0.3936781752292373,0.003528582409913236
1729786659093602000,0.69960205078125,-0.001260176533833146,0.0720948874950409,0.08547259867191315,0.6956008672714233,0.463001549243927,-0.5493351221084595,0.009416162967681885,0.022166907787322998,-0.0393490195274353,0.8801439700465145,-0.26471181916001496,0.39403058820165565,0.0037655537001887516
1729786659103633000,0.7096328125,-0.005599264986813068,0.0757235512137413,0.1017325296998024,0.6962875127792358,0.4623953700065613,-0.5489755868911743,0.015245020389556885,0.02196437120437622,-0.029652953147888184,0.8800405351645045,-0.26453226125489776,0.39437910720691227,0.004060633470515774
1729786659113664300,0.719664306640625,-0.012961573898792267,0.07997209578752518,0.14203307032585144,0.6972306370735168,0.461445152759552,-0.5485779643058777,0.012196183204650879,0.029124915599822998,-0.02353513240814209,0.8799252283192974,-0.26424297851114165,0.3948248562943495,0.004537419996857024
1729786659123695000,0.729695068359375,-0.007585450075566769,0.08616320043802261,0.15330196917057037,0.6982103586196899,0.46047404408454895,-0.5481476187705994,0.024674654006958008,0.03641313314437866,-0.01722097396850586,0.8797999034951134,-0.2639774683712079,0.3952746832552715,0.005085908697978612
1729786659133726200,0.739726318359375,-0.018125975504517555,0.0677085593342781,0.16608594357967377,0.6991664171218872,0.45957791805267334,-0.5476809144020081,0.019095182418823242,0.023042291402816772,-0.006518304347991943,0.8796637377975967,-0.26376981034603186,0.3957082752974774,0.005660159146658769
1729786659143757000,0.749757080078125,-0.03709566965699196,0.06782280653715134,0.16415143013000488,0.7001250386238098,0.4587838649749756,-0.5471217036247253,-0.0015472769737243652,0.0035879313945770264,0.002810180187225342,0.8795004620262104,-0.26365612086010237,0.3961370974666392,0.006295165097335134
1729786659153789000,0.759788818359375,-0.051879677921533585,0.08805910497903824,0.1672220528125763,0.7011634111404419,0.4579790532588959,-0.5464658141136169,-0.00249403715133667,-0.00929442048072815,0.008440971374511719,0.8793088544792653,-0.26356604049246257,0.3966106735069154,0.006975160987510711
1729786659163820000,0.769820068359375,-0.05212608724832535,0.0918121337890625,0.15030938386917114,0.702104926109314,0.4572613537311554,-0.5458576679229736,-0.01127856969833374,-0.01840338110923767,0.022404968738555908,0.8791307440116688,-0.2635003932866969,0.3970373968763819,0.007607884535715654
1729786659173851100,0.77985107421875,-0.05107147619128227,0.09300896525382996,0.14725260436534882,0.7029037475585938,0.45666739344596863,-0.5453266501426697,-0.025871336460113525,-0.019991397857666016,0.025093436241149902,0.878974849212948,-0.26345906592264123,0.3973990391109485,0.008153517093258586
1729786659183882000,0.789882080078125,-0.06592525541782379,0.1004689484834671,0.1415124237537384,0.7038049697875977,0.4561411440372467,-0.5446042418479919,-0.02895456552505493,-0.013437896966934204,0.011813044548034668,0.8787641091566818,-0.2634756923422209,0.39784223550733744,0.008702971622031945
1729786659193913000,0.7999130859375,-0.06921132653951645,0.10404770821332932,0.1301596313714981,0.7047135829925537,0.455828458070755,-0.5436904430389404,-0.011171102523803711,-0.004961758852005005,0.01433253288269043,0.8784990035375734,-0.2636118017055599,0.39832598826689986,0.009209730851143438
1729786659203944000,0.80994384765625,-0.06154755502939224,0.11230803281068802,0.13143235445022583,0.7057281732559204,0.4555504322052002,-0.5426061749458313,-0.010171592235565186,-0.009429246187210083,0.012347936630249023,0.878185112786492,-0.26377311602853676,0.39889930473354984,0.009692687434524071
1729786659213975000,0.81997509765625,-0.05637276545166969,0.12680521607398987,0.12601922452449799,0.7068902850151062,0.4551331102848053,-0.5414423942565918,-0.007885277271270752,-0.009851157665252686,0.015120983123779297,0.8778482149123906,-0.2638651737814021,0.3995672458091855,0.010178544220406323
1729786659224007200,0.830007080078125,-0.06799586117267609,0.13468141853809357,0.1143636405467987,0.7080637216567993,0.4547021687030792,-0.5402699112892151,-0.008509337902069092,-0.012624531984329224,0.022798597812652588,0.8775091520332358,-0.2639255986356462,0.40026030335012575,0.010608190913448496
1729786659234038000,0.8400380859375,-0.05423238128423691,0.1304970532655716,0.10919284075498581,0.7092779874801636,0.45422446727752686,-0.539077639579773,-0.021671295166015625,-0.019318491220474243,0.010726869106292725,0.8771639453097271,-0.2639676281117462,0.40097662976406856,0.011049655010534511
1729786659244069000,0.850069091796875,-0.06056970730423927,0.12850713729858398,0.09779584407806396,0.7104687690734863,0.45377081632614136,-0.5378904342651367,-0.025562822818756104,-0.022771090269088745,-0.009518682956695557,0.8768204581059132,-0.2640037736528071,0.4016924192651195,0.011447811860689798
1729786659254100000,0.860099853515625,-0.03582894057035446,0.12951035797595978,0.06880440562963486,0.7115137577056885,0.45341944694519043,-0.5368044376373291,-0.027340173721313477,-0.026875227689743042,-0.015060245990753174,0.8765069678121901,-0.26403921282089965,0.4023444703901041,0.011737419938453602
1729786659264131000,0.870131103515625,-0.03776911646127701,0.11196725070476532,0.05588514357805252,0.7122600674629211,0.45321953296661377,-0.5359828472137451,-0.03235906362533569,-0.03470146656036377,-0.004925966262817383,0.876270606913951,-0.2640709690244993,0.4028338320593344,0.011885441924584444
1729786659274162200,0.880162109375,-0.0385824479162693,0.11329351365566254,0.03454763442277908,0.7130255699157715,0.45317623019218445,-0.535000741481781,-0.02995067834854126,-0.04024288058280945,-0.0010253190994262695,0.8759887355427634,-0.2641935309596214,0.4033626162087664,0.012005176161085145
1729786659284192300,0.890192138671875,-0.0326627753674984,0.10399545729160309,0.009178095497190952,0.7136521935462952,0.4532357454299927,-0.5341140031814575,-0.011412322521209717,-0.034427791833877563,0.003672778606414795,0.8757353749779458,-0.2643159825630259,0.40383172046389865,0.012017340891100984
1729786659294224400,0.900224365234375,-0.02100212126970291,0.10799818485975266,0.013322240673005581,0.7142440676689148,0.4533129036426544,-0.5332568287849426,-0.01027989387512207,-0.023564398288726807,-0.00012946128845214844,0.8754914479449514,-0.2644155720043479,0.40429690660641193,0.01196426851835204
1729786659304255200,0.910255126953125,-0.03370766341686249,0.10867846757173538,-0.0006367187015712261,0.7148809432983398,0.4533797800540924,-0.5323456525802612,0.002739846706390381,-0.012416034936904907,0.01360785961151123,0.8752320720436026,-0.264507688388382,0.4047997710798191,0.011896568662618318
1729786659314286300,0.920286376953125,-0.062464214861392975,0.0996817797422409,0.0013787616044282913,0.7154021263122559,0.4536326229572296,-0.5314292311668396,0.00556027889251709,-0.01395067572593689,0.0284842848777771,0.8749708424020605,-0.2647160601570817,0.40522930410256336,0.011851363879558006
1729786659324317200,0.930317138671875,-0.04793740063905716,0.10001280158758163,0.009374636225402355,0.7158708572387695,0.45383238792419434,-0.5306270122528076,0.0008497238159179688,-0.0010583698749542236,0.017641782760620117,0.8747416756594426,-0.2649041720481789,0.40560113428068556,0.011850359844503396
1729786659334348300,0.940348388671875,-0.06428175419569016,0.08995697647333145,0.03915517032146454,0.7163859605789185,0.45380699634552,-0.5299530029296875,0.017225980758666992,0.016804546117782593,0.006469786167144775,0.8745475475878468,-0.2650021987038672,0.4059523686633131,0.011955882512620872
1729786659344379100,0.950379150390625,-0.08565322309732437,0.08388038724660873,0.03747737780213356,0.7169370055198669,0.45373445749282837,-0.5292694568634033,0.018872201442718506,0.02678006887435913,0.00397038459777832,0.8743489504494215,-0.26513224184627504,0.40628826448324284,0.012185599465215987
1729786659354410200,0.96041015625,-0.10099142789840698,0.09081898629665375,0.031361427158117294,0.7174856662750244,0.4537379741668701,-0.5285226106643677,0.01485985517501831,0.009717226028442383,0.0212746262550354,0.8741314055286473,-0.2653370617183084,0.4066140082207915,0.012469972616972276
1729786659364441000,0.970441162109375,-0.06591640412807465,0.08142969757318497,0.03037712350487709,0.718116283416748,0.4537157118320465,-0.5276845693588257,0.0005421042442321777,-0.005320906639099121,0.026311218738555908,0.8738881925320299,-0.2655167218447292,0.4070117876894713,0.01271234998394317
1729786659374473200,0.98047314453125,-0.05096621438860893,0.07493744790554047,0.04879128560423851,0.7186945080757141,0.45354583859443665,-0.5270429253578186,-0.005941271781921387,-0.007363647222518921,0.017628252506256104,0.8737013198017158,-0.26558489512174993,0.40736126914413184,0.012934346534248176
1729786659384504300,0.99050439453125,-0.07249867171049118,0.07593835890293121,0.03007911518216133,0.7193620800971985,0.45347458124160767,-0.5261929631233215,-0.0016191601753234863,-0.008268862962722778,0.010216951370239258,0.8734547877137516,-0.2657317855619322,0.4077868629728091,0.013162295586021059
1729786659394535400,1.000535400390625,-0.09978089481592178,0.05789465084671974,0.016304180026054382,0.719995379447937,0.4536992311477661,-0.5251319408416748,-0.006524980068206787,-0.02042597532272339,0.014847517013549805,0.8731476661445536,-0.266061631237706,0.408222045469378,0.013378674179526978
1729786659404566300,1.010566162109375,-0.12156394869089127,0.03525862842798233,0.0415155291557312,0.7203963994979858,0.45411422848701477,-0.5242224335670471,-0.025465428829193115,-0.020963042974472046,0.009329915046691895,0.8728825667703836,-0.2665240893398455,0.4084772831329883,0.013677902313640066
1729786659414597400,1.020597412109375,-0.11621499061584473,0.031737666577100754,0.003934064880013466,0.7207158207893372,0.45461854338645935,-0.5233457088470459,-0.019147276878356934,-0.02340516448020935,0.0017392635345458984,0.8726269459851272,-0.26703022802124615,0.4086832615728676,0.013968014004378082
1729786659424628200,1.030628173828125,-0.09904998540878296,0.04450565576553345,-0.06505458801984787,0.720734179019928,0.4556024670600891,-0.5224640965461731,-0.018890976905822754,-0.059743672609329224,0.015673935413360596,0.8723743298201895,-0.2676739842090129,0.4088014007235004,0.01396934099412308
1729786659434659300,1.040659423828125,-0.05565457418560982,0.02540253847837448,-0.025564171373844147,0.7207480669021606,0.456452339887619,-0.5217024683952332,-0.04965132474899292,-0.0660867691040039,0.02614271640777588,0.872157794377102,-0.2681774117359387,0.40893721426542295,0.013857489927426764
1729786659444690200,1.050690185546875,-0.009708123281598091,0.0013960590586066246,0.005194271914660931,0.7208787202835083,0.45661669969558716,-0.5213781595230103,-0.0262070894241333,-0.0064671337604522705,0.01669365167617798,0.8720641823172871,-0.2683221216703531,0.40904054578783955,0.013900247104636618
1729786659454722000,1.06072216796875,-0.04723472520709038,-0.002235427498817444,-0.03339626267552376,0.7208616137504578,0.45680415630340576,-0.5212374925613403,0.025705158710479736,0.011686474084854126,-0.005938470363616943,0.8720237588737754,-0.26844483038415584,0.4090459797725336,0.01390598883482011
1729786659464753200,1.070753173828125,-0.12128651887178421,-0.028372064232826233,-0.04604627564549446,0.7206254005432129,0.45748618245124817,-0.5209658145904541,0.005784451961517334,-0.008297950029373169,-0.0027616024017333984,0.871945353054092,-0.2688718502965715,0.4089315628604238,0.013935035952421586
1729786659474784300,1.0807841796875,-0.1565297245979309,-0.027107063680887222,-0.043904028832912445,0.7203757166862488,0.4583835303783417,-0.5205221772193909,-0.011376142501831055,-0.014200210571289062,0.019057273864746094,0.8718153029540641,-0.2695076934763259,0.4087841802994208,0.014112982221839633
1729786659484815400,1.0908154296875,-0.1773395985364914,-0.03481408953666687,-0.05722329765558243,0.7199581265449524,0.45949849486351013,-0.5201167464256287,0.018933415412902832,-0.02003014087677002,0.04709428548812866,0.8716960033824043,-0.2702668795423434,0.4085308204589897,0.014298353134329596
1729786659494846500,1.100846435546875,-0.18750114738941193,-0.03422872722148895,-0.06435684114694595,0.7195094227790833,0.460740864276886,-0.5196382999420166,0.022525429725646973,-0.019960254430770874,0.0562136173248291,0.8715557170773305,-0.2711053228393567,0.4082679767160581,0.014483055291864277
1729786659504877300,1.110877197265625,-0.2007284015417099,-0.06615625321865082,-0.02311246655881405,0.719191312789917,0.46177223324775696,-0.5191630125045776,0.016114354133605957,-0.0007431507110595703,0.04874980449676514,0.8714134719449272,-0.27190195852815047,0.40802919177806285,0.014834521149354579
1729786659514908400,1.120908447265625,-0.16961203515529633,-0.06401772797107697,-0.01873715966939926,0.7188154458999634,0.4625808298587799,-0.5189636945724487,0.010676681995391846,0.034535229206085205,0.02351081371307373,0.8713480761264382,-0.2726027604536887,0.40768356002088696,0.01530961828537615
1729786659524940300,1.130940185546875,-0.1854417324066162,-0.04912005737423897,-0.02829977124929428,0.7183817028999329,0.4636986553668976,-0.5185666084289551,0.026247143745422363,0.030869245529174805,-0.004046976566314697,0.8712285635326615,-0.27342414466145054,0.40737689521031645,0.015625817146225126
1729786659534971100,1.14097119140625,-0.1801561564207077,-0.048869989812374115,-0.02100563980638981,0.7180994153022766,0.46479788422584534,-0.5179731845855713,0.023264050483703613,0.017852872610092163,0.003004312515258789,0.8710523354525254,-0.27425983471388776,0.407179253848803,0.01595299791260667
1729786659545002200,1.151002197265625,-0.16048945486545563,-0.057083070278167725,0.02364278957247734,0.717861533164978,0.4655747711658478,-0.5176051259040833,0.011752665042877197,0.03251791000366211,0.009578943252563477,0.8709381834416647,-0.27495111105523107,0.406938980732263,0.016410414245880623
1729786659555033000,1.161033203125,-0.15888355672359467,-0.041495587676763535,0.0031367139890789986,0.7177371382713318,0.46619242429733276,-0.5172213912010193,0.026861190795898438,0.029214680194854736,-0.013189435005187988,0.8708185899704438,-0.2755698482190847,0.406756139060511,0.016902335939997275
1729786659565064200,1.171064208984375,-0.16643521189689636,-0.020267903804779053,-0.016717951744794846,0.7177891135215759,0.46702641248703003,-0.5163963437080383,0.029708445072174072,-0.006439894437789917,-0.029029130935668945,0.8705740909581452,-0.27630787189542777,0.40676256478840933,0.017290835877510364
1729786659575095300,1.18109521484375,-0.08989064395427704,-0.016782626509666443,0.022166065871715546,0.7179949283599854,0.4675765633583069,-0.5156117081642151,-0.016426384449005127,0.0008835494518280029,-0.025709152221679688,0.870341705210877,-0.2768630464179099,0.40686730617124567,0.017640102382069207
1729786659585126100,1.191126220703125,-0.05473651736974716,-0.016999993473291397,0.07271046936511993,0.7183878421783447,0.4675443172454834,-0.5150933265686035,-0.018543601036071777,0.018585413694381714,-0.013837337493896484,0.8701838733853433,-0.27709933144137955,0.4070249503232716,0.01807067108172378
1729786659595158300,1.201158203125,-0.07030242681503296,0.002039478626102209,0.029913466423749924,0.7186394333839417,0.46777668595314026,-0.514531135559082,0.007724642753601074,0.0018735826015472412,-0.010981559753417969,0.8700162238476183,-0.27742658768588396,0.40714729472953254,0.018365082201378346
1729786659605189400,1.211189453125,-0.02608696185052395,0.01562809944152832,0.034315939992666245,0.7188266515731812,0.46795496344566345,-0.5141072869300842,0.0032191872596740723,-0.027006477117538452,-0.02832740545272827,0.8698902865401479,-0.27766222782701006,0.4072468987322521,0.018559225194607107
1729786659615220200,1.22122021484375,0.04394565150141716,0.010592860169708729,0.06385385990142822,0.7191780209541321,0.46757087111473083,-0.5139654278755188,-0.027115702629089355,-0.003825753927230835,-0.0434686541557312,0.8698454482022137,-0.27755018007453564,0.4074103256730532,0.01875337828422924
1729786659625251300,1.231251220703125,0.05028923228383064,0.01703808270394802,0.04744718596339226,0.7194808125495911,0.4670538902282715,-0.5140116214752197,-0.00976407527923584,0.01530689001083374,-0.04658102989196777,0.8698571095499219,-0.2772849994893305,0.40756254092450855,0.01882258007380231
1729786659635282200,1.2412822265625,0.001513172872364521,0.016799196600914,0.030545704066753387,0.7197269797325134,0.4667274057865143,-0.5139635801315308,0.0005793571472167969,-0.00592726469039917,-0.029218852519989014,0.8698418245965699,-0.2771371291999049,0.4076925694693315,0.018891118937500846
1729786659645313300,1.251313232421875,-0.026485837996006012,0.00701943039894104,0.05197029933333397,0.7199938893318176,0.46634504199028015,-0.5139367580413818,-0.011894583702087402,-0.02271103858947754,0.005941152572631836,0.8698295594977729,-0.2770210899111353,0.4077878466926449,0.01909965831501489
1729786659655344000,1.26134423828125,-0.030720531940460205,0.0005663246847689152,0.05666811764240265,0.7200524210929871,0.46607232093811035,-0.5141021609306335,-0.014852344989776611,-0.012199640274047852,0.026431262493133545,0.869871066792031,-0.27697741977191676,0.4077161233758758,0.019372516174698862
1729786659665375200,1.271375244140625,-0.07994572818279266,0.0083778016269207,0.02988284081220627,0.7199549674987793,0.46632063388824463,-0.5140135288238525,-0.0037990212440490723,-0.014218002557754517,0.02551865577697754,0.8698415021845622,-0.27721395625464446,0.4076096794594943,0.019557660715195855
1729786659675407000,1.281406982421875,-0.12041299790143967,0.005526355467736721,0.03304055333137512,0.7200971245765686,0.4666108191013336,-0.5135506987571716,-0.010304152965545654,-0.019955575466156006,0.03944486379623413,0.869700601323808,-0.2775868257386515,0.4076398119427336,0.019899964435546747
1729786659685438200,1.291438232421875,-0.10071811825037003,-0.02225228026509285,0.06150921434164047,0.7202551960945129,0.46662986278533936,-0.5133117437362671,-0.016580939292907715,-0.0009163916110992432,0.056097328662872314,0.8696206057988585,-0.2778520494105494,0.4076056668656957,0.020389648551004873
1729786659695469000,1.301468994140625,-0.12104629725217819,-0.019954770803451538,0.04940434545278549,0.7202073335647583,0.46672722697257996,-0.5132904648780823,0.0018385052680969238,0.009667396545410156,0.038543760776519775,0.869602865642599,-0.27814080574416405,0.4074217089672831,0.02088357662054516
1729786659705500400,1.31150048828125,-0.17945921421051025,-0.009454137645661831,0.0113863879814744,0.7201031446456909,0.46733349561691284,-0.5128847360610962,0.020421087741851807,-0.016115844249725342,0.03867208957672119,0.8694756915773232,-0.2787279840144527,0.4072693827402281,0.021313813090405292
1729786659715531300,1.32153125,-0.16401739418506622,-0.007312157191336155,0.021446213126182556,0.7200670838356018,0.4680931866168976,-0.512242317199707,-0.010518193244934082,-0.032378435134887695,0.056828439235687256,0.8692800295857712,-0.27943306209225993,0.40718056674274633,0.021756918722741433
1729786659725562400,1.331562255859375,-0.11171005666255951,-0.015237938612699509,0.031361959874629974,0.7201544046401978,0.46852222084999084,-0.5117270350456238,-0.01876896619796753,-0.019929081201553345,0.04621189832687378,0.8691209879755789,-0.279932246255952,0.4071540324668578,0.02218787042986753
1729786659735593200,1.34159326171875,-0.10732436180114746,-0.0160299614071846,0.025533098727464676,0.7202504277229309,0.4688622057437897,-0.511280357837677,-0.0031942129135131836,-0.0058647990226745605,0.011677026748657227,0.8689830009658063,-0.28034441733213766,0.40714472785346884,0.02255570798397898
1729786659745625300,1.351625244140625,-0.1299440562725067,-0.02848082408308983,0.016744401305913925,0.7202921509742737,0.46932119131088257,-0.5108001828193665,-0.005143284797668457,0.002785712480545044,-0.01710820198059082,0.8688350006323222,-0.2808313221452711,0.4071040123042685,0.02293144370367002
1729786659755656200,1.36165625,-0.10658253729343414,-0.0251217782497406,0.019619282335042953,0.7203376293182373,0.4697718918323517,-0.5103214979171753,-0.00985795259475708,0.005554616451263428,-0.04030722379684448,0.8686876136345703,-0.28130664362830093,0.4070698050677648,0.02329246201048877
1729786659765687300,1.371687255859375,-0.10956674814224243,-0.010597007349133492,0.011107555590569973,0.7204026579856873,0.4702618718147278,-0.5097780823707581,0.004755973815917969,0.0036302804946899414,-0.04509252309799194,0.8685223694996991,-0.281794976366906,0.40706577772960856,0.023618560181898392
1729786659775718100,1.38171826171875,-0.0928356945514679,0.007356426678597927,-0.0074988859705626965,0.720453143119812,0.47087734937667847,-0.509138286113739,0.019643843173980713,-0.009253233671188354,-0.02969539165496826,0.8683324260255885,-0.28231188895738496,0.40710055938696454,0.023831677156417347
1729786659785749200,1.391749267578125,-0.028138063848018646,0.0024385801516473293,0.03001546859741211,0.7207209467887878,0.4710107147693634,-0.5086355805397034,0.003140687942504883,-0.009829103946685791,-0.01077359914779663,0.8681822732837864,-0.2825328104708423,0.4072559553839026,0.024025731612998293
1729786659795780000,1.401780029296875,-0.010032296180725098,-0.00011059734970331192,0.020167630165815353,0.7210652828216553,0.4707893431186676,-0.5083523988723755,-0.0009573698043823242,-0.0006203055381774902,-0.010614335536956787,0.868094784091594,-0.2825390462895349,0.40742545044288053,0.024240001752074008
1729786659805811200,1.411811279296875,-0.020926089957356453,0.006143996492028236,0.0002674246206879616,0.7212311625480652,0.47079917788505554,-0.5081079006195068,-0.004724264144897461,-0.002537459135055542,-0.014627695083618164,0.8680220998300315,-0.28260963997972927,0.4075264751507446,0.02432190773389859
1729786659815842000,1.421842041015625,-0.03818310797214508,-0.0036577684804797173,0.002718597650527954,0.7212658524513245,0.4709371328353882,-0.5079308152198792,-0.021116435527801514,-0.014195859432220459,-0.00963205099105835,0.8679691890015493,-0.28273827221923814,0.40754590773558613,0.024388775916568132
1729786659825874400,1.43187451171875,-0.06325303763151169,-0.014317923225462437,0.008056637831032276,0.7211758494377136,0.47112205624580383,-0.5078872442245483,-0.016616523265838623,-0.010321885347366333,0.01493680477142334,0.8679529936086536,-0.28290922189652473,0.40745399516477643,0.024520254382323775
1729786659835905300,1.4419052734375,-0.13139374554157257,-0.0066442908719182014,-0.00010568462312221527,0.7209964990615845,0.4715563654899597,-0.5077386498451233,0.00028634071350097656,-0.013319730758666992,0.03872925043106079,0.8679037636549872,-0.2832754742186858,0.40729067648555706,0.024743179209434682
1729786659845936400,1.451936279296875,-0.14512912929058075,-0.01293861772865057,-0.008655496872961521,0.7208145260810852,0.4722515642642975,-0.5073506832122803,0.004115164279937744,-0.022407233715057373,0.05121976137161255,0.8677839716472806,-0.28384223473279724,0.40713417819786896,0.02502359527271482
1729786659855967200,1.46196728515625,-0.09712112694978714,-0.01088665146380663,-0.007289827801287174,0.7207064628601074,0.4727918803691864,-0.5070010423660278,-0.013309061527252197,-0.009245157241821289,0.04958826303482056,0.8676755350241138,-0.28431172248303493,0.407021293763467,0.02529200865271663
1729786659865998300,1.471998291015625,-0.04948076978325844,-0.011509513482451439,0.013356062583625317,0.7206677794456482,0.4730697572231293,-0.506796658039093,-0.006251335144042969,0.00445401668548584,0.026907742023468018,0.867610348123973,-0.28459137426652353,0.40695136392786957,0.025505616278775917
1729786659876029200,1.482029296875,-0.007877133786678314,0.0003231782466173172,0.003487718291580677,0.7206563949584961,0.47307467460632324,-0.5068082213401794,0.011124491691589355,0.011819064617156982,0.005907952785491943,0.8676107712347007,-0.28463870029093963,0.40691117311678354,0.025603285469358895
1729786659886060300,1.492060302734375,-0.0001945788972079754,-0.0027392441406846046,0.030414942651987076,0.7206717729568481,0.4729222059249878,-0.5069287419319153,0.01017838716506958,0.014824986457824707,-0.012297391891479492,0.867642695599201,-0.28458434884864364,0.4068751359835924,0.025699358394461483
1729786659896092200,1.502092041015625,-0.00022999895736575127,-0.005389089696109295,0.033597152680158615,0.720734179019928,0.47260335087776184,-0.5071372985839844,0.002608656883239746,0.02762550115585327,-0.010074615478515625,0.8676983655508786,-0.2844512295813247,0.4068400730903489,0.025848447667668167
1729786659906123300,1.512123291015625,-0.027860961854457855,0.0013425834476947784,0.033890899270772934,0.720907986164093,0.4724150002002716,-0.5070658326148987,0.007027745246887207,0.017865091562271118,-0.019072532653808594,0.8676722914475621,-0.2844388318542089,0.40689267355637887,0.02603189099931157
1729786659916154000,1.522154052734375,-0.050967078655958176,0.00021846313029527664,0.05264834314584732,0.7212927937507629,0.47230860590934753,-0.5066176056861877,0.004613518714904785,0.0015683174133300781,-0.01935291290283203,0.8675347750286552,-0.28455943411612555,0.4070836936932342,0.026311294128946266
1729786659926185200,1.532185302734375,-0.08746969699859619,-0.002711440436542034,0.06416864693164825,0.7219259142875671,0.4721159338951111,-0.5058948993682861,-0.007188975811004639,0.0021730363368988037,-0.004786252975463867,0.8673121641137506,-0.2847505283609409,0.4073937858647948,0.02677908395339051
1729786659936216300,1.54221630859375,-0.1036265641450882,0.014525070786476135,0.03821241110563278,0.7223954796791077,0.47239476442337036,-0.5049631595611572,-0.002226531505584717,-0.005399525165557861,0.0030405521392822266,0.8670302871351573,-0.2852102236115886,0.40764390389215927,0.027201474726364396
1729786659946247400,1.552247314453125,-0.07227183878421783,0.014554152265191078,0.04020179063081741,0.7226890325546265,0.472805380821228,-0.5041582584381104,-0.0034050345420837402,-0.013775229454040527,0.0045549869537353516,0.8667898183650692,-0.28565677677971074,0.407824809877901,0.02746692658348643
1729786659956278300,1.5622783203125,-0.0031090097036212683,0.016336072236299515,0.0653763860464096,0.7230400443077087,0.47269555926322937,-0.5037578344345093,-0.011171817779541016,0.011877775192260742,0.0016826391220092773,0.866665167302235,-0.285775684774108,0.4079869306578679,0.02775592162758559
1729786659966309400,1.572309326171875,0.01094282791018486,0.02108805626630783,0.054472606629133224,0.7233067750930786,0.47229960560798645,-0.503746509552002,0.008642077445983887,0.02654072642326355,0.005577504634857178,0.8666560615522468,-0.2856398647136464,0.4080889937247375,0.027939296498605708
1729786659976341200,1.58234130859375,-0.006532303057610989,0.03305017948150635,0.035825684666633606,0.7234230041503906,0.47228237986564636,-0.5035955309867859,0.0031394362449645996,-0.0016250312328338623,0.010751843452453613,0.8666102568626293,-0.28567843236607227,0.4081544815355414,0.02800575474287871
1729786659986372400,1.592372314453125,0.002586093731224537,0.019921327009797096,0.04212858900427818,0.7235308289527893,0.4721289277076721,-0.5035845637321472,-0.009816229343414307,-0.02936464548110962,0.012449860572814941,0.8666047091437614,-0.2856284896620892,0.4081961359849844,0.028080944412947156
1729786659996403200,1.6024033203125,-0.021419374272227287,0.0023789783008396626,0.03508292883634567,0.7236344814300537,0.47177207469940186,-0.5037700533866882,-0.011857748031616211,-0.02856534719467163,-0.003111720085144043,0.8666520989654503,-0.28549517029841587,0.40817579507452606,0.028269549068829367
1729786660006434300,1.612434326171875,-0.07275233417749405,-0.0013060374185442924,0.004566032439470291,0.7235876321792603,0.47195062041282654,-0.5036701560020447,-0.01066654920578003,-0.030086606740951538,-0.014991402626037598,0.8666183532927655,-0.2856784756295688,0.40810873111168966,0.02842110706684901
1729786660016465200,1.622465087890625,-0.07610391825437546,-0.0018610404804348946,-0.0056613050401210785,0.7236014008522034,0.4722987115383148,-0.5033237934112549,-0.018263936042785645,-0.03424936532974243,-0.0019404888153076172,0.8665128348971347,-0.28599297190043754,0.40810062814919545,0.02858910263247894
1729786660026496300,1.632496337890625,-0.0709427148103714,-0.009432140737771988,-0.001217021606862545,0.7236220836639404,0.47254690527915955,-0.503061056137085,-0.018223583698272705,-0.019666075706481934,0.01973891258239746,0.8664309623522581,-0.2862492587286803,0.40808188742897705,0.028773056883488864
1729786660036527000,1.642527099609375,-0.04796869307756424,-0.002604595385491848,-0.02131589874625206,0.7233847379684448,0.47314104437828064,-0.5028438568115234,-0.003917694091796875,-0.008709341287612915,0.028402328491210938,0.8663675157612556,-0.28661889048245853,0.40795550477494824,0.028794269106361927
1729786660046558200,1.65255810546875,-0.06878662109375,-0.00739828497171402,-0.031454820185899734,0.7231862545013428,0.47393617033958435,-0.5023805499076843,0.003605067729949951,-0.01254090666770935,0.02481091022491455,0.8662362207729715,-0.28708699161227563,0.40791027506971145,0.028724614725380897
1729786660056590300,1.66259033203125,-0.040911316871643066,0.0019201156683266163,-0.02589893341064453,0.7231417894363403,0.4744226634502411,-0.5019851326942444,0.0004451870918273926,-0.002803981304168701,0.02304220199584961,0.8661217417342364,-0.287410550887088,0.40792477572347513,0.028733723288293992
1729786660066621200,1.67262109375,-0.02288571000099182,-0.009544793516397476,0.0028360430151224136,0.7232527732849121,0.47433483600616455,-0.5019082427024841,0.004209935665130615,0.013519108295440674,0.020264506340026855,0.8660956861790741,-0.2874247410692499,0.40796189669481314,0.028850500845669133
1729786660076652300,1.68265234375,-0.06256334483623505,-0.014283621683716774,-0.012478198856115341,0.723236083984375,0.47421273589134216,-0.502047598361969,0.011062562465667725,0.011703401803970337,0.008853018283843994,0.8661305130447764,-0.28741638236191064,0.40788234816014013,0.029012612831108026
1729786660086683400,1.692683349609375,-0.09200885146856308,-0.021497858688235283,-0.005965171381831169,0.723093569278717,0.47430047392845154,-0.5021700263023376,0.0031636953353881836,-0.0034905672073364258,0.011416792869567871,0.8661586434945009,-0.28755250531588744,0.4077113622170465,0.02922620638072703
1729786660096714200,1.70271435546875,-0.08950175344944,-0.027960019186139107,0.026741378009319305,0.723067045211792,0.47431546449661255,-0.5021941065788269,-0.009795010089874268,0.008197933435440063,0.007488846778869629,0.8661530617819341,-0.2877325495841922,0.40756953959289666,0.029596666339496272
1729786660106745300,1.712745361328125,-0.1015581488609314,-0.029875630512833595,0.022050216794013977,0.7231296300888062,0.4744994342327118,-0.5019300580024719,0.011153757572174072,0.021334946155548096,0.00035834312438964844,0.8660639159486792,-0.28804254009895824,0.40751253982018293,0.029970944168726657
1729786660116776200,1.722776123046875,-0.13624981045722961,-0.03469861298799515,0.014618665911257267,0.7232453227043152,0.47498294711112976,-0.5013056397438049,0.013738811016082764,0.01783013343811035,0.0029535889625549316,0.8658700019992569,-0.2885712509939703,0.40752154774620813,0.030363333150905683
1729786660126808000,1.73280810546875,-0.11677651852369308,-0.03251376003026962,0.025704074651002884,0.7234400510787964,0.4753698706626892,-0.5006576180458069,0.009836256504058838,0.015383273363113403,0.00961446762084961,0.8656667814922359,-0.28907868612745463,0.407559465050933,0.03081973703276721
1729786660136839200,1.742839111328125,-0.0992254838347435,-0.026080092415213585,0.022054746747016907,0.7235674262046814,0.4757634103298187,-0.5000994205474854,0.020283281803131104,0.01236531138420105,0.011345088481903076,0.8654916238997883,-0.28954853887300047,0.40756830899476937,0.03120981612166489
1729786660146870000,1.7528701171875,-0.08594004064798355,-0.023502951487898827,0.014567268081009388,0.723595380783081,0.4763036072254181,-0.49954429268836975,0.01628798246383667,0.004653424024581909,0.004747509956359863,0.865321873062582,-0.2900379659211429,0.4075608251370171,0.03146622040072078
1729786660156901400,1.7629013671875,-0.0771646574139595,-0.02485370822250843,0.041408736258745193,0.7236765027046204,0.47659289836883545,-0.4991509020328522,0.005739331245422363,0.00022897124290466309,0.0010277032852172852,0.8651970685760787,-0.2903914049017522,0.4075504714022858,0.031773585082168154
1729786660166932200,1.77293212890625,-0.08338446915149689,-0.0146828293800354,0.0520872138440609,0.7239292860031128,0.47652995586395264,-0.49884435534477234,0.004342198371887207,-0.005430042743682861,-0.00004184246063232422,0.8650915204978236,-0.29060758670186293,0.4075844191011367,0.03223180806896581
1729786660176963300,1.78296337890625,-0.07583893835544586,-0.010506726801395416,0.02645135670900345,0.7239610552787781,0.4767979681491852,-0.4985418915748596,0.005469977855682373,-0.02902883291244507,0.013861656188964844,0.8649928228682372,-0.290935232146049,0.407536195029379,0.03253182740788832
1729786660186994400,1.792994384765625,-0.07221384346485138,-0.016818419098854065,0.035440593957901,0.7240003347396851,0.4771047532558441,-0.498191237449646,-0.017777860164642334,-0.037682145833969116,0.01377040147781372,0.8648817272071339,-0.29127049971364866,0.4075118143206172,0.03278960176307466
1729786660197025300,1.803025390625,-0.041388023644685745,-0.015626121312379837,0.038178056478500366,0.7240982055664062,0.47726133465766907,-0.4978988766670227,-0.0265885591506958,-0.011151134967803955,-0.006510883569717407,0.8647864428470967,-0.2915259419137051,0.4075085165759078,0.03307173546773002
1729786660207057200,1.81305712890625,-0.021151525899767876,-0.015325503423810005,0.03481847792863846,0.7242200970649719,0.4772668480873108,-0.4977164566516876,-0.021995365619659424,0.008969724178314209,-0.018930912017822266,0.8647261130135049,-0.2916447192677433,0.4075354260978219,0.033271676989670235
1729786660217088300,1.823088134765625,-0.05275925621390343,-0.005981271155178547,0.0035399170592427254,0.7244165539741516,0.4773543179035187,-0.4973466098308563,-0.01598149538040161,-0.003095865249633789,-0.014051735401153564,0.8646121416400003,-0.2918240423075823,0.4076339335643279,0.03345514519173522
1729786660227119000,1.833119140625,-0.028128474950790405,0.005287629086524248,0.01036559883505106,0.7245447039604187,0.4775295555591583,-0.4969915449619293,-0.0064356327056884766,-0.015935927629470825,0.005322813987731934,0.8645042483568337,-0.29202778203263496,0.4077057851384604,0.03358913142726764
1729786660237150200,1.843150146484375,0.0014018528163433075,0.003020960371941328,0.03170790523290634,0.7247048020362854,0.47738832235336304,-0.49689358472824097,-0.008243739604949951,-0.002809494733810425,0.009268432855606079,0.8644706946590703,-0.29202207804925046,0.4077699351358715,0.0337208994557325
1729786660247181000,1.85318115234375,0.012277803383767605,0.008176573552191257,0.013120106421411037,0.7249009609222412,0.4770546853542328,-0.4969279170036316,0.0014783740043640137,0.006252169609069824,-0.006566375494003296,0.8644763451712394,-0.29188191535593455,0.40784922393832207,0.03383033200665792
1729786660257212200,1.863212158203125,-0.0011482571717351675,0.008404807187616825,0.0017217760905623436,0.7252392172813416,0.47665759921073914,-0.49681538343429565,-0.010044574737548828,-0.008365392684936523,-0.018443405628204346,0.8644397689282834,-0.2917209904763552,0.4080332946572135,0.03393453467617727
1729786660267243300,1.8732431640625,0.004019474145025015,0.00834035873413086,0.015163815580308437,0.725448489189148,0.4762783944606781,-0.4968735873699188,-0.022628724575042725,-0.007452130317687988,-0.019483864307403564,0.8644522765684202,-0.29155260439387476,0.4081179863552906,0.03404434532592248
1729786660277275400,1.883275390625,-0.01302742026746273,0.019675571471452713,-0.0007925136014819145,0.725371778011322,0.4762008786201477,-0.4970598518848419,-0.0003809928894042969,0.00020906329154968262,-0.009013235569000244,0.8645055667053099,-0.29149415307703513,0.4080456330683169,0.03405961941455118
1729786660287307800,1.893307861328125,-0.052876099944114685,0.008745850995182991,-0.015823129564523697,0.7250533699989319,0.4766397178173065,-0.4971037209033966,0.00584256649017334,-0.010743111371994019,0.004580497741699219,0.8645217482757003,-0.2916933031941196,0.4078763982230887,0.03396947435846029
1729786660297338600,1.903338623046875,-0.04592524841427803,0.02799198403954506,0.004916238598525524,0.7249383330345154,0.4769243001937866,-0.4969985783100128,-0.009667456150054932,-0.006160140037536621,0.02092432975769043,0.8644892888430129,-0.29189092992827254,0.40779945300422504,0.03402268323979476
1729786660307369700,1.91336962890625,-0.008847389370203018,0.032627642154693604,0.002460537478327751,0.7251876592636108,0.4768840968608856,-0.4966732859611511,0.006349146366119385,-0.002976655960083008,0.027801156044006348,0.8643932355545006,-0.2919303065606403,0.4079706574098104,0.03407239569022606
1729786660317400600,1.923400634765625,-0.017013173550367355,0.022835731506347656,0.01736784726381302,0.7253862023353577,0.4769013226032257,-0.49636682868003845,-0.011320710182189941,-0.007479935884475708,0.019346535205841064,0.8643034493556737,-0.2919907997456901,0.40811512728396365,0.03410312371829683
1729786660327431700,1.933431640625,0.038185566663742065,0.04013834148645401,-0.005748656578361988,0.7255066633224487,0.47686171531677246,-0.4962289035320282,-0.02531135082244873,-0.008111715316772461,0.0011116862297058105,0.8642658842070238,-0.2919571254174473,0.40822369962067495,0.03404438412084505
1729786660337462800,1.943462890625,0.06208477541804314,0.03513319790363312,0.020402785390615463,0.7256094217300415,0.47647157311439514,-0.4964531660079956,-0.01677769422531128,-0.01371830701828003,-0.018546193838119507,0.8643354672205602,-0.29165330673199397,0.40830352343700865,0.03392210010318837
1729786660347494000,1.953493896484375,0.08187305927276611,0.029414910823106766,0.014185369946062565,0.725632905960083,0.4759153425693512,-0.49695220589637756,-0.007722198963165283,0.004034608602523804,-0.029262423515319824,0.8644851645335296,-0.2912173042290343,0.408309163243394,0.03378657056661097
1729786660357525800,1.96352587890625,0.0752287432551384,0.04214295372366905,-0.0017049126327037811,0.7257863283157349,0.475446492433548,-0.49717697501182556,0.006894886493682861,-0.00008946657180786133,-0.024078547954559326,0.8645577669027971,-0.2908354660804378,0.40844368134947345,0.03359290374431275
1729786660367556900,1.973556884765625,0.06083768233656883,0.04797309637069702,-0.005971296690404415,0.7261043190956116,0.4750354290008545,-0.4971053898334503,0.0005496740341186523,-0.01370123028755188,-0.016597002744674683,0.8645438542939363,-0.2905280561102466,0.4087062006898273,0.03341404118943419
1729786660377587700,1.983587646484375,0.07456254959106445,0.0424230694770813,-0.00008384650573134422,0.7263652682304382,0.4748251438140869,-0.4969249367713928,-0.004258453845977783,-0.006105691194534302,-0.01041451096534729,0.864500799600767,-0.2903185012535244,0.4089654067419031,0.033176398457324056
1729786660387618800,1.993618896484375,0.0706646740436554,0.03691064193844795,0.021539956331253052,0.7268157601356506,0.47442007064819336,-0.49665331840515137,-0.00525820255279541,0.010031193494796753,-0.014272034168243408,0.8644282710221688,-0.29004924165904017,0.40932234367379694,0.03302222945683093
1729786660397649700,2.003649658203125,0.04681740328669548,0.047695647925138474,-0.00814124010503292,0.727112889289856,0.4741503596305847,-0.49647587537765503,0.004881680011749268,0.007142424583435059,0.001007676124572754,0.8643827683931697,-0.289845870969712,0.40957469395027707,0.032869705437846765
1729786660407680800,2.0136806640625,0.060378290712833405,0.04061589762568474,-0.0032748463563621044,0.7271330952644348,0.47406110167503357,-0.4965313673019409,0.0029693245887756348,-0.01347455382347107,0.018900692462921143,0.8644080970252503,-0.2896718728997863,0.40966391466652635,0.032622263895121836
1729786660417711600,2.023711669921875,0.07724275439977646,0.017132677137851715,0.041966669261455536,0.7271943688392639,0.4734557569026947,-0.4970192015171051,-0.013617098331451416,0.0016418993473052979,0.011408209800720215,0.8645528580922788,-0.2892288655897436,0.40967921337291435,0.03252732383755027
1729786660427743700,2.03374365234375,0.037220168858766556,0.011297212913632393,0.03253614902496338,0.7271889448165894,0.4728700518608093,-0.4975842833518982,0.004653036594390869,0.025649815797805786,0.014582604169845581,0.8647162092693015,-0.2888325471464843,0.4096139827945362,0.03252614123955971
1729786660437774800,2.04377490234375,-0.013314375653862953,0.015155067667365074,0.01840328425168991,0.727252721786499,0.4725722074508667,-0.4977739751338959,0.007534205913543701,0.005424588918685913,0.028550952672958374,0.864768603259055,-0.2886733906448523,0.40961040231440715,0.03259092695134042
1729786660447806000,2.053805908203125,-0.036940477788448334,0.010431205853819847,0.03511781617999077,0.7274149656295776,0.472340852022171,-0.49775657057762146,-0.002942979335784912,-0.0060475170612335205,0.04740864038467407,0.864756684155684,-0.2886320240060632,0.40965017748802296,0.032774416498378686
1729786660457836800,2.0638369140625,-0.05035402253270149,-0.003680352121591568,0.04339119419455528,0.7275737524032593,0.47225725650787354,-0.49760377407073975,0.004039287567138672,0.008364081382751465,0.06907591223716736,0.8647029894306478,-0.28872135905045415,0.40968048003282437,0.03302475379821998
1729786660467868000,2.073867919921875,-0.05371159687638283,-0.012952093966305256,0.05458339303731918,0.7276646494865417,0.4722389280796051,-0.4974881708621979,0.010097742080688477,0.023107171058654785,0.05403721332550049,0.8646579248878952,-0.2888676660551767,0.40964788304900207,0.033326813264536986
1729786660477898800,2.083898681640625,-0.062131449580192566,-0.010076944716274738,0.058026865124702454,0.727871298789978,0.47214847803115845,-0.49727174639701843,0.017123758792877197,0.026173055171966553,0.016925036907196045,0.864580734352217,-0.2890213395993901,0.40967157418672095,0.03370513819350559
1729786660487929900,2.093929931640625,-0.07514997571706772,-0.019036777317523956,0.04940274730324745,0.72813880443573,0.47205498814582825,-0.49696868658065796,0.015208303928375244,0.019018590450286865,0.0009512603282928467,0.8644769307428102,-0.2891990187677651,0.40973110496340714,0.034116001524607656
1729786660497960700,2.103960693359375,-0.09713730216026306,-0.017961658537387848,0.0576297864317894,0.7282611727714539,0.47217702865600586,-0.4966733455657959,0.0000712275505065918,-0.001153498888015747,0.0016781985759735107,0.8643748578328487,-0.2895011592949072,0.4096979426603395,0.034535212794233085
1729786660507992800,2.113992919921875,-0.09536124020814896,-0.0005332939326763153,0.041412729769945145,0.7284480333328247,0.4724906384944916,-0.49610069394111633,0.0018832683563232422,-0.016832709312438965,-0.004585921764373779,0.8641939837763358,-0.28992473585372486,0.40974784939758097,0.03491389920267875
1729786660518023700,2.124023681640625,-0.09980392456054688,-0.010115347802639008,0.03435029461979866,0.728712797164917,0.47281479835510254,-0.4954025149345398,-0.005812525749206543,-0.024771004915237427,-0.002659618854522705,0.8639773372970131,-0.29036056021568407,0.4098652152565655,0.03527391369997462
1729786660528054800,2.1340546875,-0.0901157408952713,-0.01192720327526331,0.03529065474867821,0.7290255427360535,0.47310885787010193,-0.4946611821651459,-0.022574186325073242,-0.011545777320861816,-0.009306132793426514,0.8637474882367556,-0.2907918959383644,0.41001156324909005,0.03564860218543482
1729786660538085600,2.144085693359375,-0.11646080017089844,-0.007858959026634693,0.018049616366624832,0.7293604612350464,0.4736354351043701,-0.4936624765396118,-0.0040798187255859375,-0.006411373615264893,-0.02452602982521057,0.8634455062364117,-0.29135385142938464,0.410221517073721,0.03595729726931854
1729786660548116700,2.15411669921875,-0.18418744206428528,-0.06501375138759613,-0.0006822589784860611,0.7294186353683472,0.4745665192604065,-0.49268126487731934,-0.0018644332885742188,-0.013125568628311157,-0.017374306917190552,0.8631468032472887,-0.2921601608982229,0.410246036156009,0.0363046593043587
1729786660558147800,2.16414794921875,-0.30801403522491455,-0.12140033394098282,0.00055744219571352,0.7289673089981079,0.47591739892959595,-0.4920458495616913,-0.0007874965667724609,-0.02431836724281311,-0.006977587938308716,0.8629363600276111,-0.29329210079711565,0.40982534663581277,0.03692722188703846
1729786660568179000,2.174178955078125,-0.46719953417778015,-0.16726534068584442,-0.006314844824373722,0.7282623052597046,0.4778900444507599,-0.4911772310733795,0.019342005252838135,-0.028595030307769775,-0.01797807216644287,0.8626428833577396,-0.2949644059150746,0.4091544821077749,0.03789257705222076
1729786660578210800,2.1842109375,-0.6839646100997925,-0.07990327477455139,0.11645261943340302,0.7278916239738464,0.4802161157131195,-0.4894550144672394,0.01992630958557129,-0.018179982900619507,-0.04037594795227051,0.8620711119121918,-0.2972483007539307,0.40855346626144035,0.039507978663631066
1729786660588242000,2.194241943359375,-0.9110925197601318,-0.059287261217832565,0.062111616134643555,0.7279407382011414,0.48334285616874695,-0.48629409074783325,0.025477170944213867,-0.04198238253593445,-0.028278112411499023,0.861049128434842,-0.30045151059424585,0.408144390711779,0.04173052419051372
1729786660598272800,2.204272705078125,-1.063939094543457,-0.07688702642917633,0.00167091004550457,0.7278374433517456,0.4877132177352905,-0.48206689953804016,0.007773458957672119,-0.10076561570167542,-0.0032083988189697266,0.8597068701390076,-0.30452623616223246,0.4077135201224026,0.044017901458967626
1729786660608303900,2.214303955078125,-1.1304606199264526,-0.1736665815114975,-0.049516111612319946,0.7270998954772949,0.4931850731372833,-0.4775921106338501,-0.0351138710975647,-0.09384733438491821,-0.018837392330169678,0.8582820959855896,-0.309280082890361,0.40687808907549394,0.0463456278370407
1729786660618334700,2.224334716796875,-1.1983784437179565,-0.2662031650543213,-0.08611433207988739,0.7256508469581604,0.4992385506629944,-0.473488986492157,-0.0079079270362854,-0.036576807498931885,-0.04358559846878052,0.8569522094369785,-0.3143599870061495,0.4055037694320723,0.04875961753464642
1729786660628365800,2.23436572265625,-1.2905789613723755,-0.24822001159191132,-0.11192755401134491,0.7238974571228027,0.5058539509773254,-0.4691314697265625,0.039316654205322266,0.01018303632736206,-0.0627899169921875,0.8555330903182924,-0.31984298018053625,0.40389940078671294,0.05127332778964977
1729786660638396700,2.244396728515625,-1.3146401643753052,-0.21495738625526428,-0.11497075110673904,0.7222368121147156,0.5128092169761658,-0.4641127288341522,0.04543280601501465,-0.003333568572998047,-0.07800152897834778,0.8539112857460929,-0.3256116919614229,0.4023936702056911,0.05377539926900351
1729786660648427800,2.254427734375,-1.2568374872207642,-0.18707621097564697,-0.11485862731933594,0.7207472324371338,0.5196320414543152,-0.45880913734436035,0.01246798038482666,-0.010842978954315186,-0.06439948081970215,0.8521986983401308,-0.3313372870679633,0.40101250659683285,0.05623059966705386
1729786660658460000,2.2644599609375,-1.1488202810287476,-0.21358799934387207,-0.14445355534553528,0.7191583514213562,0.5260892510414124,-0.45391762256622314,0.012195348739624023,0.008319318294525146,-0.032746195793151855,0.8506141121822067,-0.336690821553794,0.3996003925035168,0.05843174411640369
1729786660668491000,2.274490966796875,-1.0567890405654907,-0.24314551055431366,-0.16998927295207977,0.7173120379447937,0.5322584509849548,-0.4496268928050995,0.026889562606811523,0.036589205265045166,-0.0046578049659729,0.8492185759898138,-0.3416659557594141,0.39805895151035425,0.060342473875329594
1729786660678521900,2.28452197265625,-1.0235280990600586,-0.2457844465970993,-0.20462660491466522,0.7152099013328552,0.5382201671600342,-0.4458628296852112,0.036880433559417725,-0.001629650592803955,0.008271276950836182,0.847988535502605,-0.34634219957668555,0.3963781938427481,0.062021879089338636
1729786660688553000,2.294552978515625,-1.217957854270935,-0.2543967366218567,-0.208489790558815,0.7129606008529663,0.5446172952651978,-0.44167762994766235,0.003363192081451416,-0.11404478549957275,0.03139925003051758,0.8466248562918184,-0.35135702148346665,0.39460034648773357,0.06375806524073015
1729786660698583800,2.304583740234375,-1.3963022232055664,-0.24563172459602356,-0.1807710826396942,0.7107852101325989,0.5518393516540527,-0.43618515133857727,-0.05415385961532593,-0.14676433801651,0.05074816942214966,0.8448299731844006,-0.35727679769511456,0.39276037182953144,0.06599051312861175
1729786660708615000,2.314614990234375,-1.3470988273620605,-0.2680003046989441,-0.19707228243350983,0.7086538076400757,0.5591337084770203,-0.43032440543174744,-0.07340002059936523,-0.13156723976135254,0.035686373710632324,0.8429041190244809,-0.36337791814889664,0.3908890872389022,0.06837203418651905
1729786660718645800,2.324645751953125,-1.263919711112976,-0.29035380482673645,-0.24315136671066284,0.7062161564826965,0.5662910342216492,-0.4249388575553894,-0.06311935186386108,-0.13017964363098145,-0.04642042517662048,0.8411307910638276,-0.3692110052478018,0.38886219961199986,0.07048569636485434
1729786660728676900,2.3346767578125,-1.2312148809432983,-0.2899472713470459,-0.2583942115306854,0.7035343647003174,0.5733730792999268,-0.4198603332042694,-0.04646044969558716,-0.07439541816711426,-0.08006340265274048,0.8394565032444378,-0.37487010891877826,0.38670692007142676,0.07240785695915355
1729786660738708700,2.344708740234375,-1.1431792974472046,-0.27395978569984436,-0.27622541785240173,0.7008152604103088,0.5802014470100403,-0.41499897837638855,-0.03241926431655884,-0.04542672634124756,-0.05164533853530884,0.8378579722823887,-0.3802611668745215,0.38458023610034053,0.07411749349841862
1729786660748739800,2.35473974609375,-1.0708726644515991,-0.2452186942100525,-0.2846210300922394,0.69808030128479,0.5867620706558228,-0.4103586971759796,-0.048071205615997314,-0.06985533237457275,-0.012767553329467773,0.8363434371587906,-0.38534900178980325,0.38252686821093107,0.07555831402776475
1729786660758770700,2.364770751953125,-0.9546343088150024,-0.21116697788238525,-0.26163607835769653,0.6955612897872925,0.5927812457084656,-0.405961811542511,-0.049931347370147705,-0.041145503520965576,0.01985335350036621,0.8349157273188578,-0.3900066308138875,0.3806756051469339,0.07678992596654739
1729786660768801800,2.3748017578125,-0.9726805686950684,-0.21073590219020844,-0.26972198486328125,0.6931228041648865,0.5984950661659241,-0.40172675251960754,-0.03148651123046875,-0.012344002723693848,0.018303871154785156,0.8335421867049061,-0.3944247894342171,0.37890065649549937,0.07791531143482826
1729786660778832600,2.38483251953125,-0.9865303635597229,-0.21381904184818268,-0.27373987436294556,0.6906434297561646,0.6043177247047424,-0.3972553312778473,-0.02258312702178955,-0.020623326301574707,-0.004996895790100098,0.8320910702372755,-0.3989656525488013,0.37709248895359054,0.07907049881341988
1729786660788864000,2.394864013671875,-1.0482732057571411,-0.20822571218013763,-0.28466522693634033,0.6881060600280762,0.6102615594863892,-0.392544150352478,-0.017177164554595947,-0.02041780948638916,-0.007419228553771973,0.8305614178016459,-0.4036348261016487,0.3752423883212115,0.0802487462945598
1729786660798894800,2.404894775390625,-1.0806777477264404,-0.23375503718852997,-0.27161309123039246,0.6855111718177795,0.6163824200630188,-0.3874882161617279,-0.0022073984146118164,-0.031314730644226074,-0.021264255046844482,0.82891340278769,-0.40851910683773246,0.3733202702407929,0.08152720527966473
1729786660808926000,2.414926025390625,-1.077021837234497,-0.25410786271095276,-0.22779211401939392,0.6830196976661682,0.6222951412200928,-0.38240405917167664,0.0008486509323120117,-0.03441983461380005,-0.03998976945877075,0.8272300315909604,-0.413400347266237,0.37134636343725963,0.08302116465718126
1729786660818957800,2.424957763671875,-0.9330516457557678,-0.2238738238811493,-0.22292251884937286,0.6807010173797607,0.6276536583900452,-0.3777526021003723,-0.008581936359405518,-0.043470919132232666,-0.02501845359802246,0.8256748662716693,-0.4178873085802149,0.36945080684446585,0.08448276272066012
1729786660828988700,2.43498876953125,-0.7932198643684387,-0.1406644582748413,-0.2194090187549591,0.6785978674888611,0.6324062943458557,-0.373587042093277,-0.04505300521850586,-0.05873686075210571,0.00636899471282959,0.824306192085573,-0.4217619472781763,0.3678632104824955,0.08551506899399879
1729786660839019800,2.445019775390625,-0.6096116900444031,-0.08321235328912735,-0.20059378445148468,0.6768705248832703,0.6364646553993225,-0.36980941891670227,-0.07338547706604004,-0.00508648157119751,0.024411439895629883,0.823088590391418,-0.4250304740881693,0.3666665798663047,0.08619659393036427
1729786660849051000,2.45505078125,-0.47880029678344727,-0.0714564174413681,-0.22362080216407776,0.6752335429191589,0.6398784518241882,-0.3668994903564453,-0.04643416404724121,0.07350039482116699,0.0003070533275604248,0.8221753269604087,-0.42759635510785066,0.36566597734641737,0.0864722468143875
1729786660859081700,2.465081787109375,-0.44085797667503357,-0.06833679229021072,-0.24250447750091553,0.6735004186630249,0.6431288719177246,-0.364393025636673,-0.014900624752044678,0.08625638484954834,-0.0035879313945770264,0.8214092067539844,-0.42988637186961026,0.3646932783833348,0.08650607890153313
1729786660869112800,2.47511279296875,-0.41308295726776123,-0.08459768444299698,-0.23938432335853577,0.6716690063476562,0.64631187915802,-0.3621346354484558,0.0099104642868042,0.0746658444404602,0.03393331170082092,0.820728653055787,-0.4320460605240156,0.3636879008194362,0.08643854510392505
1729786660879143700,2.485143798828125,-0.4908991754055023,-0.09821975231170654,-0.22271133959293365,0.6698370575904846,0.649477481842041,-0.35985735058784485,0.040047526359558105,0.017240047454833984,0.02877211570739746,0.8200294314609072,-0.4342546886715868,0.36262127938850447,0.08648935573525857
1729786660889174800,2.4951748046875,-0.6445223093032837,-0.11129001528024673,-0.18227097392082214,0.6681071519851685,0.6528967022895813,-0.3568735122680664,0.06584054231643677,-0.0255315899848938,0.033738136291503906,0.8190761893591513,-0.43690735637979633,0.36149025772124305,0.08689605102648339
1729786660899207000,2.50520703125,-0.7728874683380127,-0.13598230481147766,-0.18626810610294342,0.6664588451385498,0.6566547155380249,-0.3530399799346924,0.06539839506149292,-0.0556720495223999,0.09702801704406738,0.8178173035426141,-0.4401094681881824,0.36025499898978086,0.08772058961435895
1729786660909237800,2.51523779296875,-0.8333145380020142,-0.12015343457460403,-0.15947803854942322,0.6648622751235962,0.6606543064117432,-0.3485599458217621,0.05315524339675903,-0.10505127906799316,0.1110416054725647,0.8163365458345075,-0.44366994784889446,0.3589944348851483,0.08873908604126678
1729786660919268900,2.525268798828125,-0.8271389007568359,-0.10377871990203857,-0.12008056044578552,0.6635372042655945,0.6645006537437439,-0.34374022483825684,0.013922512531280518,-0.1030840277671814,0.05499809980392456,0.8147312996905524,-0.447292713738761,0.35785349008972395,0.08990567223024085
1729786660929299700,2.5352998046875,-0.6732152700424194,-0.11625717580318451,-0.1404028832912445,0.6622953414916992,0.667937695980072,-0.3394467830657959,0.0012940764427185059,-0.017165660858154297,0.03099033236503601,0.813291758643501,-0.45055390990363253,0.3567601224617704,0.09099375212633766
1729786660939330800,2.545330810546875,-0.5344352722167969,-0.08672644942998886,-0.14673294126987457,0.6609647274017334,0.6709299683570862,-0.33612295985221863,0.003418147563934326,0.04629409313201904,0.02345508337020874,0.8121887935276794,-0.4532063468798681,0.3557281670723511,0.09171081894424861
1729786660949362000,2.55536181640625,-0.46403127908706665,-0.043410614132881165,-0.12792544066905975,0.6598121523857117,0.6735239624977112,-0.3331868350505829,-0.00575941801071167,0.06730550527572632,0.03704419732093811,0.8112318147748406,-0.45545229599946874,0.3549222244980465,0.09217625056614868
1729786660959392800,2.565392822265625,-0.518029510974884,-0.016441049054265022,-0.07329467684030533,0.6590636968612671,0.6758110523223877,-0.33002203702926636,0.011056482791900635,0.050003767013549805,0.10908997058868408,0.8101958431317995,-0.4576135652105765,0.3543709954335002,0.09270254149499363
1729786660969424600,2.575424560546875,-0.5055782794952393,-0.0425703339278698,-0.04820263758301735,0.6585772037506104,0.6779060959815979,-0.3266792595386505,0.03841370344161987,0.011562228202819824,0.10950091481208801,0.8090769050501535,-0.45981471460374945,0.3538796312183351,0.09345668214464056
1729786660979455700,2.585455810546875,-0.41156601905822754,-0.07775362581014633,-0.040840864181518555,0.6580695509910583,0.6797206401824951,-0.3239201605319977,0.048839569091796875,0.008038699626922607,0.014166712760925293,0.8081336671748515,-0.46174805447928224,0.3533109937940361,0.09423378519216376
1729786660989486600,2.595486572265625,-0.27612027525901794,-0.09931227564811707,-0.025444328784942627,0.6575379371643066,0.6810503602027893,-0.32220202684402466,0.035729825496673584,0.05999261140823364,-0.04562637209892273,0.8075226089157407,-0.46314513620877706,0.3526975648454326,0.09491127789320182
1729786660999517700,2.605517578125,-0.18468892574310303,-0.09146501123905182,-0.03538085147738457,0.6570348143577576,0.6819847226142883,-0.32125070691108704,0.019387245178222656,0.09709852933883667,-0.03786492347717285,0.8071672333789173,-0.4640865984606627,0.3521338825114196,0.09542718996679622
1729786661009548800,2.615548828125,-0.06913789361715317,-0.09786682575941086,-0.016535790637135506,0.6565406322479248,0.682590901851654,-0.3209734559059143,-0.0043953657150268555,0.07494688034057617,0.004185706377029419,0.8070411146079992,-0.46462233218351195,0.35162389104427594,0.09576675637799546
1729786661019580000,2.625579833984375,-0.07640299201011658,-0.047247856855392456,0.010591435246169567,0.6563273072242737,0.682832658290863,-0.3208957016468048,-0.008698582649230957,0.017240524291992188,0.05459928512573242,0.8069837377453392,-0.4648916710416975,0.3513230473240919,0.09604746520026619
1729786661029610800,2.63561083984375,-0.06699558347463608,-0.07815836369991302,-0.011266459710896015,0.6561244130134583,0.6830422282218933,-0.3208646774291992,0.012424111366271973,-0.0032173991203308105,0.04750341176986694,0.8069393435220741,-0.4651379162709669,0.3510190653094215,0.09633943500351355
1729786661039641900,2.645641845703125,-0.02710355818271637,-0.11390864104032516,-0.006898609455674887,0.6557623147964478,0.6832904815673828,-0.32107603549957275,0.02731257677078247,-0.011049270629882812,-0.00022834539413452148,0.806971828146726,-0.46534235102481203,0.3505973263736334,0.09661488728012103
1729786661049673700,2.655673828125,0.07136934995651245,-0.11864688992500305,-0.015250016003847122,0.6553035974502563,0.6832812428474426,-0.3220307528972626,0.0388491153717041,0.028327584266662598,0.006067007780075073,0.8072450856797263,-0.4652011670272835,0.35010354909588043,0.09680204579881015
1729786661059704800,2.665704833984375,0.07917933911085129,-0.09184962511062622,-0.0036940278951078653,0.6548749208450317,0.6830954551696777,-0.3232945203781128,0.020341694355010986,0.060480475425720215,-0.0019313395023345947,0.8076311507325792,-0.4648331161319571,0.3496897475073968,0.09684575825716157
1729786661069735700,2.675735595703125,0.021272096782922745,-0.09973455220460892,0.014596561901271343,0.6546182632446289,0.6828972697257996,-0.3242315351963043,-0.021378636360168457,0.06450867652893066,-0.0012536942958831787,0.8079007597010596,-0.46458746081829416,0.34934614710807105,0.09701532941028615
1729786661079766800,2.685766845703125,0.006112052593380213,-0.08550448715686798,0.03026367351412773,0.6544606685638428,0.6827059388160706,-0.3249519467353821,-0.02618008852005005,0.023119866847991943,0.025604963302612305,0.8080885733939115,-0.4644477475813131,0.3490162192894974,0.09730767447962478
1729786661089797600,2.695797607421875,0.008129330351948738,-0.03850102424621582,0.05336020514369011,0.6545551419258118,0.6824055314064026,-0.32539260387420654,-0.014464259147644043,-0.027574598789215088,0.018263638019561768,0.8081881703478565,-0.46431892179717565,0.3488719520315647,0.0976125977203641
1729786661099828700,2.705828857421875,0.10457517951726913,-0.010206800885498524,0.043996796011924744,0.6548335552215576,0.6820555329322815,-0.32556599378585815,-0.0024593472480773926,-0.00885307788848877,0.010899186134338379,0.8082250220476164,-0.4641528211237572,0.3489687093760855,0.09775130222819997
1729786661109859600,2.715859619140625,0.26706573367118835,-0.013937676325440407,0.021795086562633514,0.6551448106765747,0.6812477111816406,-0.32662954926490784,0.005759060382843018,0.030971527099609375,0.02760303020477295,0.8085726218665917,-0.4634136572745179,0.3491890679242295,0.09759678547671113
1729786661119892000,2.72589208984375,0.33523306250572205,-0.013467894867062569,0.025417786091566086,0.6554329991340637,0.6799504160881042,-0.32874760031700134,0.020027756690979004,0.03872328996658325,0.027203381061553955,0.8092687646565462,-0.46209254421014173,0.3494233612310082,0.09725125321177971
1729786661129922800,2.7359228515625,0.2965717911720276,-0.035772666335105896,0.031239990144968033,0.6556246876716614,0.6787309050559998,-0.3308786451816559,0.03419464826583862,0.02877330780029297,0.057715773582458496,0.8099737359401459,-0.46079197647270326,0.3496161182811849,0.09686033263965603
1729786661139954000,2.745953857421875,0.22256173193454742,-0.04706740379333496,0.041362132877111435,0.6556026935577393,0.6778332591056824,-0.33275672793388367,0.02483236789703369,-0.0038678646087646484,0.04006263613700867,0.8105876637242615,-0.45976538827540525,0.3496246794264773,0.09657079031422787
1729786661149984800,2.75598486328125,0.08395585417747498,-0.06458088010549545,0.05016574263572693,0.655443549156189,0.6773486733436584,-0.3340543806552887,-0.0035729408264160156,-0.03737986087799072,-0.0018220841884613037,0.810997880362923,-0.4591786862354846,0.3494677950699764,0.09648562402348565
1729786661160016000,2.766015869140625,-0.00781880971044302,-0.08276467770338058,0.09887629002332687,0.6555429697036743,0.677029013633728,-0.3345070779323578,-0.017023742198944092,-0.0393795371055603,-0.0112876296043396,0.8110989085583217,-0.4590459722214027,0.3493182780108162,0.09680905246382754
1729786661170046700,2.776046630859375,-0.07730834186077118,-0.09900783002376556,0.09752926230430603,0.6559865474700928,0.6764816045761108,-0.33474498987197876,-0.011684298515319824,-0.048323094844818115,-0.018251866102218628,0.8110883696890453,-0.4590025537166438,0.3492050483677711,0.09750954539622853
1729786661180077800,2.786077880859375,-0.12717682123184204,-0.07936009019613266,0.07274455577135086,0.6562576293945312,0.676339864730835,-0.33449968695640564,-0.0025254487991333008,-0.06783473491668701,-0.04240766167640686,0.8109233114609986,-0.4593011411158035,0.34898799247503637,0.0982499851330707
1729786661190108700,2.796108642578125,0.03639232739806175,-0.029591895639896393,0.08592400699853897,0.6565797328948975,0.6761559247970581,-0.33423957228660583,-0.014138996601104736,0.0017462372779846191,-0.030796468257904053,0.8107815885745855,-0.45948017627671045,0.34893865312905537,0.0987568888103072
1729786661200140800,2.806140869140625,0.2503299117088318,0.035912543535232544,0.08831366151571274,0.6571688055992126,0.6751867532730103,-0.3350401520729065,-0.020862162113189697,0.06025630235671997,-0.029019325971603394,0.8110209834843845,-0.4588107064160679,0.3492458501484234,0.09881787649205198
1729786661210171600,2.816171630859375,0.4383827745914459,0.12095116078853607,0.08796079456806183,0.6581108570098877,0.6735504269599915,-0.3364814817905426,-0.024428725242614746,0.05804741382598877,-0.0662742555141449,0.8115171416570954,-0.4574319620374528,0.3500217977875026,0.09839004532632112
1729786661220202800,2.82620263671875,0.5554063320159912,0.15348753333091736,0.08650404214859009,0.6593000888824463,0.6712877750396729,-0.33866825699806213,-0.026609718799591064,0.03688788414001465,-0.046143174171447754,0.812292692752667,-0.4553723976692342,0.3511436339897562,0.09754351858118526
1729786661230233900,2.83623388671875,0.6801579594612122,0.1627611368894577,0.05674535036087036,0.6603981852531433,0.6685711741447449,-0.34188714623451233,-0.027539968490600586,0.01845574378967285,-0.03746163845062256,0.8134142886107204,-0.4527314931369036,0.352264982032027,0.09644066236445198
1729786661240265000,2.846264892578125,0.5791575908660889,0.13437023758888245,0.07284415513277054,0.661282479763031,0.6659624576568604,-0.34525296092033386,-0.032956063747406006,0.032584965229034424,-0.06061562895774841,0.8145915415564686,-0.45006833828117593,0.35328743376441746,0.09522173482109898
1729786661250295800,2.8562958984375,0.5204214453697205,0.14234161376953125,0.10997474938631058,0.6624341607093811,0.6634006500244141,-0.34796637296676636,-0.02408277988433838,0.06583213806152344,-0.009592890739440918,0.8155260491000522,-0.4477233865312729,0.35434529754322003,0.09434232069809965
1729786661260327000,2.866326904296875,0.41851693391799927,0.13800999522209167,0.04596327617764473,0.6634414792060852,0.6612127423286438,-0.3502044379711151,-0.0012863874435424805,-0.015979647636413574,0.051895081996917725,0.8163111917086375,-0.44569041081966243,0.3553277804396452,0.09347901526190315
1729786661270357800,2.876357666015625,0.3277285695075989,0.12686792016029358,0.06937459111213684,0.6642760634422302,0.6595436334609985,-0.35176604986190796,-0.023254454135894775,-0.06976097822189331,-0.023294955492019653,0.816871605011435,-0.44414362411393415,0.3561648679635949,0.09275620524406332
1729786661280389000,2.88638916015625,0.4105856120586395,0.16510051488876343,0.042255889624357224,0.6651892066001892,0.6578774452209473,-0.3531579077243805,-0.007520198822021484,-0.04271942377090454,-0.026938557624816895,0.817377344567929,-0.4426421561958211,0.357055972194465,0.09204983603985005
1729786661290420000,2.896419921875,0.5168842673301697,0.1269255429506302,0.008854786865413189,0.6658549904823303,0.6560976505279541,-0.3552081882953644,0.004692375659942627,-0.018417656421661377,-0.01953241229057312,0.8181262202488416,-0.4407706376763842,0.3579345643097949,0.09095850242146136
1729786661300451000,2.906451171875,0.567051351070404,0.0930221676826477,0.03511861711740494,0.6663869023323059,0.6539846062660217,-0.35809606313705444,-0.015736877918243408,0.03870344161987305,-0.05984225869178772,0.8191321819886209,-0.4385297488038511,0.3586692512053539,0.08983635150214567
1729786661310482000,2.91648193359375,0.4892340302467346,0.10750076174736023,0.03758310526609421,0.6669952273368835,0.6518032550811768,-0.36092934012413025,-0.007250964641571045,0.05057412385940552,-0.041872233152389526,0.8201075172812446,-0.4363113726721252,0.35939910667999836,0.08881663778731635
1729786661320513000,2.926512939453125,0.44261059165000916,0.109620101749897,0.02424919232726097,0.6675947904586792,0.6499254107475281,-0.36320003867149353,-0.0147475004196167,-0.0005419254302978516,-0.006535708904266357,0.8209017025211688,-0.43440719558463414,0.36012548283147855,0.08786632622924678
1729786661330544000,2.936544189453125,0.43276169896125793,0.09916847944259644,0.022143695503473282,0.6681339740753174,0.6481617093086243,-0.36535385251045227,-0.019360840320587158,-0.04719430208206177,0.025403261184692383,0.8216549340710618,-0.4326048855521292,0.36079923634346445,0.08694889452814104
1729786661340575200,2.9465751953125,0.4277767837047577,0.09704674035310745,0.029218114912509918,0.6686438918113708,0.6464499235153198,-0.3674478828907013,-0.00613778829574585,-0.06524258852005005,0.02803131937980652,0.8223858045229644,-0.430855072548959,0.3614415127569913,0.08605580973646393
1729786661350606000,2.956606201171875,0.5083456039428711,0.10165363550186157,0.04218265041708946,0.6692582964897156,0.6444715261459351,-0.3697969913482666,-0.009895563125610352,-0.06157052516937256,0.0408785343170166,0.8231933395051189,-0.4289065798863656,0.3621334616210985,0.0851544259609889
1729786661360638200,2.96663818359375,0.5097270011901855,0.14536142349243164,0.05885457247495651,0.6700425744056702,0.6421905159950256,-0.3723360002040863,-0.023512542247772217,-0.06392824649810791,0.034216493368148804,0.824065934347113,-0.4267171361077937,0.36296623551455787,0.08416156554203284
1729786661370669000,2.9766689453125,0.4655477702617645,0.13828814029693604,0.06932399421930313,0.6710184216499329,0.6399412751197815,-0.3744456470012665,-0.04563701152801514,-0.035021841526031494,0.026224792003631592,0.8248002137411472,-0.4246610486170551,0.36392330129882905,0.08323154052303654
1729786661380700200,2.9867001953125,0.40129926800727844,0.0831279382109642,0.035410232841968536,0.6717727780342102,0.6379418969154358,-0.3764989674091339,-0.04565894603729248,0.01737731695175171,0.008853673934936523,0.8255051280705171,-0.422799035814595,0.36467997528638196,0.0824060458497406
1729786661390731000,2.99673095703125,0.3002168536186218,0.04388967156410217,0.011226865462958813,0.672138512134552,0.6364625096321106,-0.37834566831588745,-0.017002403736114502,0.01923823356628418,-0.0312308669090271,0.8261331341727515,-0.42132024646492017,0.36512520229558393,0.08171269857680764
1729786661400762000,3.00676220703125,0.16590937972068787,0.010768468491733074,0.006837975233793259,0.6723134517669678,0.6355111002922058,-0.37963151931762695,0.013813138008117676,-0.012586414813995361,-0.025611430406570435,0.8265654983698731,-0.42035255185522713,0.3653600663393429,0.08127151063682868
1729786661410793000,3.01679296875,0.049345407634973526,-0.013233857229351997,0.011297172866761684,0.6723549962043762,0.635059118270874,-0.38031405210494995,0.04154270887374878,-0.04106491804122925,-0.0023001432418823242,0.8267880668671224,-0.4198993914121262,0.36541410664551477,0.08110865537131381
1729786661420824000,3.026823974609375,-0.032017357647418976,-0.018941011279821396,0.014538238756358624,0.6723742485046387,0.6349276900291443,-0.380499005317688,0.04710811376571655,-0.05594825744628906,0.037038981914520264,0.8268351252030595,-0.41983052384876574,0.3653667004100989,0.08119727490658644
1729786661430856200,3.036856201171875,0.02620680071413517,0.036394257098436356,0.016501788049936295,0.6724881529808044,0.634888768196106,-0.380362868309021,0.03211688995361328,-0.05441391468048096,0.0725473165512085,0.8267859415944812,-0.41987297244074884,0.36541106674058627,0.08128016894883537
1729786661440887300,3.04688720703125,0.10799727588891983,0.08458894491195679,0.014962480403482914,0.6728243827819824,0.6345056295394897,-0.38040775060653687,0.008541584014892578,-0.03076106309890747,0.08977353572845459,0.8268200663330736,-0.41956341903956623,0.36573577469480517,0.08107124082161546
1729786661450918100,3.056918212890625,0.1704081892967224,0.08117547631263733,0.023794587701559067,0.6732797622680664,0.6338503956794739,-0.38069435954093933,-0.0019388198852539062,0.0164792537689209,0.07481658458709717,0.8269420895960905,-0.4189903891490297,0.3661965043348584,0.08070968039711464
1729786661460949200,3.06694921875,0.1988946795463562,0.048889968544244766,0.02544441819190979,0.6736851930618286,0.6329562067985535,-0.38146400451660156,0.006627976894378662,0.06188327074050903,0.05523103475570679,0.8272117827014542,-0.41818334471392143,0.36659335293503487,0.08032898650983462
1729786661470980000,3.07697998046875,0.15941259264945984,0.019767876714468002,0.024993278086185455,0.6739684343338013,0.6320827007293701,-0.38241052627563477,0.01836848258972168,0.03732031583786011,0.020472049713134766,0.8275270661596907,-0.41738702258975596,0.36685530164465774,0.08002533588448137
1729786661481011200,3.08701123046875,0.04885545372962952,0.0045234085991978645,0.033832043409347534,0.6742149591445923,0.6314593553543091,-0.38300541043281555,0.019495248794555664,-0.013005435466766357,0.008264809846878052,0.8277160989565335,-0.41688802817009585,0.3670172663170527,0.07992884727866703
1729786661491042000,3.0970419921875,-0.06113036721944809,-0.002200379967689514,0.03151402622461319,0.674424409866333,0.6312665343284607,-0.38295435905456543,0.0011278390884399414,-0.05437755584716797,0.010517865419387817,0.8276863967993962,-0.4168586730957794,0.36708536314901175,0.080076668616023
1729786661501073200,3.1070732421875,-0.1671215146780014,-0.02527640387415886,0.033112455159425735,0.6750342845916748,0.6311597228050232,-0.3820553123950958,-0.016312360763549805,-0.06310546398162842,-0.003336012363433838,0.8273654240374917,-0.4172036442627251,0.3673056870438397,0.08058683843944729
1729786661511105000,3.11710498046875,-0.1813896745443344,-0.057481370866298676,0.0037423167377710342,0.675471842288971,0.6315048933029175,-0.380708783864975,-0.008723914623260498,-0.030003488063812256,-0.018628984689712524,0.8268977328164827,-0.41793189620547383,0.3673942570367655,0.08120568312646569
1729786661521136000,3.12713623046875,-0.16524559259414673,-0.06391236931085587,-0.012582328170537949,0.6755325198173523,0.6322131752967834,-0.3794237971305847,0.006947338581085205,0.0025371909141540527,-0.031312406063079834,0.8264637472691064,-0.41877675903250083,0.36730659388490966,0.08166803861536304
1729786661531167000,3.1371669921875,-0.09043752402067184,-0.059118203818798065,-0.008021398447453976,0.6752911806106567,0.6330202221870422,-0.3785066604614258,0.008760273456573486,0.022955119609832764,-0.03280925750732422,0.8261589834295537,-0.4195198115453208,0.3670828155308872,0.08194324892043384
1729786661541198000,3.147197998046875,-0.05099424347281456,-0.04761042073369026,-0.00792658980935812,0.6749706268310547,0.6336240172386169,-0.3780679702758789,0.0004901885986328125,0.021039128303527832,-0.009184956550598145,0.8260152416406187,-0.4199845013046752,0.36685016026680567,0.082054224193356
1729786661551229200,3.157229248046875,-0.12835808098316193,-0.019505174830555916,-0.017453515902161598,0.6747449636459351,0.6341944336891174,-0.37751343846321106,-0.01075887680053711,-0.028741002082824707,0.0007129311561584473,0.8258334037400463,-0.4204667115812315,0.36667563051144514,0.0821932020719586
1729786661561260300,3.16726025390625,-0.16659653186798096,-0.009807007387280464,-0.008581727743148804,0.6747480630874634,0.6347188949584961,-0.3766258656978607,-0.022694289684295654,-0.052199363708496094,0.02690964937210083,0.8255353661676084,-0.4210598323692052,0.3666001606906325,0.08248858679504376
1729786661571291100,3.177291015625,-0.1489904522895813,-0.023006059229373932,-0.011402547359466553,0.6748461127281189,0.6351236701011658,-0.37576690316200256,-0.02077805995941162,-0.03346961736679077,0.0174141526222229,0.8252351271463526,-0.4216290800144186,0.3665316765897722,0.08288857693570957
1729786661581322200,3.187322265625,-0.12043657153844833,-0.04115656763315201,-0.012728535570204258,0.6747827529907227,0.6354090571403503,-0.3753976821899414,-0.001488804817199707,0.0006687641143798828,-0.013793021440505981,0.8250876850000574,-0.42201445883069005,0.3663399552336863,0.08324075281062912
1729786661591354000,3.19735400390625,-0.11133494973182678,-0.04384481906890869,-0.006583823822438717,0.6745964884757996,0.635699450969696,-0.375240683555603,0.005991220474243164,0.018871963024139404,-0.029559701681137085,0.8250069169617457,-0.42234930348227395,0.36606108359133593,0.0835690141489155
1729786661601385200,3.20738525390625,-0.0972478911280632,-0.04401472210884094,-0.00026041409000754356,0.6743807196617126,0.6359958648681641,-0.3751262426376343,0.007992208003997803,0.024618089199066162,-0.026164621114730835,0.8249414760492281,-0.4226675714420629,0.3657717836204397,0.08387215422153739
1729786661611416000,3.217416015625,-0.11828672885894775,-0.053874120116233826,0.007577801123261452,0.6741078495979309,0.6363661885261536,-0.37498903274536133,0.0008188486099243164,0.008134543895721436,-0.026713848114013672,0.8248700118336018,-0.42302652243360717,0.3654504680106343,0.08416682014901372
1729786661621447200,3.227447265625,-0.1625434160232544,-0.05885503068566322,0.01482373010367155,0.6738518476486206,0.6369035243988037,-0.3745364844799042,-0.005562722682952881,-0.015855610370635986,-0.019231826066970825,0.8246937707219557,-0.4235778703636026,0.36512127129513394,0.08454802263950938
1729786661631478000,3.23747802734375,-0.1997806578874588,-0.05791402608156204,0.022565539926290512,0.6738749742507935,0.6372324824333191,-0.3739347755908966,-0.010194063186645508,-0.019938230514526367,-0.0069245994091033936,0.8244493660140184,-0.4241442885391565,0.3648756494275645,0.08515025562651213
1729786661641509000,3.247509033203125,-0.1986195147037506,-0.06146135926246643,0.025227900594472885,0.6740593910217285,0.6375969052314758,-0.3729797899723053,-0.011797547340393066,-0.00783628225326538,-0.007681220769882202,0.8240872729639488,-0.42484410518720556,0.3647157634927407,0.08584813380006029
1729786661651540000,3.2575400390625,-0.13503116369247437,-0.06509684771299362,0.028737150132656097,0.6741169691085815,0.637919545173645,-0.3723234534263611,-0.0025929808616638184,0.019383251667022705,-0.004614412784576416,0.8238255030165134,-0.4254172535069312,0.3644975004249874,0.08644722559229741
1729786661661571000,3.267571044921875,-0.08643432706594467,-0.06473997980356216,0.013909201137721539,0.6739442944526672,0.6380836963653564,-0.37235525250434875,0.012685954570770264,0.03481370210647583,-0.000005036592483520508,0.8237896914059419,-0.4256910800589607,0.3641558439513444,0.08688063132929487
1729786661671603200,3.277603271484375,-0.10241029411554337,-0.06443089246749878,0.034492772072553635,0.6736611127853394,0.6382699608802795,-0.3725482225418091,0.01692110300064087,0.026601195335388184,0.019703924655914307,0.8238080915301218,-0.4259199819660177,0.36375550072748153,0.08726010853412448
1729786661681634300,3.28763427734375,-0.05723828822374344,-0.03928479179739952,0.0524776317179203,0.673538088798523,0.63833087682724,-0.37266620993614197,0.012268126010894775,-0.0033669471740722656,0.04089435935020447,0.8237983646649344,-0.4261178344835097,0.3634425499027978,0.08768855021608497
1729786661691665200,3.2976650390625,-0.06299404799938202,0.007827913388609886,0.04281967878341675,0.6736642718315125,0.6381391882896423,-0.3727664351463318,0.008937597274780273,-0.049516141414642334,0.04015529155731201,0.8237954654788775,-0.4261318616354808,0.36335715847845645,0.08800132705800422
1729786661701696300,3.3076962890625,-0.08236455172300339,0.013402175158262253,0.04861444979906082,0.6739941239356995,0.6379804015159607,-0.3724420666694641,-0.023054182529449463,-0.05860418081283569,0.018544912338256836,0.8236595406459135,-0.42626735807421934,0.36342139860323064,0.08835193798808146
1729786661711727000,3.31772705078125,-0.02931298315525055,-0.0007781991735100746,0.04359732195734978,0.6743388175964355,0.6377359628677368,-0.3722361624240875,-0.0444866418838501,-0.0010020136833190918,0.009946733713150024,0.8235621414298264,-0.4263206662004849,0.3635004849884933,0.08867544844259362
1729786661721758200,3.32775830078125,0.018895559012889862,-0.01961713470518589,0.0246603824198246,0.6744434833526611,0.6374927163124084,-0.37246325612068176,-0.03194171190261841,0.0317729115486145,-0.04899975657463074,0.8236140754141991,-0.42621264359466177,0.3634709829598421,0.08883339324645735
1729786661731789000,3.3377890625,0.014194812625646591,-0.02581436187028885,0.01648208126425743,0.6743489503860474,0.6374351978302002,-0.37273290753364563,-0.012300670146942139,0.035355329513549805,-0.06362271308898926,0.8236914788784718,-0.4261446525099158,0.3633652113816843,0.08887509550205053
1729786661741820200,3.347820068359375,-0.00015776092186570168,-0.011443679220974445,0.018235504627227783,0.6742969155311584,0.6374576091766357,-0.37278875708580017,-0.00040781497955322266,0.013482272624969482,-0.03423947095870972,0.8237031490490774,-0.42616686948811155,0.3633007338650421,0.08892406680570848
1729786661751852000,3.35785205078125,-0.06777528673410416,-0.0008132467046380043,0.015230926685035229,0.6744074821472168,0.6376311779022217,-0.3722915053367615,-0.005736887454986572,-0.02994990348815918,-0.016334593296051025,0.8235406727572597,-0.42640957609350777,0.36335811628352094,0.0890307412484253
1729786661761883100,3.367883056640625,-0.10882897675037384,-0.004191200248897076,0.008152511902153492,0.6746655106544495,0.637932538986206,-0.37130656838417053,-0.007551252841949463,-0.047936201095581055,-0.007264047861099243,0.8232159583351438,-0.42687928191866464,0.3634842507646172,0.08926816873404332
1729786661771914200,3.377914306640625,-0.11473587155342102,-0.0005479417741298676,0.0072169434279203415,0.6750891208648682,0.6380409002304077,-0.3703489899635315,0.0018212199211120605,-0.03200763463973999,0.007174491882324219,0.8228860449132566,-0.427293424468026,0.3636562062564888,0.08962677879350456
1729786661781945300,3.3879453125,-0.08743473887443542,0.005720340646803379,0.008768499828875065,0.6753323674201965,0.6381378769874573,-0.3697379529476166,0.002005159854888916,-0.00849926471710205,0.002519935369491577,0.8226677644337976,-0.42760395277473556,0.36371126629831285,0.08992585666147172
1729786661791976200,3.39797607421875,-0.07737965136766434,0.01762744039297104,0.008456644602119923,0.6751860976219177,0.6385916471481323,-0.36922144889831543,-0.00262451171875,0.009357571601867676,-0.0022538304328918457,0.822503190492626,-0.4279859644090992,0.36361696042752994,0.0899958181738241
1729786661802007300,3.40800732421875,-0.038720399141311646,0.03165217861533165,0.008884881623089314,0.6748720407485962,0.638974666595459,-0.36913275718688965,-0.002875089645385742,0.00828784704208374,0.0031506717205047607,0.8224785927449183,-0.42820078744295115,0.3634249720894654,0.08997359815824854
1729786661812038100,3.4180380859375,0.017884356901049614,0.04793890193104744,0.02454959601163864,0.6747525334358215,0.6389681100845337,-0.3693626821041107,-0.006676971912384033,0.013848662376403809,0.016182690858840942,0.8225560104037689,-0.4281195937567529,0.36336244472564,0.08990548258383725
1729786661822070000,3.428070068359375,0.0882866159081459,0.03872596099972725,0.00033853109925985336,0.6748247146606445,0.6386585235595703,-0.3697657287120819,-0.0019884705543518066,0.015409350395202637,-0.0007634460926055908,0.8226947939734811,-0.42780317573023513,0.36345781358226326,0.08975504094298391
1729786661832101000,3.43810107421875,0.09395541995763779,0.025045834481716156,-0.0018742899410426617,0.6749925017356873,0.6380781531333923,-0.37046077847480774,-0.008214056491851807,0.01309061050415039,-0.03308841586112976,0.8229260265671472,-0.4272657904824682,0.36361181238943985,0.08957100855739951
1729786661842132000,3.448132080078125,0.07892826944589615,0.0011037508957087994,0.00826090294867754,0.6752338409423828,0.6373973488807678,-0.37119239568710327,-0.018938124179840088,0.015388846397399902,-0.048058152198791504,0.8231552319538901,-0.42672026794377477,0.3637493901194642,0.08950760168364441
1729786661852163000,3.4581630859375,0.033010512590408325,-0.013181338086724281,-0.002017035149037838,0.6754665970802307,0.63690584897995,-0.37161263823509216,-0.005376875400543213,0.0004385709762573242,-0.024246186017990112,0.8232807914949918,-0.4263776253873016,0.36386233722612304,0.08952725896581912
1729786661862194200,3.468194091796875,-0.021912124007940292,-0.004639250226318836,-0.00018105190247297287,0.6755026578903198,0.6368353366851807,-0.3716678023338318,-0.0058555006980896,-0.034250497817993164,0.0003451704978942871,0.8232938528108291,-0.4263432388133554,0.36386472509621615,0.0895610559026348
1729786661872225000,3.47822509765625,-0.051139652729034424,-0.007691019214689732,0.012335271574556828,0.6754462718963623,0.637037992477417,-0.3714228570461273,-0.01420670747756958,-0.03658944368362427,0.03508859872817993,0.8232105243224472,-0.42653907695430826,0.3638035098631996,0.08964304785620035
1729786661882256100,3.488256103515625,-0.03262748569250107,-0.029405638575553894,0.01714494079351425,0.675426721572876,0.6371957659721375,-0.37118789553642273,-0.0005609989166259766,-0.010318934917449951,0.050615936517715454,0.8231230470052137,-0.4267379914017724,0.36373168492594204,0.08979145090086371
1729786661892287000,3.498286865234375,-0.04067122936248779,-0.042947277426719666,0.0060784416273236275,0.675303041934967,0.6374391913414001,-0.37099459767341614,0.024220824241638184,-0.00015598535537719727,0.04442599415779114,0.8230492745689637,-0.42696943929669234,0.3635929081652976,0.08992828429210252
1729786661902319000,3.508319091796875,-0.09134133160114288,-0.030559316277503967,0.005088544450700283,0.6750808358192444,0.6378058195114136,-0.3707689940929413,0.02163541316986084,-0.015521883964538574,0.037105023860931396,0.8229626324638445,-0.4272866806418866,0.3633752877919154,0.0900943893786198
1729786661912350200,3.51835009765625,-0.08177325874567032,-0.029861196875572205,0.02923516184091568,0.6748635172843933,0.638056755065918,-0.37073275446891785,-0.004056692123413086,-0.021311819553375244,0.03909823298454285,0.822922900238249,-0.427544742221674,0.3630965592298248,0.09035610399094787
1729786661922381000,3.528381103515625,-0.09705580770969391,-0.02988889440894127,0.012449522502720356,0.6745263934135437,0.6382994651794434,-0.37092819809913635,-0.005276024341583252,-0.022485315799713135,0.022997289896011353,0.8229543746442765,-0.4277465516601138,0.36272411639672303,0.09060924328341931
1729786661932412200,3.538412109375,-0.1117425411939621,-0.034972332417964935,-0.0008308631367981434,0.6743398308753967,0.638599157333374,-0.37075185775756836,-0.002281785011291504,-0.027225255966186523,-0.002310335636138916,0.8228689577737194,-0.42807176880988107,0.36246190539019163,0.09089894243911874
1729786661942443000,3.548443115234375,-0.10473842918872833,-0.036773961037397385,0.002827787771821022,0.674369752407074,0.6387588977813721,-0.3704219460487366,-0.00934600830078125,-0.009166061878204346,-0.003967702388763428,0.8227292392488416,-0.42838308433084454,0.36232161864661105,0.09125546702440718
1729786661952474000,3.55847412109375,-0.07448578625917435,-0.04883946478366852,0.0038046352565288544,0.6744587421417236,0.6389465928077698,-0.3699359595775604,-0.005193054676055908,0.014724671840667725,-0.014722883701324463,0.822545036518898,-0.42872940630668205,0.36224730595577914,0.09158372327418804
1729786661962505200,3.568505126953125,-0.08291628956794739,-0.0418233722448349,-0.0005259313620626926,0.6744977831840515,0.6392788290977478,-0.3692903220653534,0.001329183578491211,0.012561380863189697,-0.010897696018218994,0.8223207792487813,-0.4291529451141262,0.3621913651064721,0.09183533696491607
1729786661972537000,3.578537109375,-0.08427856117486954,-0.027088474482297897,0.005587355233728886,0.6746768355369568,0.6395564675331116,-0.36848169565200806,-0.0035037994384765625,-0.012145578861236572,0.0024538636207580566,0.8220436555639492,-0.4295936228914898,0.3622270903968261,0.09211481405452869
1729786661982568000,3.58856787109375,-0.08493396639823914,-0.016775116324424744,0.014171787537634373,0.6749756336212158,0.6396737694740295,-0.3677298128604889,-0.005084395408630371,-0.021738648414611816,0.01960054039955139,0.8217795040381922,-0.4299523122500891,0.36232043670051467,0.09242957582598652
1729786661992599000,3.59859912109375,-0.0778861790895462,-0.007940185256302357,0.012273221276700497,0.6752312779426575,0.6398389339447021,-0.36697274446487427,-0.004500746726989746,-0.01735663414001465,0.023131132125854492,0.8215188596686579,-0.4303182779980009,0.36240834710021486,0.09269963185488424
1729786662002630100,3.608630126953125,-0.06323106586933136,-0.012319487519562244,0.01036080438643694,0.6754696369171143,0.6399118304252625,-0.3664061725139618,-0.006982207298278809,-0.006077110767364502,0.002178877592086792,0.8213169598436205,-0.4305907066519726,0.3624755915599231,0.09295942546744909
1729786662012661200,3.6186611328125,-0.022317390888929367,-0.0102909030392766,0.006629449315369129,0.6756179332733154,0.6397665143013,-0.36638638377189636,-0.0041092634201049805,0.006260037422180176,-0.016883879899978638,0.8212865562369246,-0.43061166558751407,0.36246433763737235,0.09317419045026934
1729786662022692000,3.628692138671875,-0.009253254160284996,-0.00484820082783699,0.015096171759068966,0.6756022572517395,0.6396765112876892,-0.3665725886821747,-0.0028575658798217773,0.01793152093887329,-0.019825756549835205,0.8213325985201649,-0.43056588709339255,0.3623902971625865,0.09326835817520936
1729786662032723200,3.63872314453125,-0.011707557365298271,-0.005967368371784687,0.026874534785747528,0.6754730939865112,0.639674723148346,-0.36681365966796875,-0.007229745388031006,0.020573079586029053,-0.01538848876953125,0.8214004294053308,-0.430535956346401,0.36225951168189224,0.0933172486144811
1729786662042754000,3.648754150390625,-0.034773461520671844,-0.027032438665628433,0.017152398824691772,0.6753890514373779,0.6396875381469727,-0.3669462502002716,-0.006108105182647705,0.010382652282714844,-0.01742267608642578,0.8214255555403426,-0.43057433023259684,0.36212237858884117,0.09345182815159948
1729786662052786200,3.6587861328125,-0.04659843072295189,-0.03455997258424759,0.022712279111146927,0.6754680275917053,0.6395955085754395,-0.36696091294288635,0.00025206804275512695,-0.008324205875396729,-0.017011255025863647,0.8214004138621853,-0.43063593363081765,0.3620390063152812,0.09371030592979494
1729786662062817000,3.668817138671875,-0.05676797777414322,-0.018235592171549797,0.019087452441453934,0.6757432222366333,0.6395235061645508,-0.36657994985580444,-0.0028458833694458008,-0.014706611633300781,-0.012997746467590332,0.8212498697601532,-0.43081119139581514,0.36209355639032353,0.09401406636346088
1729786662072848100,3.67884814453125,-0.04346968233585358,-0.011773805133998394,0.00970699917525053,0.6760076284408569,0.6395536065101624,-0.36603954434394836,-0.013883054256439209,-0.0063596367835998535,-0.008777379989624023,0.8210591355569887,-0.4310417861533282,0.36219223114954835,0.09424276890057551
1729786662082879000,3.68887890625,-0.04293784871697426,-0.01114476565271616,0.006228644400835037,0.675971269607544,0.6396820545196533,-0.3658818304538727,-0.017554640769958496,-0.006457626819610596,0.0008000433444976807,0.8209969640492388,-0.43119779712779266,0.36211537995188164,0.09436509619241298
1729786662092910000,3.69891015625,-0.036303646862506866,-0.016291378065943718,0.0005180276930332184,0.6757574677467346,0.639859139919281,-0.365967333316803,-0.010367512702941895,-0.009457588195800781,0.01278737187385559,0.8210124021918461,-0.4313153421406508,0.36191631123698215,0.09445743614273128
1729786662102941000,3.70894091796875,-0.029688887298107147,-0.01612972468137741,-0.011018520221114159,0.6753813624382019,0.6401447057723999,-0.36616209149360657,-0.0034911632537841797,-0.010246634483337402,0.02294611930847168,0.8210717578074717,-0.43142704933828474,0.36164852884160065,0.09445696049163786
1729786662112972000,3.718971923828125,-0.058449696749448776,-0.022185910493135452,-0.01927884668111801,0.674882173538208,0.640625,-0.36624276638031006,0.002958953380584717,-0.018707275390625,0.008668243885040283,0.821101213486162,-0.431648795821019,0.36132802330306296,0.09441521213493229
1729786662123003000,3.7290029296875,-0.11666639894247055,-0.028025425970554352,-0.017115294933319092,0.6744348406791687,0.6411411166191101,-0.3661632239818573,0.00036972761154174805,-0.024503052234649658,0.0153331458568573,0.8210669272282782,-0.4319799508487042,0.36098712574748476,0.09450167408542849
1729786662133035300,3.73903515625,-0.16874279081821442,-0.036132410168647766,-0.008421138860285282,0.6742619872093201,0.6415454745292664,-0.3657732903957367,-0.009711265563964844,-0.04340100288391113,0.020649999380111694,0.8209088202423057,-0.4324287192541559,0.360719782142922,0.09484322219347587
1729786662143066000,3.749066162109375,-0.21325352787971497,-0.03379761427640915,-0.0116888377815485,0.6741241812705994,0.6420859098434448,-0.36507827043533325,-0.01126718521118164,-0.058238983154296875,0.01742205023765564,0.8206469921187237,-0.43305498386838837,0.36045005145367154,0.09527618371594931
1729786662153097200,3.75909716796875,-0.22264224290847778,-0.03763522952795029,-0.010261382907629013,0.6738296151161194,0.6429792046546936,-0.36404868960380554,-0.010423243045806885,-0.043995440006256104,0.010746628046035767,0.8202819001813149,-0.43394495301705166,0.36009364029737934,0.095718372491883
1729786662163128000,3.769128173828125,-0.1291186809539795,-0.040812116116285324,-0.008146300911903381,0.6735656261444092,0.643702507019043,-0.3632577955722809,-0.0075501203536987305,0.010533273220062256,0.002356916666030884,0.819999522821459,-0.4346541297951821,0.35978728153827993,0.09607045367011359
1729786662173159200,3.7791591796875,-0.01694626174867153,-0.04201431944966316,-0.011307472363114357,0.6734073758125305,0.6439909338951111,-0.36303994059562683,0.00043594837188720703,0.054983556270599365,-0.02105429768562317,0.8199097770674557,-0.4349418186268956,0.35959094978895784,0.09626930129154761
1729786662183190000,3.78918994140625,0.05564938113093376,-0.032573677599430084,-0.017686808481812477,0.6732465624809265,0.6439824104309082,-0.36335334181785583,0.009538471698760986,0.06431525945663452,-0.026325643062591553,0.8200065843940287,-0.4348659919530323,0.3594647361912672,0.09625912713144825
1729786662193221000,3.79922119140625,0.025739815086126328,-0.025868583470582962,-0.014576236717402935,0.6731160879135132,0.6438626646995544,-0.3638070821762085,0.007151186466217041,0.03797626495361328,-0.01038426160812378,0.8201519264082271,-0.434679280179036,0.3593749900645029,0.09619955064156399
1729786662203252000,3.809251953125,-0.01477245707064867,-0.03483171761035919,0.0002056388184428215,0.6730676889419556,0.6438032388687134,-0.3640015423297882,0.0019200444221496582,0.006099045276641846,0.01724553108215332,0.8202038326187048,-0.4346334232938707,0.35929515864630857,0.09626175675275037
1729786662213284000,3.8192841796875,-0.06903202831745148,-0.05409085005521774,0.008103509433567524,0.6730526089668274,0.6437891721725464,-0.36405444145202637,0.001492619514465332,-0.03397166728973389,0.020472228527069092,0.8201918892411009,-0.4347193709451244,0.3591543548811789,0.09650088013306372
1729786662223315200,3.829315185546875,-0.15974408388137817,-0.04800818860530853,0.0026488229632377625,0.6730285286903381,0.6440334320068359,-0.36366650462150574,-0.007821738719940186,-0.07721525430679321,0.011524170637130737,0.8200262096305124,-0.43510829869339973,0.3589533554551766,0.09690255374299162
1729786662233346300,3.83934619140625,-0.17241640388965607,-0.0359187126159668,0.014140096493065357,0.6730208396911621,0.6445124745368958,-0.3628315031528473,-0.02678060531616211,-0.06541097164154053,0.015220999717712402,0.8197154855704527,-0.43574995341386635,0.35875649838758356,0.09737730782377169
1729786662243377200,3.849377197265625,-0.11317599564790726,-0.029412878677248955,0.0037074293941259384,0.6729269027709961,0.6450161337852478,-0.36211007833480835,-0.02715963125228882,-0.005093038082122803,0.0061529576778411865,0.8194538836729568,-0.43632571984644475,0.35855937925156184,0.09772646043089174
1729786662253408300,3.859408203125,-0.03641936182975769,-0.02841818705201149,-0.0006231367588043213,0.6727014780044556,0.6453919410705566,-0.36185887455940247,-0.006487607955932617,0.042840421199798584,-0.012530773878097534,0.8193592702515946,-0.4366454451612251,0.35834524333905193,0.09787633128713871
1729786662263439000,3.869439208984375,-0.031100496649742126,-0.0207834392786026,0.003626469522714615,0.6725096702575684,0.6455875635147095,-0.36186647415161133,0.010000646114349365,0.04832106828689575,-0.008998453617095947,0.8193526225470477,-0.4367808434713753,0.3581749067731277,0.09795140668050632
1729786662273470200,3.87947021484375,-0.06083096191287041,-0.022096803411841393,0.007238248363137245,0.6724159717559814,0.6457678079605103,-0.3617192804813385,0.014519453048706055,0.018706679344177246,-0.0008448362350463867,0.8192915092382732,-0.43696788704622314,0.3580494635755882,0.09808750591774267
1729786662283502600,3.889502685546875,-0.09645073860883713,-0.025544798001646996,0.007675806060433388,0.6723837852478027,0.646029531955719,-0.36131107807159424,0.011911749839782715,-0.015719592571258545,0.004301220178604126,0.8191398997204594,-0.4372931612525709,0.3579373543409783,0.09831191600914799
1729786662293533400,3.899533447265625,-0.08373754471540451,-0.010922073386609554,0.003373469226062298,0.67242830991745,0.6462521553039551,-0.36083000898361206,0.0035359859466552734,-0.031277239322662354,-0.003336310386657715,0.8189620218615425,-0.43762837780128194,0.35786365762416505,0.0985708624139426
1729786662303564500,3.909564453125,-0.05124564468860626,0.012140901759266853,0.005761259235441685,0.6726105809211731,0.6462876796722412,-0.3604261577129364,-0.016055524349212646,-0.027574360370635986,-0.011659413576126099,0.8188137835963363,-0.4378245055259325,0.3579058874981411,0.09877709182463507
1729786662313595600,3.919595703125,0.005309908650815487,0.029032427817583084,0.005036346614360809,0.672823429107666,0.6461976766586304,-0.3601902425289154,-0.028719544410705566,0.0038419365882873535,-0.019066959619522095,0.8187335040811567,-0.43785737118919454,0.3580304381798059,0.09884540424070906
1729786662323626500,3.92962646484375,0.05976089835166931,0.024024618789553642,0.001527099870145321,0.6728969812393188,0.6460908651351929,-0.36024439334869385,-0.0216519832611084,0.03823518753051758,-0.022842735052108765,0.8187652091124746,-0.43773387550140574,0.3581436184218124,0.09871967926423945
1729786662333657900,3.939657958984375,0.07696744799613953,0.022934481501579285,0.002428845502436161,0.672892153263092,0.6459192037582397,-0.3605612814426422,-0.0015207529067993164,0.042404770851135254,-0.018360257148742676,0.8188867300775416,-0.43748435628378307,0.3582272918429885,0.09851439493049864
1729786662343688700,3.949688720703125,0.05323042720556259,0.021682528778910637,0.0028437664732337,0.6728957891464233,0.6457781195640564,-0.3608070909976959,0.006913721561431885,0.012333333492279053,-0.011385291814804077,0.8189849045416555,-0.4372721218702044,0.35831486022551035,0.0983218877654816
1729786662353719800,3.9597197265625,0.012327403761446476,0.024884074926376343,0.0047854771837592125,0.6730036735534668,0.6456488370895386,-0.36083725094795227,-0.0013729333877563477,-0.02057260274887085,-0.0044429004192352295,0.8190062455276809,-0.4371524582535257,0.35843981462615493,0.09822062240716765
1729786662363751700,3.969751708984375,-0.02366495132446289,0.02534666657447815,0.00392527598887682,0.6731824278831482,0.6456059813499451,-0.3605802357196808,-0.010859549045562744,-0.03880983591079712,0.0010068714618682861,0.818928093925912,-0.4371836453057358,0.3585810140460677,0.09821763381564352
1729786662373782500,3.979782470703125,0.004212286788970232,0.03211679309606552,0.010616200976073742,0.6734191179275513,0.6454811096191406,-0.3603617548942566,-0.01616215705871582,-0.025592923164367676,0.015757232904434204,0.8188577395784528,-0.4371775446943583,0.35874074484590435,0.0982482586327874
1729786662383813600,3.989813720703125,0.05183333531022072,0.03219535946846008,0.007652370259165764,0.6735950708389282,0.6452200412750244,-0.36050084233283997,-0.015605568885803223,-0.004366099834442139,0.0011410415172576904,0.8189069511543778,-0.43698427330772915,0.35887926892907107,0.09819304033290979
1729786662393844500,3.999844482421875,0.07083804905414581,0.03917811065912247,0.009575172327458858,0.673539400100708,0.6450628638267517,-0.3608856201171875,-0.013566315174102783,0.004534244537353516,-0.0078277587890625,0.8190500850552973,-0.43672365020879356,0.35892845842593724,0.09797802529143973
1729786662403875600,4.00987548828125,0.11252743750810623,0.04666798934340477,0.006595094688236713,0.6733960509300232,0.6449631452560425,-0.3613312244415283,-0.008723258972167969,0.01266014575958252,-0.00010377168655395508,0.819227783034318,-0.4364218950444938,0.35898512585970355,0.09762903627461947
1729786662413906700,4.01990673828125,0.10624444484710693,0.03887653350830078,0.0070883119478821754,0.6733152866363525,0.6447633504867554,-0.36183807253837585,-0.0031798481941223145,0.018429338932037354,-0.006280243396759033,0.8194273930693182,-0.436041192433034,0.35909475996725715,0.0972512789478382
1729786662423937500,4.0299375,0.08599057793617249,0.029396481812000275,-0.0002833176404237747,0.6733827590942383,0.6444351673126221,-0.36229681968688965,0.0022611021995544434,0.012013137340545654,-0.011116266250610352,0.8195972411786081,-0.43565738700867307,0.3592411896307381,0.0969989397734291
1729786662433968600,4.03996875,0.04655228927731514,0.023834362626075745,0.003811025992035866,0.6735877394676208,0.6440156102180481,-0.3626617193222046,0.00625234842300415,-0.006549179553985596,0.0055907368659973145,0.8197213286815576,-0.4353081183117808,0.3594105995497342,0.0968907334026199
1729786662444000800,4.050000732421875,0.011510146781802177,0.020241491496562958,0.0022117979824543,0.6738595366477966,0.6436312794685364,-0.3628389239311218,0.0021963119506835938,-0.023788750171661377,0.00999462604522705,0.8197748619240639,-0.4350669222864447,0.3595793554049937,0.09689460898145948
1729786662454031600,4.060031494140625,-0.0036121471785008907,0.030086399987339973,-0.01174343191087246,0.6739997267723083,0.6436339020729065,-0.36257365345954895,-0.0036965012550354004,-0.02907097339630127,0.01967814564704895,0.8197009219669698,-0.4350991690499267,0.3597247395445753,0.09683579661532273
1729786662464062700,4.070062744140625,0.013386277481913567,0.03420684486627579,-0.006395271979272366,0.6739551424980164,0.6437838077545166,-0.362390398979187,-0.013737916946411133,-0.0239107608795166,0.013116657733917236,0.8196648013886574,-0.43514482869754656,0.359796866603672,0.09666840517206331
1729786662474093600,4.080093505859375,0.05425328016281128,0.034770846366882324,-0.012667548842728138,0.6738511323928833,0.6438450813293457,-0.36247485876083374,-0.014702022075653076,-0.0047917962074279785,0.006807684898376465,0.8197172340171437,-0.4350600483521942,0.359840694168839,0.09644175806632692
1729786662484124700,4.090124755859375,0.0617934912443161,0.02506548911333084,-0.018688956275582314,0.6736683249473572,0.6439406275749207,-0.36264514923095703,-0.0025562644004821777,0.009303390979766846,0.0056047141551971436,0.8198069614793143,-0.43493374922826133,0.3598750568055487,0.09612060448838992
1729786662494155500,4.100155517578125,0.04027481749653816,0.01472022570669651,-0.017061233520507812,0.673402726650238,0.6440996527671814,-0.36285585165023804,0.008054733276367188,0.009052813053131104,0.007264971733093262,0.8199057265980084,-0.4348442463596557,0.3598368433693465,0.09582528665877409
1729786662504186600,4.1101865234375,0.011291900649666786,0.008085492998361588,-0.010744746774435043,0.6732407808303833,0.6441545486450195,-0.3630589246749878,0.0120772123336792,-0.0020036697387695312,0.024802029132843018,0.8199861909785268,-0.4347607064337239,0.3597967096507781,0.09566653350216656
1729786662514217700,4.1202177734375,-0.026684444397687912,0.002788519486784935,-0.0003291238099336624,0.673387348651886,0.6441043615341187,-0.36287617683410645,0.004118144512176514,-0.021835684776306152,0.027152299880981445,0.8199274056492338,-0.43478435580358127,0.35989508272884835,0.09569299715051631
1729786662524249600,4.13024951171875,-0.05071787163615227,-0.008250548504292965,0.007557827979326248,0.6737004518508911,0.6439576148986816,-0.3625554144382477,-0.0038854479789733887,-0.03270578384399414,0.022498011589050293,0.8198041637000019,-0.4348699449255587,0.36001446849346913,0.09591113973796606
1729786662534280400,4.140280517578125,-0.03785720467567444,-0.003374462015926838,0.00880525168031454,0.6740273237228394,0.643856942653656,-0.36212611198425293,-0.0018319487571716309,-0.02634906768798828,0.019535720348358154,0.8196475900289506,-0.4350033699419791,0.360151383337302,0.09612901700911179
1729786662544311600,4.1503115234375,-0.004130664747208357,0.0019092499278485775,0.02459247037768364,0.6742613315582275,0.6437283754348755,-0.361919105052948,-0.012991249561309814,-0.0016690492630004883,-0.0027507543563842773,0.8195681985590594,-0.4350397735321648,0.3602510911215865,0.0962678246364211
1729786662554342400,4.16034228515625,0.02739650197327137,-0.007462627254426479,0.01229399349540472,0.6742852926254272,0.6436484456062317,-0.36201658844947815,-0.008361279964447021,0.029889702796936035,-0.01702702045440674,0.8195957755500846,-0.4349844806895928,0.36025020065811675,0.09628644450313778
1729786662564373800,4.170373779296875,0.023203354328870773,-0.005518252961337566,0.013234888203442097,0.6742322444915771,0.6436375379562378,-0.36213481426239014,0.002525508403778076,0.027962803840637207,-0.02342432737350464,0.8196366147144152,-0.43493547921039477,0.3602273278663811,0.0962455735531776
1729786662574404600,4.180404541015625,0.03555935621261597,0.0077906278893351555,0.026714477688074112,0.6744040846824646,0.643460750579834,-0.36212900280952454,-0.001262664794921875,0.013933658599853516,-0.010154962539672852,0.8196326340965693,-0.4348505955488297,0.3603338152024424,0.09626454843643824
1729786662584435700,4.190435791015625,0.024481406435370445,0.01404852420091629,0.012463902123272419,0.6748062968254089,0.6431916952133179,-0.36185750365257263,-0.003633260726928711,-0.003100752830505371,-0.0017289519309997559,0.8195454434656815,-0.43478103712546584,0.360606004628858,0.09630166495256894
1729786662594467600,4.200467529296875,0.024900320917367935,0.02252563089132309,0.013606664724647999,0.6752750277519226,0.6428877711296082,-0.3615230917930603,-0.008115053176879883,-0.016163527965545654,-0.0019870400428771973,0.8194376969445161,-0.43471132490764386,0.3609217613229134,0.09635043874874882
1729786662604498700,4.210498779296875,0.04021083563566208,0.02722690999507904,0.016308177262544632,0.6757674813270569,0.6424487829208374,-0.36138343811035156,-0.00708162784576416,-0.004051566123962402,0.010248184204101562,0.8193897983117726,-0.4345264226547298,0.36124101166967865,0.09639585215692417
1729786662614529500,4.220529541015625,0.06234223395586014,0.025287862867116928,0.005502133630216122,0.6761764287948608,0.642034113407135,-0.3613552451133728,0.00373995304107666,0.004465460777282715,0.009518027305603027,0.819385242736618,-0.43429537685341413,0.36153824777337185,0.09636090410773633
1729786662624560600,4.230560546875,0.05229759216308594,0.018832359462976456,0.006539701484143734,0.6761375069618225,0.6418755054473877,-0.3617095947265625,0.002115607261657715,0.0015417933464050293,0.0016173720359802246,0.8195143914391233,-0.43405607707859795,0.36158060017761595,0.09618170146631172
1729786662634591500,4.240591552734375,0.03148791939020157,0.023771725594997406,0.009475302882492542,0.6758544445037842,0.6420037746429443,-0.3620108366012573,-0.003704845905303955,-0.005285024642944336,-0.010257899761199951,0.8196323289637011,-0.43396248605980936,0.36148463890943905,0.09595928708851685
1729786662644622600,4.25062255859375,0.021882692351937294,0.029436800628900528,0.015291380695998669,0.6757371425628662,0.6420090198516846,-0.3622208535671234,-0.010911703109741211,-0.011561572551727295,0.0025101006031036377,0.819712615526345,-0.43385991625469644,0.36146250598427204,0.0958216915737951
1729786662654653400,4.2606533203125,0.03177314251661301,0.02440156228840351,0.013234355486929417,0.6757447719573975,0.6419513821601868,-0.3623083233833313,-0.012842059135437012,-0.018050074577331543,0.0006139576435089111,0.8197517199533703,-0.4337631250066609,0.3615181694115512,0.09571410350848608
1729786662664684500,4.2706845703125,0.04536072164773941,0.020174115896224976,0.016306310892105103,0.6758893132209778,0.6417221426963806,-0.36244481801986694,-0.007752776145935059,-0.004316747188568115,-0.0029574036598205566,0.8198006565998651,-0.4335838722819318,0.361638791825463,0.095651458813429
1729786662674716700,4.280716552734375,0.0542747862637043,0.013309602625668049,0.02121984213590622,0.676100492477417,0.6413144469261169,-0.36277246475219727,-0.0018299221992492676,0.014569342136383057,0.00409930944442749,0.8199030509284967,-0.4332870083314626,0.3617680719380093,0.09563063025980083
1729786662684747800,4.290747802734375,0.04141544550657272,0.01383131556212902,0.01635771244764328,0.676275908946991,0.6410813331604004,-0.3628576695919037,0.0001309514045715332,0.00880575180053711,0.009341984987258911,0.8199355345747766,-0.4331196543387715,0.36190956449638656,0.09557505484272415
1729786662694778600,4.300778564453125,0.018848951905965805,0.004474194720387459,0.02103874832391739,0.6764687895774841,0.6409130096435547,-0.36279532313346863,-0.00036716461181640625,-0.010648727416992188,0.01156848669052124,0.8199185487362057,-0.43303493895095296,0.3620539754958406,0.09555724460192502
1729786662704809700,4.310809814453125,0.008811765350401402,0.014025088399648666,0.020937547087669373,0.6766669750213623,0.64072585105896,-0.36275631189346313,-0.0034950971603393555,-0.019250690937042236,0.018472224473953247,0.8199011171293586,-0.4329640292574266,0.3621657040185659,0.09560479128921483
