time,seconds_elapsed,rotationRateX,rotationRateY,rotationRateZ,gravityX,gravityY,gravityZ,accelerationX,accelerationY,accelerationZ,quaternionW,quaternionX,quaternionY,quaternionZ
1728064999700308200,0.13530810546875,0.029339425265789032,-0.025092273950576782,0.006559902336448431,-0.014677376486361027,-0.37209758162498474,-0.9280775785446167,-0.012513783760368824,0.003307908773422241,-0.0093003511428833,0.9818548621453715,0.18948706563482257,-0.007474310876927637,-1.9246282627512212e-17
1728064999710339300,0.14533935546875,0.03218827769160271,-0.0362369641661644,-0.010258225724101067,-0.015281759202480316,-0.3721611499786377,-0.9280423521995544,-0.011558454483747482,0.008284807205200195,-0.011624395847320557,0.9818459191983847,0.18952114497297415,-0.007782479282680686,-0.0000016664448821240639
1728064999720369200,0.155369140625,0.04073302820324898,-0.05164920911192894,-0.010641987435519695,-0.016322743147611618,-0.37224462628364563,-0.9279911518096924,-0.006214482709765434,0.00975683331489563,-0.011965513229370117,0.9818328178649723,0.18956601905318093,-0.008316317787649175,-0.000020374154477373884
1728064999730400300,0.165400146484375,0.054114215075969696,-0.05603383854031563,-0.01085583958774805,-0.016853027045726776,-0.37199756503105164,-0.9280807375907898,-0.00031311437487602234,0.010013341903686523,-0.008259594440460205,0.9818556680957973,0.18943510915058087,-0.008601391231388405,-0.00009929935966411041
1728064999740430000,0.17543017578125,0.0634741559624672,-0.06109650805592537,-0.013559214770793915,-0.016917962580919266,-0.3718102276325226,-0.9281545877456665,0.004192132502794266,0.013930588960647583,-0.006873488426208496,0.9818744406727319,0.18933472833552603,-0.008663792824077634,-0.00025233529207313116
1728064999750461200,0.185461181640625,0.06899149715900421,-0.05851558968424797,-0.013186904601752758,-0.016929620876908302,-0.371742844581604,-0.9281814098358154,0.004402158781886101,0.015419572591781616,-0.00831151008605957,0.9818812335190569,0.18929759301317467,-0.008702219643760676,-0.00042121859895024113
1728064999760491000,0.195490966796875,0.05617902800440788,-0.07036744803190231,-0.01244894228875637,-0.017294101417064667,-0.37177610397338867,-0.9281613230705261,0.002371009439229965,0.013301372528076172,-0.005142509937286377,0.9818760220027378,0.1893142694087622,-0.008912857711340783,-0.0005507798120920085
1728064999770521000,0.20552099609375,0.044068437069654465,-0.06933265924453735,-0.020182762295007706,-0.01804616115987301,-0.3719528019428253,-0.9280762076377869,0.012034198269248009,0.012348920106887817,-0.0029082894325256348,0.9818542605439193,0.189407128915504,-0.009318209821184881,-0.0006654650548606258
1728064999780552200,0.21555224609375,0.018078647553920746,-0.05589327588677406,-0.04349980503320694,-0.01885053887963295,-0.37204092741012573,-0.9280248880386353,0.0172636229544878,0.007950961589813232,0.005982041358947754,0.9818411386055101,0.18945248781718776,-0.009762077430231053,-0.0008421110220041376
1728064999790582300,0.225582275390625,-0.018373768776655197,-0.04307601600885391,-0.05897383391857147,-0.01939074508845806,-0.3716626465320587,-0.9281653165817261,0.006725955754518509,-0.002406567335128784,0.013294100761413574,0.9818765543497827,0.1892498227898821,-0.010091290910963686,-0.0011256503807182529
1728064999800613000,0.235613037109375,-0.047761220484972,-0.03494139015674591,-0.07081717997789383,-0.019595548510551453,-0.3709366023540497,-0.928451418876648,-0.007748197764158249,-0.005818158388137817,0.01637256145477295,0.981948890081865,0.18886230444164978,-0.010262098331184091,-0.0014776976423016915
1728064999810643200,0.245643310546875,-0.04737053066492081,-0.03950631245970726,-0.07190214842557907,-0.019587330520153046,-0.3701323866844177,-0.928772509098053,-0.008259963244199753,-0.005294889211654663,0.02490288019180298,0.9820299492565078,0.18843285778861882,-0.010334510651765064,-0.001884668742649716
1728064999820674300,0.25567431640625,-0.03494209051132202,-0.038397904485464096,-0.07475439459085464,-0.019450973719358444,-0.3693189322948456,-0.9290991425514221,-0.0031472910195589066,-0.007008582353591919,0.02420717477798462,0.9821122366736109,0.187998629034821,-0.010341547114331122,-0.0022929610958261244
1728064999830704000,0.2657041015625,-0.020225530490279198,-0.04012049362063408,-0.08858072757720947,-0.019277751445770264,-0.368612140417099,-0.929383397102356,-0.005349937826395035,-0.0033819079399108887,0.019456028938293457,0.9821834374056048,0.18762035612378253,-0.01033947485700824,-0.002752285771006814
1728064999840735200,0.2757353515625,0.003212949726730585,-0.023056553676724434,-0.07932890951633453,-0.019117647781968117,-0.36820533871650696,-0.9295479655265808,-0.009095853194594383,0.005961686372756958,0.016065239906311035,0.9822238829594762,0.18740066330998037,-0.010345125836395434,-0.0032145323826557473
1728064999850765300,0.285765380859375,0.01727803610265255,-0.0162773709744215,-0.06445195525884628,-0.018606623634696007,-0.36806720495224,-0.9296129941940308,-0.010354559868574142,0.011286169290542603,0.012575030326843262,0.9822390010111703,0.18732385859185444,-0.010162084051193091,-0.003620914980768106
1728064999860796200,0.295796142578125,0.018712148070335388,-0.014063751325011253,-0.054172687232494354,-0.017957521602511406,-0.3682033121585846,-0.9295718669891357,-0.0041982438415288925,0.014474064111709595,0.003592252731323242,0.9822271084110072,0.18739287034976276,-0.009898764881764685,-0.003970664263135264
1728064999870826200,0.305826171875,0.019123340025544167,-0.009953801520168781,-0.03224102407693863,-0.017736708745360374,-0.3687214255332947,-0.9293707013130188,0.005880627781152725,0.018288075923919678,0.002963840961456299,0.9821749528880578,0.187664508947582,-0.009832570179209481,-0.004204042462230048
1728064999880856300,0.315856201171875,0.011756770312786102,-0.0030791182070970535,-0.029611950740218163,-0.018027476966381073,-0.3692871928215027,-0.9291404485702515,0.0030280854552984238,0.014001548290252686,0.009249091148376465,0.9821159447370599,0.18796184244262454,-0.010005619748084076,-0.0043250275581019825
1728064999890887200,0.32588720703125,-0.009357237257063389,0.014056405983865261,-0.03855324909090996,-0.01816902682185173,-0.3697453439235687,-0.9289554953575134,0.001231776550412178,0.008737653493881226,0.009338796138763428,0.9820682434828577,0.18820237505603846,-0.010105535733847051,-0.004462283148695448
1728064999900917200,0.335917236328125,-0.026172170415520668,0.02154867723584175,-0.03706347569823265,-0.017994645982980728,-0.36998867988586426,-0.9288619756698608,-0.007090801373124123,0.006005525588989258,0.00832974910736084,0.9820436923426534,0.18832965899290752,-0.010047252373597722,-0.004616996568649755
1728064999910948400,0.3459482421875,-0.03720857575535774,0.02912755496799946,-0.03241013363003731,-0.01780809462070465,-0.36991947889328003,-0.9288931488990784,-0.016936169937253,0.005112349987030029,0.005141317844390869,0.9820510073872137,0.1882919072814685,-0.00997912103443351,-0.004758349482016419
1728064999920978400,0.355978515625,-0.03491745889186859,0.010202598758041859,-0.022218482568860054,-0.0177946537733078,-0.3695624768733978,-0.929035484790802,-0.006695704534649849,0.006555885076522827,0.0012096166610717773,0.9820866662068491,0.1881022772253226,-0.00998943783603893,-0.0048546283702293695
1728064999931009300,0.36600927734375,-0.03234677389264107,-0.011510099284350872,-0.02990063652396202,-0.018004542216658592,-0.36907050013542175,-0.9292269945144653,0.00353921577334404,0.005392521619796753,0.001950383186340332,0.9821349218613779,0.187840921757826,-0.010113888696711456,-0.004955959775068744
1728064999941039400,0.376039306640625,-0.025365831330418587,-0.014376460574567318,-0.03531910479068756,-0.018110617995262146,-0.3684883117675781,-0.9294559955596924,0.008772240951657295,0.009647369384765625,0.010861635208129883,0.9821924528924764,0.18753141865097914,-0.01019699658600076,-0.0051196987257636165
1728064999951070200,0.3860703125,-0.02996804006397724,-0.02103191241621971,-0.04396878555417061,-0.017984284088015556,-0.3678731918334961,-0.9297020435333252,0.01233852282166481,0.009902000427246094,0.013243913650512695,0.9822537984139841,0.18720440262620258,-0.010173031285133383,-0.005343661661930574
1728064999961096200,0.39609619140625,-0.0384475439786911,-0.01746753789484501,-0.04787378013134003,-0.01793740689754486,-0.36736488342285156,-0.9299039244651794,0.00785135105252266,0.0041751861572265625,0.007464349269866943,0.9823038222873367,0.18693347038055605,-0.01019394706987193,-0.005589421130662862
1728064999971126300,0.406126220703125,-0.03909442573785782,-0.013209410011768341,-0.04941708222031593,-0.01787523552775383,-0.36694154143333435,-0.9300722479820251,-0.0000385921448469162,-0.00010865926742553711,0.0064882636070251465,0.9823451857160198,0.1867072585482735,-0.01021109242682704,-0.005855153977711701
1728064999981157400,0.416157470703125,-0.03196274861693382,-0.004344652406871319,-0.051720451563596725,-0.017995720729231834,-0.36663106083869934,-0.9301923513412476,-0.010095706209540367,-0.0011973083019256592,0.0008100271224975586,0.9823742975938418,0.1865406059974383,-0.010315877625948728,-0.0060908614909804685
1728064999991187200,0.426187255859375,-0.044475942850112915,0.001630096696317196,-0.05208477005362511,-0.018338698893785477,-0.3663012385368347,-0.9303156137466431,-0.012896047905087471,-0.0016644597053527832,-0.0032933950424194336,0.9824043557549594,0.18636353931564106,-0.010527601370941884,-0.006294213068175801
1728065000001218300,0.43621826171875,-0.04968748241662979,-0.006443809252232313,-0.04861147701740265,-0.018352586776018143,-0.36579975485801697,-0.9305126070976257,-0.007800983265042305,0.00007709860801696777,-0.0026081204414367676,0.9824529679451607,0.1860963267430377,-0.01057579748917799,-0.00652312939123784
1728065000011248000,0.446248046875,-0.06025131046772003,-0.01745230332016945,-0.05949421599507332,-0.018140573054552078,-0.36528411507606506,-0.9307193160057068,0.0006387345492839813,-0.0023306310176849365,0.003396928310394287,0.9825036265711892,0.18582165908879517,-0.010519243115261477,-0.00680710499767028
1728065000021279000,0.456279052734375,-0.07292929291725159,-0.0211919154971838,-0.07688812166452408,-0.017808640375733376,-0.36462926864624023,-0.9309824705123901,0.006959633901715279,-0.004831790924072266,-0.0007344484329223633,0.9825678315317294,0.18547285218294957,-0.010420479427220058,-0.0071951646124798225
1728065000031309000,0.46630908203125,-0.08393274247646332,-0.0339176170527935,-0.08513672649860382,-0.01740126684308052,-0.3638763129711151,-0.9312847256660461,0.004812765866518021,-0.0037689507007598877,-0.0009204745292663574,0.982641195072757,0.18507189429880333,-0.010297155624977516,-0.007660674498100166
1728065000041340200,0.476340087890625,-0.08324990421533585,-0.04648187756538391,-0.08560784161090851,-0.01723221130669117,-0.36317387223243713,-0.9315620064735413,0.005650792270898819,-0.0048680901527404785,0.00011980533599853516,0.9827077587069207,0.18469673097115138,-0.010300822708149382,-0.008157114424569619
1728065000051370200,0.486370361328125,-0.07591549307107925,-0.04870625585317612,-0.07287020981311798,-0.017419734969735146,-0.3626343011856079,-0.9317687153816223,0.007898246869444847,-0.00293576717376709,-0.0033509135246276855,0.9827566670906382,0.184406935868495,-0.01047500918233122,-0.008592504929260834
1728065000061401000,0.496401123046875,-0.06694729626178741,-0.050263408571481705,-0.07595175504684448,-0.01794285699725151,-0.3621426820755005,-0.9319499731063843,0.00877232663333416,0.0004025697708129883,-0.0024830102920532227,0.9827992973776273,0.1841415811956517,-0.010811614541704487,-0.008983406129406566
1728065000071431200,0.50643115234375,-0.07879630476236343,-0.05231473594903946,-0.07543696463108063,-0.01855527237057686,-0.3616209030151367,-0.932140588760376,0.006394011899828911,-0.00042438507080078125,-0.0032689571380615234,0.9828442077612628,0.183859818023175,-0.01119263579380626,-0.009371165956806673
1728065000081461200,0.516461181640625,-0.0904630795121193,-0.04919244349002838,-0.0778878703713417,-0.018984679132699966,-0.3609427511692047,-0.9323947429656982,0.005038145929574966,-0.003238767385482788,0.002218961715698242,0.98290470617298,0.18349584511394865,-0.01148522049440718,-0.009790619619730812
1728065000091492000,0.5264921875,-0.1147848591208458,-0.04333764314651489,-0.08543713390827179,-0.019063636660575867,-0.36022713780403137,-0.9326698184013367,0.000402132049202919,-0.011019229888916016,0.00121229887008667,0.9829700290200267,0.18311303244695568,-0.011606060500813808,-0.010248266686845468
1728065000101522200,0.536522216796875,-0.13470956683158875,-0.0308237187564373,-0.1043652817606926,-0.018840216100215912,-0.35932227969169617,-0.9330233335494995,-0.0029493384063243866,-0.017142564058303833,-0.004003643989562988,0.9830542454470959,0.18263111724626208,-0.011584666243857077,-0.010777175309163585
1728065000111553300,0.54655322265625,-0.15090897679328918,-0.02753519080579281,-0.11689013242721558,-0.018515214323997498,-0.3582391142845154,-0.9334462881088257,-0.004464520141482353,-0.01544862985610962,-0.004236817359924316,0.9831549343347853,0.1820551337412367,-0.011523735068979909,-0.011381220266025355
1728065000121583000,0.5565830078125,-0.1470593810081482,-0.03520802780985832,-0.12802773714065552,-0.018153823912143707,-0.3571087419986725,-0.9338864088058472,-0.0024302825331687927,-0.010917961597442627,-0.004819035530090332,0.983258776052346,0.18145402554940265,-0.011456270122071274,-0.012055757441019098
1728065000131614200,0.5666142578125,-0.13133707642555237,-0.051047760993242264,-0.11267194896936417,-0.017869656905531883,-0.35603150725364685,-0.9343031048774719,0.005296410992741585,-0.009019732475280762,-0.005485713481903076,0.9833562485781072,0.1808807886478404,-0.011428064060489632,-0.012732305789083888
1728065000141644300,0.576644287109375,-0.10956093668937683,-0.07133518904447556,-0.07795977592468262,-0.017857041209936142,-0.35507848858833313,-0.9346659183502197,0.01630064845085144,-0.00429651141166687,-0.0028798580169677734,0.9834410016960925,0.18037282602266977,-0.011518401945830632,-0.013301048999720629
1728065000151675100,0.586675048828125,-0.1267136186361313,-0.07605729252099991,-0.06997508555650711,-0.01812676526606083,-0.3541576564311981,-0.9350100159645081,0.02683953382074833,0.0005047023296356201,0.006497442722320557,0.9835219950185986,0.17988139734121034,-0.01173300302571148,-0.01376620457744324
1728065000161705200,0.596705322265625,-0.15901777148246765,-0.09344214200973511,-0.06274300813674927,-0.018557103350758553,-0.35313042998313904,-0.935390055179596,0.024996314197778702,-0.0005988180637359619,0.018886148929595947,0.9836126223476281,0.17933351757411567,-0.012019448131763807,-0.014185464221071819
1728065000171736300,0.606736328125,-0.1566924899816513,-0.13166014850139618,-0.04324600473046303,-0.01944919303059578,-0.3521405756473541,-0.9357450008392334,0.022119484841823578,-0.0034196972846984863,0.030975162982940674,0.9836973001124363,0.1788027198496453,-0.012533095626045055,-0.01456452179481019
1728065000181766100,0.61676611328125,-0.1847131997346878,-0.15433856844902039,-0.01769084297120571,-0.0207547415047884,-0.35118699073791504,-0.9360752701759338,0.03486911579966545,0.006780892610549927,0.03182417154312134,0.9837768058038076,0.1782891581571089,-0.013241496568589538,-0.01485960524942694
1728065000191797200,0.62679736328125,-0.2658948004245758,-0.1361781507730484,0.006631008815020323,-0.022161876782774925,-0.34959250688552856,-0.9366397261619568,0.021871963515877724,-0.015489280223846436,0.018762528896331787,0.9839178257045499,0.17744002740501688,-0.013970797715117764,-0.01502016662401589
1728065000201827300,0.636827392578125,-0.294683039188385,-0.12335371226072311,-0.0076685682870447636,-0.023307638242840767,-0.3473668098449707,-0.9374396204948425,-0.014396825805306435,-0.027373790740966797,0.02462834119796753,0.9841191879401585,0.17626218892982246,-0.014554245321156258,-0.015143875215009681
1728065000211857400,0.646857421875,-0.2957231402397156,-0.15595191717147827,-0.03694922477006912,-0.024182233959436417,-0.34504225850105286,-0.9382755756378174,-0.03993520885705948,-0.023579567670822144,0.016980409622192383,0.9843276206095831,0.17503301846786815,-0.015021631853003738,-0.015397612596615266
1728065000221888300,0.65688818359375,-0.2774418890476227,-0.1297120600938797,-0.0219511017203331,-0.024938099086284637,-0.34262895584106445,-0.9391397833824158,-0.03907252475619316,-0.009849071502685547,0.0006937384605407715,0.9845416590157443,0.17375739313368654,-0.015442833450743135,-0.015740702094031594
1728065000231918000,0.66691796875,-0.27716243267059326,-0.1268703043460846,-0.010030259378254414,-0.02534402720630169,-0.3402978181838989,-0.9399760961532593,-0.02005086839199066,0.006816983222961426,0.008259177207946777,0.9847495386648104,0.1725289892599607,-0.01567457546980631,-0.016017696286874546
1728065000241949400,0.676949462890625,-0.2617725729942322,-0.13872003555297852,0.04129471257328987,-0.026008203625679016,-0.3381594717502594,-0.9407293796539307,-0.014137674123048782,0.005456835031509399,0.011926889419555664,0.9849383424138823,0.1714024727823556,-0.01601572221388577,-0.016163108914516514
1728065000251979000,0.68697900390625,-0.29667916893959045,-0.1426057368516922,0.05885452777147293,-0.026934059336781502,-0.33610039949417114,-0.9414409399032593,-0.008618917316198349,-0.0004016757011413574,0.023990988731384277,0.9851201977666871,0.17031987186167477,-0.016451775121468937,-0.016087064258368432
1728065000262010000,0.697010009765625,-0.3538247346878052,-0.1535811573266983,0.044914744794368744,-0.02771790139377117,-0.33339470624923706,-0.9423798322677612,-0.010871581733226776,-0.0069068074226379395,0.03101813793182373,0.9853589748651355,0.16890018720610608,-0.016817176977023417,-0.016056852012434262
1728065000272040200,0.707040283203125,-0.3916040062904358,-0.16448889672756195,0.04921521991491318,-0.02889496274292469,-0.33048930764198303,-0.9433673024177551,-0.029179992154240608,-0.011002391576766968,0.04903441667556763,0.9856098408251273,0.1673745973302039,-0.01738052087054566,-0.016029497107074644
1728065000282071000,0.717071044921875,-0.40734007954597473,-0.1857939213514328,0.05903003364801407,-0.030731702223420143,-0.3266620934009552,-0.9446414113044739,-0.022857170552015305,-0.012021958827972412,0.04724156856536865,0.9859344825623868,0.16536608002527683,-0.018257706283862817,-0.015934651534662028
1728065000292101000,0.72710107421875,-0.38313308358192444,-0.2178124636411667,0.060806892812252045,-0.03285040706396103,-0.32286298274993896,-0.9458754658699036,-0.003511279821395874,-0.0065895020961761475,0.034742653369903564,0.9862488636439849,0.16337267851164494,-0.019278213233642504,-0.01584054086047213
1728065000302132200,0.73713232421875,-0.348947137594223,-0.2381795197725296,0.07173570990562439,-0.035232823342084885,-0.31937703490257263,-0.9469725489616394,0.014633465558290482,0.0009719133377075195,0.014111220836639404,0.9865287568409686,0.16154331660398485,-0.02043266318949251,-0.01572951467841063
1728065000312162000,0.747162109375,-0.32848677039146423,-0.25113558769226074,0.09735319018363953,-0.03784246742725372,-0.31614914536476135,-0.9479544758796692,0.027481742203235626,0.00801318883895874,-0.0041329264640808105,0.9867804430172501,0.15985044059638795,-0.021693384286631177,-0.015548124599793106
1728065000322192100,0.757192138671875,-0.326261430978775,-0.2600339949131012,0.11684486269950867,-0.04062759876251221,-0.31302085518836975,-0.9488769173622131,0.031060341745615005,0.003084331750869751,-0.013189733028411865,0.987018511075749,0.15821270335622076,-0.023028060761502902,-0.015266298857011355
1728065000332223200,0.76722314453125,-0.33817848563194275,-0.26570674777030945,0.13708649575710297,-0.04352477192878723,-0.3097923994064331,-0.9498074650764465,0.026358630508184433,-0.008811086416244507,-0.013601958751678467,0.9872598647867623,0.1565269026201554,-0.024404583211179116,-0.014893798255130337
1728065000342253300,0.77725341796875,-0.35331428050994873,-0.26693207025527954,0.18213039636611938,-0.04654714837670326,-0.3064204156398773,-0.9507575631141663,0.021690573543310165,-0.01285448670387268,-0.01272815465927124,0.9875082992504018,0.15477284279067277,-0.025818520359793012,-0.014359291544640315
1728065000352284200,0.7872841796875,-0.36281877756118774,-0.2776920795440674,0.23789165914058685,-0.049800705164670944,-0.3029017448425293,-0.9517197012901306,0.023036785423755646,-0.010544240474700928,-0.01257467269897461,0.9877631181904138,0.15295203020381146,-0.027309608045822345,-0.013566813807164263
1728065000362314200,0.797314208984375,-0.38103610277175903,-0.2869569659233093,0.28445515036582947,-0.05329641327261925,-0.29922282695770264,-0.9526936411857605,0.029141750186681747,-0.012697339057922363,-0.009281456470489502,0.9880231003821633,0.15105840093902012,-0.02888829645301952,-0.012538839410267556
1728065000372345000,0.807344970703125,-0.4423619210720062,-0.27686038613319397,0.3466072082519531,-0.056970831006765366,-0.2951364815235138,-0.9537550806999207,0.030435793101787567,-0.013167321681976318,-0.0019486546516418457,0.9883073266993646,0.1489672724746019,-0.030515644070962213,-0.01123347359443641
1728065000382375200,0.817375244140625,-0.4988853931427002,-0.2970804274082184,0.4329833686351776,-0.06086358428001404,-0.290371835231781,-0.9549763202667236,0.03088005632162094,-0.013415396213531494,0.012196779251098633,0.988633424354071,0.14654235410070673,-0.0322050304832337,-0.009602525698802163
1728065000392406300,0.82740625,-0.48587197065353394,-0.32405394315719604,0.5740275979042053,-0.06528548151254654,-0.28530994057655334,-0.9562092423439026,0.03485944867134094,-0.009962886571884155,0.018190383911132812,0.9889639040863403,0.14399092069144792,-0.03408824279755675,-0.007426169454390336
1728065000402436400,0.837436279296875,-0.46696752309799194,-0.3599943518638611,0.7210857272148132,-0.07042627781629562,-0.28030115365982056,-0.9573251605033875,0.06073693931102753,-0.014635980129241943,-0.011165440082550049,0.9892633872421339,0.1415049839544436,-0.03624595555913315,-0.004548650570649821
1728065000412467200,0.84746728515625,-0.42094138264656067,-0.3881523907184601,0.9508709907531738,-0.07636012881994247,-0.2753989100456238,-0.958292543888092,0.08694972097873688,-0.01915675401687622,-0.04826873540878296,0.9895179673038736,0.13912750673772,-0.03869454794482459,-0.0007826327193664819
1728065000422497300,0.857497314453125,-0.34799155592918396,-0.4056174159049988,1.236924648284912,-0.0831955224275589,-0.2708284556865692,-0.9590258002281189,0.1037491038441658,-0.012313634157180786,-0.0771222710609436,0.9896941278782051,0.13700466052498103,-0.041434634807705824,0.004307487869598395
1728065000432528400,0.8675283203125,-0.27650928497314453,-0.40705394744873047,1.4330047369003296,-0.09075386822223663,-0.2666471302509308,-0.9595118761062622,0.11986763030290604,-0.019058436155319214,-0.10538375377655029,0.9897693432915681,0.13517793666189817,-0.04439574782857842,0.010618469357027673
1728065000442558200,0.87755810546875,-0.17073893547058105,-0.16514547169208527,1.295579195022583,-0.097336545586586,-0.26311755180358887,-0.9598410129547119,0.1060187891125679,-0.03661084175109863,-0.12528777122497559,0.9897582700280252,0.1337384141098361,-0.046835186537409396,0.017293152316951523
1728065000452588300,0.88758837890625,-0.020357422530651093,0.06423702090978622,0.585029125213623,-0.10103387385606766,-0.2611484229564667,-0.9599967002868652,0.05911797285079956,-0.059576064348220825,-0.14335107803344727,0.9896977711791266,0.13301536830663427,-0.04804751616427196,0.022286279446546323
1728065000462619400,0.897619384765625,0.1321314573287964,-0.2821401059627533,-1.284263014793396,-0.09821517765522003,-0.26306626200675964,-0.9597655534744263,-0.026876375079154968,-0.12972545623779297,-0.15914618968963623,0.989691758888147,0.1338433624079917,-0.04693801897893709,0.019824815739448182
1728065000472649200,0.907649169921875,-0.20334908366203308,-0.853158175945282,-0.9573826789855957,-0.10116004198789597,-0.2637251019477844,-0.9592787623405457,-0.13258935511112213,-0.2968522906303406,-0.18903666734695435,0.9896788391032434,0.13389753356089568,-0.04931603451891547,0.0132413541753763
1728065000482680300,0.917680419921875,-0.46258115768432617,-1.1390727758407593,0.3607430160045624,-0.1100734993815422,-0.26089605689048767,-0.9590709805488586,0.1822933405637741,-0.24973928928375244,0.0019634366035461426,0.9896536924893796,0.13241420793847897,-0.05413870823068042,0.011012240850050401
1728065000492710100,0.927710205078125,-0.5313297510147095,-0.9404081702232361,1.105353593826294,-0.12250562757253647,-0.2549133002758026,-0.9591723680496216,0.4815754294395447,-0.08201602101325989,-0.030390620231628418,0.9896398436138972,0.12964730771623745,-0.06004501473553214,0.014114248005689677
1728065000502741000,0.937740966796875,-0.25870195031166077,-0.5632762908935547,0.9316147565841675,-0.13238276541233063,-0.24964286386966705,-0.9592461585998535,0.31004083156585693,-0.01853032410144806,-0.07066100835800171,0.989581292409033,0.12735802684352748,-0.06447355798781375,0.018762516618935254
1728065000512771000,0.94777099609375,0.022791577503085136,-0.2891363799571991,0.6282375454902649,-0.13832025229930878,-0.2475462704896927,-0.9589517116546631,-0.04222175478935242,-0.025647073984146118,-0.15193390846252441,0.9894350036911345,0.12660165717997243,-0.06705347118417856,0.022235675155882723
1728065000522802200,0.95780224609375,0.12421566247940063,-0.36435815691947937,0.7236929535865784,-0.14302968978881836,-0.24738682806491852,-0.9583017826080322,-0.17780162394046783,-0.05482874810695648,-0.19613242149353027,0.9891937314883051,0.12681964264295084,-0.06903545178006702,0.025433050277585446
1728065000532832300,0.967832275390625,0.07000955939292908,-0.6007813811302185,0.6793534755706787,-0.14937902987003326,-0.24738886952400208,-0.9573320746421814,0.012233033776283264,-0.10287661850452423,-0.1665235161781311,0.9888622857378305,0.12716530325100714,-0.07185371918641853,0.02859336495964053
1728065000542863000,0.977863037109375,0.0373954214155674,-0.7509618401527405,0.6783766150474548,-0.15759779512882233,-0.24677175283432007,-0.9561729431152344,0.21463513374328613,-0.10003000497817993,-0.15716934204101562,0.9884766967842934,0.12724477963454972,-0.07564593734283219,0.03162922563715985
1728065000552893200,0.98789306640625,0.08434981107711792,-0.9738547801971436,0.6089341640472412,-0.167500302195549,-0.2463046759366989,-0.9546086192131042,0.2559402585029602,-0.0508602112531662,-0.15742135047912598,0.9879967176762389,0.12742707457763514,-0.08036179232970168,0.034160416034116535
1728065000562924000,0.997924072265625,0.13199590146541595,-0.9311426877975464,0.7890456318855286,-0.17843027412891388,-0.24616007506847382,-0.9526635408401489,0.2543427348136902,-0.045435354113578796,-0.1645696759223938,0.9874002163293865,0.12786094231856393,-0.08555581155601494,0.03705048851907609
1728065000572954000,1.0079541015625,0.16344642639160156,-0.8675215840339661,0.924705445766449,-0.18913327157497406,-0.24595095217227936,-0.950650691986084,0.18171748518943787,-0.03285762667655945,-0.16818475723266602,0.9867424352113754,0.12837114370834632,-0.09052900812590756,0.04080216091516498
1728065000582984200,1.017984130859375,0.18868041038513184,-0.8096233606338501,0.9941900372505188,-0.1995130479335785,-0.24577510356903076,-0.9485721588134766,0.1153913289308548,-0.06617556512355804,-0.15848350524902344,0.986027477360044,0.12898850679476745,-0.09526743022834422,0.04512201641245591
1728065000593015300,1.028015380859375,0.18604668974876404,-0.7955866456031799,0.988888680934906,-0.20959524810314178,-0.2455253154039383,-0.9464603662490845,0.07498219609260559,-0.11502459645271301,-0.1388973593711853,0.9852758600867505,0.12962484606357214,-0.09983602022580526,0.049617064831800055
1728065000603045000,1.038045166015625,0.19352297484874725,-0.8329793214797974,0.9879270195960999,-0.21976181864738464,-0.2451743632555008,-0.9442427158355713,0.05373091995716095,-0.12190631031990051,-0.10960555076599121,0.984478766267097,0.13025660529687075,-0.10445986078093944,0.054065557287999534
1728065000613076200,1.048076171875,0.26072850823402405,-0.9018023610115051,1.036976933479309,-0.2304868847131729,-0.24501389265060425,-0.9417239427566528,0.07919597625732422,-0.10029250383377075,-0.10319793224334717,0.9835793127772461,0.13106748140005628,-0.10935876341540772,0.05859903045550946
1728065000623106300,1.058106201171875,0.37795206904411316,-0.9516215920448303,1.0914212465286255,-0.2418871372938156,-0.24549555778503418,-0.9387345314025879,0.13367177546024323,-0.07762454450130463,-0.10708761215209961,0.9825202062296118,0.1323252522840203,-0.11455457902653113,0.06341478118515263
1728065000633137200,1.06813720703125,0.49186551570892334,-0.9762797355651855,1.1127638816833496,-0.25372567772865295,-0.24686002731323242,-0.9352450966835022,0.16653692722320557,-0.05660673975944519,-0.1416897177696228,0.981293407285541,0.13414873616507902,-0.11992312739681829,0.06845432224962714
1728065000643167200,1.078167236328125,0.5992287397384644,-0.9838113784790039,1.1389731168746948,-0.2657398581504822,-0.2490541636943817,-0.9313186407089233,0.1579517424106598,-0.04794289171695709,-0.17964327335357666,0.9799151539177101,0.13650055925370935,-0.12533272362824469,0.0736590081559263
1728065000653198300,1.0881982421875,0.6776949763298035,-0.9798691272735596,1.1812020540237427,-0.27783671021461487,-0.2518715262413025,-0.927020788192749,0.12863624095916748,-0.05101540684700012,-0.19918465614318848,0.978394071799112,0.1392845309311328,-0.1307265612742296,0.07909178622610824
1728065000663228200,1.098228271484375,0.7006117701530457,-0.973938524723053,1.2179701328277588,-0.2899948060512543,-0.2548966109752655,-0.922459065914154,0.10621792078018188,-0.0668502151966095,-0.21056705713272095,0.9767544296100649,0.14228896585179074,-0.1361040431591975,0.08473721184174748
1728065000673259300,1.10825927734375,0.6651970744132996,-0.9795228838920593,1.256435751914978,-0.3022112548351288,-0.25752875208854675,-0.9177948236465454,0.0913652777671814,-0.07673028111457825,-0.2110656499862671,0.9750353254402908,0.14520431364404268,-0.14148603609886376,0.09057402917896745
1728065000683289300,1.118289306640625,0.6562637686729431,-1.0139743089675903,1.3105970621109009,-0.31473344564437866,-0.25960293412208557,-0.9129891395568848,0.09332841634750366,-0.07261139154434204,-0.18718475103378296,0.9732241745401771,0.1479630686646912,-0.14701137964923647,0.09658959289916866
1728065000693320200,1.1283203125,0.6390048265457153,-1.0513582229614258,1.3461105823516846,-0.3276892602443695,-0.2612360119819641,-0.907951295375824,0.10857301950454712,-0.06702631711959839,-0.14565283060073853,0.9712924462527127,0.15064386098820676,-0.15274419967149147,0.10279436388598082
1728065000703350300,1.138350341796875,0.6613155007362366,-1.1021078824996948,1.343420147895813,-0.3410939872264862,-0.26260843873023987,-0.9026027321815491,0.1252736747264862,-0.06508928537368774,-0.12406957149505615,0.9692328420021141,0.15332710442843434,-0.1587117824550422,0.10903694292040801
1728065000713380000,1.148380126953125,0.7114027738571167,-1.1382063627243042,1.3427139520645142,-0.3548338711261749,-0.26410672068595886,-0.8968503475189209,0.12021473050117493,-0.05554962158203125,-0.10214251279830933,0.967029075968956,0.15620072865758078,-0.1648519167223745,0.11523852821748617
1728065000723411200,1.1584111328125,0.7671744227409363,-1.1342542171478271,1.3484301567077637,-0.36874309182167053,-0.2658761143684387,-0.8906954526901245,0.10751259326934814,-0.04105439782142639,-0.11614048480987549,0.9646689958365163,0.1593506289678414,-0.1710545026253683,0.12149664808098477
1728065000733441000,1.16844091796875,0.7651827931404114,-1.0810178518295288,1.317862868309021,-0.38228312134742737,-0.26769617199897766,-0.8844197988510132,0.09576880931854248,-0.03874608874320984,-0.14071142673492432,0.9622343717409207,0.1626047370066649,-0.17705872260289432,0.12773039224670887
1728065000743472000,1.17847216796875,0.7061859965324402,-1.0384842157363892,1.2862106561660767,-0.3952814042568207,-0.2691619396209717,-0.8782393932342529,0.06250247359275818,-0.04082033038139343,-0.1462966799736023,0.959801271165129,0.16570249882957347,-0.1828195048635515,0.13379588846578075
1728065000753502200,1.188502197265625,0.5426598787307739,-1.0107941627502441,1.2906265258789062,-0.40789663791656494,-0.26952534914016724,-0.87233966588974,0.03103506565093994,-0.045339733362197876,-0.1358237862586975,0.9574169371608084,0.16826053918833286,-0.18846371387428157,0.1397235612332131
1728065000763533000,1.198532958984375,0.28764835000038147,-0.995758593082428,1.3001600503921509,-0.42022866010665894,-0.2677847445011139,-0.8670058846473694,0.026338249444961548,-0.06023341417312622,-0.11926120519638062,0.9551621321375058,0.16974676645961548,-0.19412134304845677,0.145493037142219
1728065000773563100,1.208563232421875,0.01805887371301651,-1.0132050514221191,1.3140159845352173,-0.4324862062931061,-0.263494610786438,-0.8622797131538391,0.02146017551422119,-0.07657802104949951,-0.07750910520553589,0.9530608188743199,0.16992719779258017,-0.19996221306361062,0.15104679632503512
1728065000783594200,1.21859423828125,-0.20194166898727417,-1.0816104412078857,1.2921857833862305,-0.4449777603149414,-0.25690963864326477,-0.8578999042510986,0.02339264750480652,-0.09958145022392273,-0.05369067192077637,0.95106296409089,0.16894708037952735,-0.20617207370764762,0.1562990158643433
1728065000793624000,1.2286240234375,-0.29956308007240295,-1.2074249982833862,1.2580115795135498,-0.4580693244934082,-0.24889236688613892,-0.8533610701560974,0.027817219495773315,-0.10900253057479858,-0.06714057922363281,0.9490606016781716,0.1672773014936771,-0.21292665020001927,0.16113584775153017
1728065000803655200,1.2386552734375,-0.222072571516037,-1.3043317794799805,1.1940571069717407,-0.4718486964702606,-0.24084797501564026,-0.8481456637382507,0.03215140104293823,-0.07935769855976105,-0.07758975028991699,0.946910167085571,0.16568763636679368,-0.22016984786869578,0.1656326697308922
1728065000813685200,1.248685302734375,0.03112327866256237,-1.3272682428359985,1.107055902481079,-0.48580271005630493,-0.2344299554824829,-0.8420441746711731,0.033516913652420044,-0.02222287654876709,-0.1398894190788269,0.9445445588927828,0.16500997847375848,-0.22748544297742865,0.16987591306023467
1728065000823716000,1.258716064453125,0.39284393191337585,-1.3271443843841553,1.045216679573059,-0.49950331449508667,-0.23090362548828125,-0.8349730372428894,0.014334827661514282,0.053703323006629944,-0.1884797215461731,0.941899305911547,0.16591723051254287,-0.23448869198838734,0.17410439790171145
1728065000833746200,1.26874609375,0.7725862860679626,-1.2778626680374146,1.0303043127059937,-0.5127893686294556,-0.23050545156002045,-0.8269911408424377,-0.006039977073669434,0.12605905532836914,-0.24057477712631226,0.9389373132479206,0.1685867401704418,-0.24100400957185894,0.1785848189625125
1728065000843776300,1.2787763671875,1.1055312156677246,-1.2190041542053223,1.054033637046814,-0.5254892706871033,-0.23287054896354675,-0.8183106780052185,-0.02091270685195923,0.17787787318229675,-0.2649259567260742,0.935662623058476,0.17287603315837402,-0.2468978088607542,0.18355112521046446
1728065000853807000,1.28880712890625,1.3751858472824097,-1.1612293720245361,1.0935875177383423,-0.5377392172813416,-0.2373189777135849,-0.8090218305587769,-0.03901255130767822,0.1995839923620224,-0.27238380908966064,0.9320704115318933,0.1784832750667685,-0.2522554437303557,0.18909202431023245
1728065000863837200,1.298837158203125,1.5029089450836182,-1.1279404163360596,1.1077439785003662,-0.5496159195899963,-0.24297450482845306,-0.7993032932281494,-0.05362504720687866,0.18044400215148926,-0.2618538737297058,0.928227253248906,0.18492718468970754,-0.25719696632198863,0.19505362549577862
1728065000873868300,1.308868408203125,1.5020166635513306,-1.1198538541793823,1.0876294374465942,-0.5612783432006836,-0.24887435138225555,-0.7893213629722595,-0.06515592336654663,0.13568468391895294,-0.23817497491836548,0.924247192697325,0.19162338668820386,-0.26195383301158004,0.20106673044296805
1728065000883898400,1.3188984375,1.387290596961975,-1.1403768062591553,1.038275957107544,-0.5728355050086975,-0.2542318105697632,-0.7792468667030334,-0.06827777624130249,0.09027615189552307,-0.19119679927825928,0.9202453905286775,0.19807589236531234,-0.2667255130542043,0.20681382116150557
1728065000893929200,1.32892919921875,1.241391897201538,-1.178498387336731,1.00575590133667,-0.5844696760177612,-0.2585192024707794,-0.7691313624382019,-0.05191338062286377,0.04988577961921692,-0.1394532322883606,0.9162817594241678,0.20397146050659118,-0.27171667907288394,0.21211699191779598
1728065000903959300,1.338959228515625,1.1385399103164673,-1.2339842319488525,0.981117308139801,-0.5962880253791809,-0.26169607043266296,-0.758917510509491,-0.029505491256713867,0.02605462074279785,-0.08745694160461426,0.9123246508213543,0.20932898794129334,-0.27698846723609954,0.2170774810760772
1728065000913990100,1.348990234375,1.0769470930099487,-1.2756454944610596,0.9208153486251831,-0.6083211898803711,-0.2642952799797058,-0.7483938932418823,-0.004365026950836182,0.01640099287033081,-0.06608974933624268,0.9083388204694418,0.2144190042164436,-0.2825376943091102,0.2216251604369456
1728065000924020200,1.359020263671875,1.1405458450317383,-1.2921397686004639,0.9111723303794861,-0.620306670665741,-0.2668582797050476,-0.7375678420066833,-0.006921172142028809,0.03555029630661011,-0.05852895975112915,0.904284575270696,0.21954485876614174,-0.28812520597067415,0.22595000433606996
1728065000934051300,1.36905126953125,1.3513858318328857,-1.2883254289627075,0.909750759601593,-0.6322876811027527,-0.2702050507068634,-0.726086437702179,-0.012152016162872314,0.07481628656387329,-0.08180534839630127,0.8999651916636402,0.22529819140493762,-0.2935940929895777,0.23044741236187824
1728065000944081400,1.379081298828125,1.588439702987671,-1.2389192581176758,0.8602955341339111,-0.6438417434692383,-0.2751499116420746,-0.7139750719070435,-0.007189810276031494,0.10843241214752197,-0.14892470836639404,0.8953686739039043,0.2320743179610091,-0.2985866337904327,0.2351649641514952
1728065000954112300,1.3891123046875,1.794066309928894,-1.199495553970337,0.8501601219177246,-0.6548662781715393,-0.2815954387187958,-0.7013231515884399,-0.024805963039398193,0.15984556078910828,-0.17151010036468506,0.8905175948765818,0.23980638822254688,-0.30303685062409785,0.24008328318667183
1728065000964142300,1.399142333984375,1.9690266847610474,-1.169165015220642,0.8868741989135742,-0.6655897498130798,-0.2889956831932068,-0.6880929470062256,-0.03640615940093994,0.1948184370994568,-0.14465546607971191,0.8853435018039647,0.24831912540010587,-0.3070686146789941,0.24538453314610045
1728065000974172200,1.409172119140625,2.0200507640838623,-1.12253999710083,0.922171950340271,-0.6760841608047485,-0.29658839106559753,-0.674496591091156,-0.032091498374938965,0.17645594477653503,-0.12582695484161377,0.8799037157632981,0.25720508355318716,-0.31080100123875143,0.25103367502110635
1728065000984203000,1.419203125,1.9421372413635254,-1.093446135520935,0.9366100430488586,-0.6862866878509521,-0.30354195833206177,-0.6609637141227722,-0.03766661882400513,0.12756234407424927,-0.09109616279602051,0.8743766912016463,0.26589983335270007,-0.31434918862098354,0.2568024512797059
1728065000994233000,1.429233154296875,1.7459187507629395,-1.0867007970809937,0.8804783225059509,-0.6962499022483826,-0.3093801736831665,-0.6477036476135254,-0.04844003915786743,0.064888596534729,-0.061982572078704834,0.8689552292423488,0.27396947852180803,-0.3179448011286082,0.26223775298828544
1728065001004264200,1.43926416015625,1.4905884265899658,-1.088687777519226,0.8184232115745544,-0.7059000730514526,-0.3138282597064972,-0.6349936127662659,-0.05868732929229736,0.01979142427444458,-0.010300517082214355,0.8638278337345792,0.28109050231447064,-0.32170067187315504,0.2670173812469608
1728065001014294300,1.449294189453125,1.3224245309829712,-1.0961192846298218,0.8134585618972778,-0.715368926525116,-0.31688812375068665,-0.6227594614028931,-0.06162393093109131,0.010522127151489258,0.047487854957580566,0.8589552612248776,0.2873102021903764,-0.32568869624772684,0.27124844777870083
1728065001024324900,1.459324951171875,1.2170555591583252,-1.0164806842803955,0.8866576552391052,-0.7246043682098389,-0.3185901343822479,-0.6111046671867371,-0.04854327440261841,0.023668229579925537,0.07727599143981934,0.8542246209361466,0.29278886163105267,-0.329730704696206,0.27541382379014917
1728065001034355000,1.46935498046875,1.2413231134414673,-0.9491949081420898,0.9204728603363037,-0.7335162162780762,-0.3193241357803345,-0.5999884605407715,-0.029362261295318604,0.04269754886627197,0.10374212265014648,0.8495033830424543,0.2978588177908688,-0.33359538743765454,0.2798899871552772
1728065001044385800,1.4793857421875,1.3451646566390991,-0.876718282699585,0.9248308539390564,-0.7419055104255676,-0.32019346952438354,-0.5891115069389343,-0.03208130598068237,0.05673524737358093,0.0520327091217041,0.8447207476104494,0.30307972079833706,-0.3370266039667199,0.28460954348905776
1728065001054416000,1.489415771484375,1.4531384706497192,-0.8280841708183289,0.9249672293663025,-0.7498859167098999,-0.3214414715766907,-0.578227162361145,-0.05330628156661987,0.07084637880325317,0.00834190845489502,0.8397887424925553,0.3086440477957814,-0.34003715182468425,0.2896008937902105
1728065001064447000,1.499447021484375,1.5111650228500366,-0.8116676211357117,0.8905924558639526,-0.7575454115867615,-0.3231094777584076,-0.5672083497047424,-0.0461655855178833,0.07658848166465759,-0.013052880764007568,0.834717643368186,0.31454474182667436,-0.34272064164873206,0.29470448814859596
1728065001074477000,1.50947705078125,1.389886498451233,-0.7488897442817688,0.8291046023368835,-0.7647661566734314,-0.3247617185115814,-0.5564733147621155,-0.04245436191558838,0.07096228003501892,-0.014113783836364746,0.8297548660975018,0.32032373415539545,-0.3451898601619297,0.29957228204423975
1728065001084507000,1.5195068359375,1.185835361480713,-0.6859885454177856,0.8110265731811523,-0.7713847160339355,-0.3255811929702759,-0.5467747449874878,-0.03533226251602173,0.07597792148590088,0.06894576549530029,0.8251925255492528,0.3253250856562488,-0.3475287076467104,0.3040474798368806
1728065001094538000,1.5295380859375,1.073381781578064,-0.6298047304153442,0.8223292827606201,-0.7776480317115784,-0.32530415058135986,-0.5379971861839294,-0.027832984924316406,0.09253129363059998,0.12665075063705444,0.8209424467414644,0.3295253376604887,-0.3498777796136795,0.30830555965413814
1728065001104568000,1.539568115234375,1.0734933614730835,-0.5744786262512207,0.8511294722557068,-0.7835789918899536,-0.3244919776916504,-0.5298199653625488,-0.010488569736480713,0.09738010168075562,0.13002437353134155,0.8168118493296432,0.3333777158186829,-0.35206437620709047,0.3126157827590394
1728065001114599000,1.549598876953125,1.1354132890701294,-0.5522223711013794,0.8711913824081421,-0.7893516421318054,-0.3234421908855438,-0.5218325257301331,-0.00126725435256958,0.10432600975036621,0.09931671619415283,0.8126070219485186,0.3372097368840346,-0.35408097541064476,0.3171531728821595
1728065001124629000,1.55962890625,1.313126564025879,-0.5345288515090942,0.849460244178772,-0.7950067520141602,-0.3229060769081116,-0.5135133266448975,0.0031824111938476562,0.13363608717918396,0.06530171632766724,0.808169047752775,0.34150686666396934,-0.35583196867207817,0.3218997879135975
1728065001134660000,1.56966015625,1.5774949789047241,-0.4784986972808838,0.8375372290611267,-0.80030357837677,-0.32351577281951904,-0.5048283338546753,-0.005833446979522705,0.15890398621559143,0.03220266103744507,0.8034097259796839,0.34664217898163363,-0.35696642521930605,0.32702741971927074
1728065001144690000,1.57968994140625,1.7770558595657349,-0.488944411277771,0.7861853837966919,-0.8053866624832153,-0.3253950774669647,-0.4954497516155243,0.0018740296363830566,0.15692278742790222,0.016369611024856567,0.7982372446129419,0.35274771972794183,-0.35755303410653694,0.3324788855963864
1728065001154721000,1.589720947265625,1.807673692703247,-0.4067404270172119,0.7163506150245667,-0.8100872039794922,-0.32816943526268005,-0.48586374521255493,0.016996383666992188,0.14730700850486755,0.004525274038314819,0.7929419780203205,0.35935055522938625,-0.3576804454112078,0.3378977693880945
1728065001164751000,1.599751220703125,1.729357123374939,-0.38641196489334106,0.6692419648170471,-0.8142485022544861,-0.33107271790504456,-0.476854532957077,0.019296109676361084,0.14470189809799194,0.0490591824054718,0.7878423998150182,0.36578986991595297,-0.3574500033373072,0.34312045837297106
1728065001174782000,1.609781982421875,1.6022776365280151,-0.37772953510284424,0.6266335248947144,-0.8182553648948669,-0.3336755931377411,-0.4681013822555542,0.021075129508972168,0.1389429271221161,0.0542982816696167,0.7829355071106033,0.37187544043967585,-0.35729255014137984,0.34794088021593456
1728065001184812000,1.61981201171875,1.487195611000061,-0.3566628694534302,0.6233195066452026,-0.8220342993736267,-0.3356667459011078,-0.45998644828796387,0.031201720237731934,0.1424141526222229,0.07079577445983887,0.778299154308733,0.37740181945558016,-0.357175928339543,0.3524821752117561
1728065001194843100,1.629843017578125,1.3600273132324219,-0.22205397486686707,0.5966977477073669,-0.825520932674408,-0.337123304605484,-0.45261815190315247,0.040822386741638184,0.1479600965976715,0.07929664850234985,0.7739335605090052,0.38240696497186566,-0.35700956683738283,0.3568417937947781
1728065001204873000,1.639873046875,1.3074355125427246,-0.1411934792995453,0.6412715911865234,-0.8283378481864929,-0.33802127838134766,-0.44676411151885986,0.046630024909973145,0.16367432475090027,0.05351459980010986,0.7699931839636143,0.38672568428124665,-0.3564564310749008,0.3612376961368059
1728065001214902800,1.64990283203125,1.3886913061141968,-0.32552650570869446,0.7057943940162659,-0.8316752314567566,-0.33826571702957153,-0.4403323829174042,0.04476422071456909,0.18077978491783142,-0.0010738074779510498,0.7657204751913709,0.3910739278919146,-0.35622322265664264,0.36583929736121545
1728065001224934000,1.659933837890625,1.468456745147705,-0.42308157682418823,0.6367013454437256,-0.835629940032959,-0.33887189626693726,-0.4323062598705292,0.08596551418304443,0.17296308279037476,-0.12177085876464844,0.7609740317686653,0.39603932482165044,-0.35637021478432096,0.37023211540576073
1728065001234964000,1.6699638671875,1.4896291494369507,-0.5085391998291016,0.5767160654067993,-0.8397246599197388,-0.3401166498661041,-0.4233005940914154,0.08925145864486694,0.17611515522003174,-0.12014120817184448,0.7560325634922789,0.4014672393458833,-0.3566142903771144,0.3742530238839069
1728065001244994800,1.679994873046875,1.4920082092285156,-0.4726877510547638,0.5534099340438843,-0.8437350988388062,-0.3415863811969757,-0.4140409827232361,0.06015044450759888,0.2036469280719757,-0.027212679386138916,0.7510659211863102,0.40700835755824827,-0.35682447649176213,0.37804836280903475
1728065001255025000,1.69002490234375,1.525276780128479,-0.3619571030139923,0.5616063475608826,-0.8474141359329224,-0.34300172328948975,-0.40526431798934937,0.020204603672027588,0.21539247035980225,0.054510533809661865,0.7461386088581753,0.41246529949025296,-0.3567074781030197,0.38198082794611415
1728065001265056000,1.700055908203125,1.522682785987854,-0.22647333145141602,0.5557883977890015,-0.8505043387413025,-0.3443225920200348,-0.3975982964038849,-0.034139275550842285,0.1639179289340973,0.08811959624290466,0.7413631681448232,0.41769167832814946,-0.3559979097507199,0.3862380449324553
1728065001275085800,1.7100859375,1.3670167922973633,-0.21411599218845367,0.48829084634780884,-0.853201150894165,-0.34553876519203186,-0.390705406665802,-0.07009291648864746,0.07593122124671936,0.07582512497901917,0.7368843071746163,0.4225542577850275,-0.3550988458219018,0.3903257493701075
1728065001285117000,1.720116943359375,1.1304484605789185,-0.12116608023643494,0.4606744050979614,-0.855525016784668,-0.3462889790534973,-0.38491690158843994,-0.0824480652809143,0.04344776272773743,0.05448788404464722,0.7329998163620788,0.42662102440232796,-0.3543106636763573,0.3939160163462123
1728065001295147000,1.73014697265625,1.0662423372268677,-0.05226903408765793,0.5104661583900452,-0.8575196266174316,-0.3462448716163635,-0.3804924786090851,-0.04601430892944336,0.09046179056167603,0.10377439856529236,0.7295748594094772,0.4298705160491843,-0.3535040210038283,0.3974503295351778
1728065001305177900,1.740177734375,1.176945686340332,-0.12446066737174988,0.5378924608230591,-0.8597058057785034,-0.34587109088897705,-0.3758714199066162,0.008341610431671143,0.13732919096946716,0.058473408222198486,0.725932613657295,0.4331719853537929,-0.352741149877117,0.40119539608236277
1728065001315208000,1.7502080078125,1.2145955562591553,-0.19823582470417023,0.496208131313324,-0.862127423286438,-0.34585389494895935,-0.3702990710735321,0.06030857563018799,0.15910157561302185,-0.06591913104057312,0.7219657860844394,0.4369404745446297,-0.3520418780574387,0.40486410520444205
1728065001325239000,1.760239013671875,1.1248360872268677,-0.24762973189353943,0.4712383449077606,-0.8646332621574402,-0.34591561555862427,-0.36435091495513916,0.09856581687927246,0.18659859895706177,-0.05779871344566345,0.7180075291738833,0.4407425568823713,-0.3515260179820326,0.4082163282223468
1728065001335268900,1.770268798828125,0.9904118180274963,-0.3068096935749054,0.442995548248291,-0.8672718405723572,-0.3456893265247345,-0.35824349522590637,0.11458629369735718,0.185365229845047,0.028516381978988647,0.7142061869239363,0.44429331658702287,-0.351399627309501,0.4111341284129703
1728065001345299000,1.780298828125,0.7793563008308411,-0.24283179640769958,0.4387621581554413,-0.8698269724845886,-0.34492620825767517,-0.35274195671081543,0.0916898250579834,0.14357119798660278,0.05560764670372009,0.7108161589482561,0.4472311567314257,-0.35158684104191484,0.41365608318968033
1728065001355330000,1.790330078125,0.6297715902328491,-0.0780353844165802,0.4599683880805969,-0.8719872236251831,-0.34327396750450134,-0.34900030493736267,0.050225138664245605,0.11695560812950134,0.12257519364356995,0.7080220326007538,0.44918320803174655,-0.35175884618329767,0.4161789248364916
1728065001365360000,1.800360107421875,0.5539916157722473,0.004484259057790041,0.4622128903865814,-0.873792827129364,-0.3409503102302551,-0.34675487875938416,0.025648295879364014,0.09209471940994263,0.17860308289527893,0.7056351080554357,0.45041363913232,-0.3517813355221844,0.418875323184629
1728065001375391000,1.810390869140625,0.49525800347328186,0.13282757997512817,0.4553981423377991,-0.875216543674469,-0.33847174048423767,-0.3455909788608551,0.013339042663574219,0.06303530931472778,0.13668292760849,0.7035733129677955,0.4512261172609213,-0.3515671999622878,0.42163998087144156
1728065001385421000,1.820421142578125,0.529202401638031,0.171657532453537,0.4179178774356842,-0.8762034177780151,-0.33611488342285156,-0.3453903794288635,0.03626805543899536,0.06856724619865417,0.13306432962417603,0.7017624917589932,0.45179921515201094,-0.35097334023110055,0.4245288403757162
1728065001395452000,1.830451904296875,0.567387044429779,0.11536896228790283,0.3659588098526001,-0.8770952224731445,-0.33437690138816833,-0.3448133170604706,0.06952375173568726,0.09441715478897095,0.09682750701904297,0.6999073784715292,0.45267651848192497,-0.35025320066387505,0.4272428766360412
1728065001405482000,1.84048193359375,0.5601166486740112,0.0872366651892662,0.3544398248195648,-0.8779691457748413,-0.3330784738063812,-0.34384480118751526,0.09487271308898926,0.11231428384780884,0.054126203060150146,0.6980221115069642,0.45377704065426266,-0.34951966436947185,0.429753135367805
1728065001415513000,1.85051318359375,0.466933935880661,0.09082154184579849,0.3887099325656891,-0.8789461851119995,-0.33149898052215576,-0.3428735136985779,0.11951619386672974,0.11161980032920837,0.07085514068603516,0.6961764822919332,0.4547265340989422,-0.348979965378909,0.4321750356208368
1728065001425543200,1.860543212890625,0.3858569264411926,0.11318996548652649,0.3806091248989105,-0.8798860311508179,-0.3294808566570282,-0.3424079418182373,0.1348755955696106,0.08978050947189331,0.0844275951385498,0.6945492145070877,0.4552762573821219,-0.348596558960515,0.43451761012325446
1728065001435574000,1.870573974609375,0.30278947949409485,0.10732462257146835,0.350801944732666,-0.8807282447814941,-0.3274066150188446,-0.3422318398952484,0.12744760513305664,0.054594725370407104,0.07588973641395569,0.6931447002119882,0.45559439659880147,-0.34830708054277393,0.43665357822859535
1728065001445603800,1.880603759765625,0.15372224152088165,0.11271778494119644,0.33326396346092224,-0.881479799747467,-0.3251590430736542,-0.342440128326416,0.11855554580688477,0.016336381435394287,0.046465396881103516,0.6920487091904755,0.4555594146114075,-0.3482033265123572,0.4385075385783731
1728065001455635000,1.890635009765625,-0.041915182024240494,0.13262279331684113,0.3165989816188812,-0.8821271061897278,-0.3224210739135742,-0.3433609902858734,0.14306753873825073,0.009203910827636719,0.0700608491897583,0.6914150396758699,0.45489524023453476,-0.34841042905669456,0.44002951003956065
1728065001465664800,1.900664794921875,-0.2001897692680359,0.08308079838752747,0.2876075506210327,-0.882731020450592,-0.3192775249481201,-0.344743013381958,0.16495764255523682,0.030642271041870117,0.1163647472858429,0.6912159244924394,0.453681638552207,-0.34900067261196827,0.44112582301803516
1728065001475694800,1.91069482421875,-0.36820727586746216,0.13751128315925598,0.28252890706062317,-0.8832826018333435,-0.31579646468162537,-0.3465324342250824,0.14861762523651123,0.05230766534805298,0.12668383121490479,0.6914129418721444,0.45198105044317105,-0.34992416186713887,0.4418309245943206
1728065001485726000,1.920725830078125,-0.4030826985836029,0.2556019723415375,0.3634205460548401,-0.8835962414741516,-0.31155017018318176,-0.34956327080726624,0.12808763980865479,0.07108685374259949,0.16671720147132874,0.6919620999493388,0.44957938457327096,-0.35085146047860627,0.4426853701400544
1728065001495756000,1.930756103515625,-0.24277611076831818,0.26733797788619995,0.4413163959980011,-0.88392573595047,-0.30674734711647034,-0.3529609441757202,0.1227562427520752,0.07313525676727295,0.1792702078819275,0.6922686139365753,0.44711024615689987,-0.35158490975977186,0.4441223664324132
1728065001505787000,1.940786865234375,-0.10553570091724396,0.2884102463722229,0.39621204137802124,-0.8842622637748718,-0.302365779876709,-0.3558866083621979,0.14460766315460205,0.015683650970458984,0.09374064207077026,0.6921653966501923,0.4451722132401143,-0.35196363370358164,0.4459264833570761
1728065001515817000,1.95081689453125,-0.08704643696546555,0.2840226888656616,0.2786787748336792,-0.8842343688011169,-0.29903507232666016,-0.3587583899497986,0.16491979360580444,-0.045905083417892456,0.05544427037239075,0.6921352799696914,0.44359499742169456,-0.3519151584494258,0.4475800589876957
1728065001525847800,1.960847900390625,-0.10636448115110397,0.20293663442134857,0.21016202867031097,-0.884075403213501,-0.2965376079082489,-0.3612152636051178,0.15938961505889893,-0.06627064943313599,0.06371468305587769,0.6922314313377226,0.4422867760347408,-0.35181639539385445,0.44880230231231066
1728065001535878000,1.9708779296875,-0.14490114152431488,0.14531098306179047,0.19209328293800354,-0.8840495944023132,-0.2943161725997925,-0.3630901873111725,0.16029465198516846,-0.06977382302284241,0.029395759105682373,0.692359210127384,0.441118389250786,-0.3519509505875876,0.44964873747984646
1728065001545909000,1.980908935546875,-0.23462983965873718,0.14470304548740387,0.22908751666545868,-0.8841186165809631,-0.29180121421813965,-0.36494722962379456,0.17188405990600586,-0.05660274624824524,0.03129857778549194,0.6925581969257569,0.4397777240255261,-0.3523094369272561,0.4503741519782244
1728065001555939000,1.99093896484375,-0.39171186089515686,0.16673643887043,0.25087615847587585,-0.8842921853065491,-0.2884874641895294,-0.36715465784072876,0.17248475551605225,-0.027430564165115356,0.06692275404930115,0.692952098354459,0.4379296906846532,-0.35304426717025095,0.45099322127504327
1728065001565970000,2.000969970703125,-0.47409966588020325,0.26749715209007263,0.2542618215084076,-0.884215235710144,-0.28461217880249023,-0.37035050988197327,0.16180306673049927,0.033406734466552734,0.13463276624679565,0.6937324449549868,0.43545428267844943,-0.3538422097788812,0.45156474716329564
1728065001576000000,2.011,-0.45361191034317017,0.3080112636089325,0.27447709441185,-0.8838713765144348,-0.28052622079849243,-0.37426814436912537,0.13702988624572754,0.07715705037117004,0.19149839878082275,0.6946637744483619,0.43270118094854637,-0.3544511455793458,0.4523013304640678
1728065001586030000,2.021030029296875,-0.44901904463768005,0.3162281811237335,0.26721492409706116,-0.8834495544433594,-0.27642545104026794,-0.37829357385635376,0.1186637282371521,0.055218786001205444,0.14304882287979126,0.6955705693304494,0.4299464691244608,-0.354963725748201,0.4531318986353546
1728065001596061000,2.03106103515625,-0.5394471287727356,0.2669121026992798,0.2444203943014145,-0.8830438852310181,-0.27227485179901123,-0.3822305202484131,0.11355823278427124,-0.0000030100345611572266,0.09928679466247559,0.696550073434415,0.4271192482213355,-0.3556035506120812,0.4537989628541004
1728065001606091000,2.041091064453125,-0.7103027701377869,0.24833442270755768,0.22278062999248505,-0.8826982378959656,-0.26781323552131653,-0.38616088032722473,0.10262298583984375,-0.05407097935676575,0.09639644622802734,0.6978021670685883,0.4239487896953742,-0.35663284453253996,0.45404054096667396
1728065001616122000,2.0511220703125,-0.8933039307594299,0.22940285503864288,0.23947039246559143,-0.8823693990707397,-0.2626681625843048,-0.3904227316379547,0.07589656114578247,-0.09043550491333008,0.1096915602684021,0.6994029272056558,0.42018836461114856,-0.3580926862215295,0.45392408079305824
1728065001626152000,2.06115185546875,-1.1067352294921875,0.20284289121627808,0.24763749539852142,-0.882164716720581,-0.2565578818321228,-0.3949221074581146,0.045601606369018555,-0.11497834324836731,0.0692233145236969,0.7013248485614203,0.41574791670827277,-0.3601286119013408,0.4534363351656119
1728065001636183000,2.07118310546875,-1.324807047843933,0.1730135679244995,0.24629099667072296,-0.882034182548523,-0.24950827658176422,-0.3997015357017517,0.03425586223602295,-0.09714090824127197,0.0368323028087616,0.7036270364929855,0.41057656882589216,-0.3627342199123044,0.45250387392188673
1728065001646213000,2.081213134765625,-1.4836443662643433,0.1429443508386612,0.24242277443408966,-0.8820229172706604,-0.2416492998600006,-0.4045262336730957,0.04614633321762085,-0.035618171095848083,0.0728917121887207,0.7062335482133885,0.40479652885123957,-0.3658915925314732,0.45110695003745427
1728065001656244000,2.091243896484375,-1.4450263977050781,0.1333913654088974,0.24929238855838776,-0.8820602893829346,-0.23344773054122925,-0.4092331826686859,0.06368565559387207,0.029834464192390442,0.12053695321083069,0.7089137923453579,0.3987898332978008,-0.3692561213930207,0.44950844935975126
1728065001666274000,2.101274169921875,-1.266632080078125,0.1858484447002411,0.2670431435108185,-0.8819960951805115,-0.2255702167749405,-0.41376423835754395,0.06571197509765625,0.06451372802257538,0.12291651964187622,0.7113210578549627,0.3931238113871279,-0.37225200467211933,0.4482236033892929
1728065001676305200,2.11130517578125,-1.147625207901001,0.23847854137420654,0.2810039818286896,-0.8817224502563477,-0.2180991768836975,-0.4183281362056732,0.05005735158920288,0.06987528502941132,0.0888909101486206,0.713462010149168,0.38782128463185905,-0.3747406851144781,0.44736579056669745
1728065001686335000,2.1213349609375,-1.0421369075775146,0.3084869086742401,0.32362332940101624,-0.88123619556427,-0.21087302267551422,-0.42303138971328735,0.031611502170562744,0.10100974142551422,0.10087257623672485,0.7154087271661197,0.38275439862830873,-0.37680681672156285,0.4468850289475562
1728065001696366000,2.131365966796875,-0.9171704053878784,0.3302738666534424,0.3306373059749603,-0.8805528879165649,-0.2037358582019806,-0.42792344093322754,0.031233370304107666,0.1349644958972931,0.13408493995666504,0.7171416435584993,0.37787551145290516,-0.3784816828085856,0.4468441739323326
1728065001706396000,2.14139599609375,-0.671311616897583,0.24041028320789337,0.2515435516834259,-0.8798906803131104,-0.19759558141231537,-0.43214401602745056,0.032127559185028076,0.13358493149280548,0.10464465618133545,0.7185379171355296,0.3737458429778111,-0.3797920912826616,0.44696236467678085
1728065001716426800,2.1514267578125,-0.44139692187309265,0.1375063806772232,0.04766552522778511,-0.8794116377830505,-0.19386763870716095,-0.4347994923591614,0.0025347471237182617,0.054142892360687256,-0.03387415409088135,0.7195513708976901,0.37108595398173866,-0.3806513643233096,0.44681723334278767
1728065001726456800,2.161456787109375,-0.3957618176937103,0.08608980476856232,-0.14410416781902313,-0.8788428902626038,-0.19251275062561035,-0.43654799461364746,-0.020815372467041016,-0.02381110191345215,-0.13359665870666504,0.7206360558403909,0.369452772369073,-0.3810913961004623,0.44604684132002476
1728065001736487000,2.17148681640625,-0.27514776587486267,-0.032555148005485535,-0.2006971389055252,-0.878338098526001,-0.1926477998495102,-0.43750330805778503,-0.0250890851020813,0.030599460005760193,-0.16099214553833008,0.7217450222176018,0.3684974544274296,-0.3813895307332833,0.44478751466008687
1728065001746518000,2.18151806640625,-0.12748055160045624,-0.21153473854064941,-0.19557401537895203,-0.8785631656646729,-0.193480983376503,-0.4366827607154846,0.0039293766021728516,0.09980727732181549,-0.19904407858848572,0.7222727668834792,0.3684600809500131,-0.3819630663849124,0.4434674680902029
1728065001756547800,2.1915478515625,-0.10092949867248535,-0.2514425814151764,-0.1673242747783661,-0.879245400428772,-0.194624662399292,-0.4347974956035614,0.0729709267616272,0.1582629680633545,-0.1954667568206787,0.7224212484981535,0.36895032341040324,-0.38272301575339945,0.44216108479136296
1728065001766579000,2.201578857421875,-0.04453067108988762,-0.2548258602619171,-0.13022804260253906,-0.8800764083862305,-0.19558057188987732,-0.4326823055744171,0.0925855040550232,0.22707471251487732,-0.0762593150138855,0.7224054743039416,0.36951160668284677,-0.3835622737058193,0.44098945991938315
1728065001776609000,2.211609130859375,0.12030475586652756,-0.246989905834198,-0.12314137071371078,-0.880902886390686,-0.19683590531349182,-0.430425226688385,0.062497615814208984,0.24133053421974182,-0.00525897741317749,0.7221311142690671,0.37043390384200553,-0.3841433467108558,0.44015832461717697
1728065001786640000,2.221639892578125,0.04577166214585304,-0.19758053123950958,-0.16624489426612854,-0.8816068172454834,-0.19858196377754211,-0.42817604541778564,-0.004593193531036377,0.13592937588691711,-0.06289756298065186,0.72180769461619,0.37161063469853045,-0.38447043913674533,0.4394107230338123
1728065001796670000,2.231669921875,-0.25177574157714844,-0.1032281368970871,-0.13827930390834808,-0.881912112236023,-0.1995667815208435,-0.42708820104599,-0.0589296817779541,0.0174378901720047,-0.06650310754776001,0.7220705151609637,0.3718726578980092,-0.38492418557117725,0.4383587639947843
1728065001806701000,2.241701171875,-0.49600863456726074,-0.04758245870471001,-0.04048750177025795,-0.8820781707763672,-0.1987120360136032,-0.42714381217956543,-0.06129652261734009,-0.02815563976764679,0.034642040729522705,0.7228059160770288,0.3708486574686031,-0.3858747982853055,0.43717699364240786
1728065001816731000,2.25173095703125,-0.7146037220954895,0.010806551203131676,0.029047103598713875,-0.8821263909339905,-0.1961289346218109,-0.4282364845275879,-0.007400035858154297,-0.05609886348247528,0.07877975702285767,0.7239223010241337,0.36866968219649593,-0.38725239714209514,0.43595272152128633
1728065001826762000,2.261761962890625,-0.6847047209739685,-0.047022659331560135,0.043950680643320084,-0.8822652101516724,-0.19263802468776703,-0.4295331537723541,0.024858534336090088,-0.03017081320285797,0.06416147947311401,0.7251260887083941,0.3659950885264044,-0.3889485989318864,0.43469387508317725
1728065001836792000,2.2717919921875,-0.5679236650466919,-0.13762685656547546,-0.0470612496137619,-0.8826761245727539,-0.18995089828968048,-0.42988553643226624,0.02444547414779663,-0.02927212417125702,0.006789863109588623,0.7260676805272062,0.3639457536069358,-0.39064142306314353,0.4333227019132683
1728065001846822100,2.281822265625,-0.56583571434021,-0.17990587651729584,-0.08002825081348419,-0.8832307457923889,-0.1881515234708786,-0.4295375943183899,0.01230478286743164,-0.04842071235179901,-0.05737033486366272,0.7269407233811513,0.3623730581982104,-0.39232254085949186,0.43165496264652287
1728065001856853000,2.29185302734375,-0.5145348310470581,-0.13990263640880585,0.004308731760829687,-0.8838668465614319,-0.18613483011722565,-0.4291077256202698,-0.007383823394775391,-0.016898617148399353,-0.038131654262542725,0.7276866343411864,0.3608126262282151,-0.39403095177063574,0.4301466886624032
1728065001866883000,2.301883056640625,-0.43054860830307007,-0.09208957850933075,0.05366962403059006,-0.8844149708747864,-0.183817058801651,-0.42897742986679077,0.0066683292388916016,-0.012456744909286499,-0.03253990411758423,0.7282407761484797,0.3592734926130703,-0.39551718355048515,0.42913199633025784
1728065001876914000,2.311913818359375,-0.40725067257881165,-0.06149822100996971,0.05290689319372177,-0.884850800037384,-0.18152986466884613,-0.4290527105331421,0.006661653518676758,-0.02327360212802887,-0.06308901309967041,0.728722056024428,0.35780187257619955,-0.3968015414179587,0.4283581735347804
1728065001886944000,2.321944091796875,-0.3775308430194855,-0.0245969258248806,0.052918076515197754,-0.8851240277290344,-0.179369255900383,-0.4293976128101349,-0.0005877017974853516,-0.026929587125778198,-0.049560487270355225,0.7292300755360057,0.35634865200065413,-0.3978904792947244,0.42769439239542306
1728065001896975000,2.33197509765625,-0.3401101231575012,-0.04154070094227791,0.05817808955907822,-0.8853464126586914,-0.1773095428943634,-0.42979440093040466,0.01173490285873413,-0.030560940504074097,-0.01557910442352295,0.72969416125428,0.35497656352890294,-0.3988664512310133,0.4271343281262739
1728065001907005200,2.342005126953125,-0.24328531324863434,-0.10397905111312866,0.012239892035722733,-0.8857511878013611,-0.17568062245845795,-0.4296291470527649,0.02651345729827881,-0.023934870958328247,-0.011487126350402832,0.7299785462229228,0.35398081668232906,-0.3998537269205507,0.42655120638362987
1728065001917036000,2.3520361328125,-0.2967272400856018,-0.021017692983150482,-0.07645083218812943,-0.8859777450561523,-0.17485617101192474,-0.42949846386909485,0.03223317861557007,-0.02701762318611145,0.010858356952667236,0.7303718425751513,0.3532427646988928,-0.4005874698724745,0.425800850618284
1728065001927065900,2.36206591796875,-0.3825153708457947,0.05241764336824417,-0.09110566973686218,-0.8857658505439758,-0.17414453625679016,-0.43022412061691284,0.032814741134643555,-0.03387853503227234,0.05490368604660034,0.7312027124953683,0.3521182049636631,-0.4011243134665728,0.4247997676175435
1728065001937097000,2.372096923828125,-0.36435288190841675,0.13094764947891235,-0.06792711466550827,-0.8852214813232422,-0.17321155965328217,-0.43171846866607666,0.04923814535140991,-0.02403879165649414,0.07270970940589905,0.7322207997264929,0.3506947477947494,-0.40143986642849966,0.4239245323413104
1728065001947126800,2.382126708984375,-0.4265635013580322,0.11462860554456711,-0.08745341002941132,-0.8845242261886597,-0.17215101420879364,-0.4335678219795227,0.09877282381057739,-0.045744508504867554,0.04652869701385498,0.7333233380967875,0.3491234103864591,-0.4016577251529836,0.42310860722845856
1728065001957158000,2.392157958984375,-0.5541530847549438,0.013169626705348492,-0.12222923338413239,-0.8840643167495728,-0.17094381153583527,-0.4349811375141144,0.12561088800430298,-0.06343117356300354,0.04606515169143677,0.7345372279577465,0.34738769724764984,-0.40228251502313883,0.4218361052326579
1728065001967188000,2.40218798828125,-0.586431086063385,-0.09376375377178192,-0.09741203486919403,-0.8840556740760803,-0.16941581666469574,-0.4355960488319397,0.11168622970581055,-0.06740060448646545,0.0556369423866272,0.7356947550543271,0.34557137804405386,-0.40346300801999385,0.42018013999335674
1728065001977217800,2.4122177734375,-0.5444802045822144,-0.12820418179035187,-0.05186692252755165,-0.8844423890113831,-0.16758885979652405,-0.43551772832870483,0.08485132455825806,-0.08378441631793976,0.009660214185714722,0.7365967004416731,0.3438681702091682,-0.40496397406087525,0.41855013989485645
1728065001987249000,2.422248779296875,-0.3900512456893921,-0.08458799123764038,-0.02483210898935795,-0.884852409362793,-0.16583684086799622,-0.4353554844856262,0.04726690053939819,-0.10174126923084259,-0.02437657117843628,0.7372662567796713,0.3424171760001475,-0.4062914383597372,0.4172724060575893
1728065001997279000,2.432279052734375,-0.21480900049209595,-0.04579728841781616,-0.006491717416793108,-0.8851118087768555,-0.16464971005916595,-0.4352790117263794,-0.015874028205871582,-0.11394527554512024,-0.05330735445022583,0.7376783444714751,0.34147050942352525,-0.40713434967514356,0.4164977575175267
1728065002007309800,2.442309814453125,-0.13440416753292084,-0.024999596178531647,0.02739487774670124,-0.8852859139442444,-0.16385383903980255,-0.4352252185344696,-0.07830673456192017,-0.12678031623363495,-0.10205197334289551,0.7378714290906331,0.3409158032120201,-0.40763195150738357,0.41612319945496185
1728065002017341700,2.452341796875,-0.271629273891449,0.01047392189502716,0.07844766974449158,-0.8854144215583801,-0.1625564992427826,-0.43545013666152954,-0.08370184898376465,-0.10665431618690491,-0.08609527349472046,0.7380643066288943,0.34012693858104276,-0.40815266210671264,0.41591619054643875
1728065002027372500,2.46237255859375,-0.4757872223854065,0.06605542451143265,0.09508097916841507,-0.8853944540023804,-0.16008709371089935,-0.4364045262336731,-0.036419570446014404,-0.04451802372932434,0.007510542869567871,0.7385980906921706,0.338455234499746,-0.40895694766867624,0.415542141907138
1728065002037402600,2.472402587890625,-0.5510398149490356,0.05531527101993561,0.0588473379611969,-0.8852312564849854,-0.15709079802036285,-0.4378221929073334,0.010490596294403076,0.02733004093170166,0.07853877544403076,0.739449102889323,0.33622111618376294,-0.40993202429955433,0.4148809966106667
1728065002047433700,2.482433837890625,-0.5483217835426331,-0.015040119178593159,0.028366664424538612,-0.885209321975708,-0.15430566668510437,-0.4388558268547058,0.022355198860168457,0.03868982195854187,0.04353111982345581,0.740331193796978,0.33405126485069137,-0.4110740067434305,0.4139296908087901
1728065002057463600,2.492463623046875,-0.48798155784606934,-0.012743782252073288,0.07688146829605103,-0.8853432536125183,-0.15145547688007355,-0.4395778179168701,0.015027642250061035,0.04806192219257355,0.0009791851043701172,0.7410873339942525,0.33197142359476345,-0.4123179220562755,0.41301159394951453
1728065002067494700,2.50249462890625,-0.22693370282649994,-0.0028107245452702045,0.07539968192577362,-0.8855245113372803,-0.1491243541240692,-0.4400095045566559,0.009395301342010498,0.07376119494438171,0.008811414241790771,0.7414940229466604,0.33047797556371655,-0.4132548333294474,0.4125427071050845
1728065002077524700,2.512524658203125,0.032331421971321106,0.05035880580544472,0.013783194124698639,-0.8855009078979492,-0.14829270541667938,-0.44033801555633545,-0.022702276706695557,0.09151473641395569,-0.06681829690933228,0.7415954950365067,0.3299884060481178,-0.4134472637482055,0.4125594102443009
1728065002087554800,2.522554931640625,0.20627950131893158,0.09544666111469269,-0.03367886319756508,-0.8851454257965088,-0.14895683526992798,-0.4408280551433563,-0.056001365184783936,0.07717950642108917,-0.135389506816864,0.7415757971681792,0.3303182209213238,-0.41288720904756565,0.4128914008245113
1728065002097585700,2.532585693359375,0.2746129631996155,0.0662178248167038,-0.01768631488084793,-0.8847143650054932,-0.15031777322292328,-0.4412313401699066,-0.039098501205444336,0.04310953617095947,-0.1340554654598236,0.7414003330247881,0.33112736364038725,-0.4119939230204111,0.4134504059737527
1728065002107615500,2.542615478515625,0.19346404075622559,-0.07178744673728943,0.03260907903313637,-0.8847002983093262,-0.15132251381874084,-0.4409162402153015,0.01642930507659912,-0.03594861924648285,-0.1476914882659912,0.7409897411578193,0.33200437631479945,-0.41147900162446555,0.4139958100202659
1728065002117646600,2.552646484375,-0.20242296159267426,-0.2490127682685852,0.08555884659290314,-0.8855122327804565,-0.15091553330421448,-0.43942296504974365,0.08160299062728882,-0.13511046767234802,-0.12313801050186157,0.7404836025628004,0.3323220510264523,-0.41212931925056073,0.41399934058191634
1728065002127676400,2.562676513671875,-0.9069795608520508,-0.3349386155605316,0.151203915476799,-0.887007474899292,-0.14744848012924194,-0.4375807046890259,0.12884396314620972,-0.17605312168598175,-0.015071272850036621,0.7405408623463897,0.33064792640640334,-0.4145860558123608,0.41278297051297275
1728065002137707500,2.57270751953125,-1.3492705821990967,-0.27607589960098267,0.22765101492404938,-0.8886520862579346,-0.14068472385406494,-0.43646931648254395,0.1241256594657898,-0.09459052979946136,0.15805751085281372,0.7414043285228661,0.3265949963198151,-0.4184507689399322,0.4105538673793181
1728065002147737600,2.582737548828125,-1.4404371976852417,-0.12843480706214905,0.33024102449417114,-0.8899217844009399,-0.1320403516292572,-0.4365830421447754,0.06442123651504517,-0.024835258722305298,0.1967453956604004,0.7426977233028846,0.3211804259138449,-0.4225536880316419,0.40827899840454684
1728065002157768400,2.5927685546875,-1.2633545398712158,-0.0758509486913681,0.3097309470176697,-0.8908042907714844,-0.12304587662220001,-0.43741023540496826,-0.008915066719055176,0.0008687525987625122,0.09166133403778076,0.7439763617823529,0.3155770302187436,-0.4262698991523883,0.4064535453529781
1728065002167798500,2.602798583984375,-0.8519648313522339,0.03927936404943466,0.12678591907024384,-0.8911615610122681,-0.11628106981515884,-0.43853163719177246,-0.04833751916885376,0.07711173593997955,0.02561354637145996,0.7451600716233512,0.3111113946548971,-0.4288867860648483,0.4049722669519974
1728065002177829600,2.61282958984375,-0.32146260142326355,0.1202479898929596,-0.10137908160686493,-0.8908141851425171,-0.11361651867628098,-0.4399335980415344,-0.10167855024337769,0.15457111597061157,-0.0346757173538208,0.7462257705077571,0.3087364825321369,-0.4297848100260558,0.40387388331739194
1728065002187859500,2.622859375,0.12212894856929779,0.12942762672901154,-0.20375923812389374,-0.8900464177131653,-0.11463714390993118,-0.44122084975242615,-0.12354922294616699,0.19405913352966309,-0.12628400325775146,0.746990382323122,0.30845370844295844,-0.429238720017902,0.40325668185979
1728065002197890600,2.632890625,0.51460200548172,0.05564560741186142,-0.1699136644601822,-0.8894103765487671,-0.11778874695301056,-0.4416730999946594,-0.07865303754806519,0.19759222865104675,-0.17624682188034058,0.7470798145893413,0.30989003893465006,-0.42793879418542347,0.40337128402797445
1728065002207920600,2.642920654296875,0.7902764678001404,-0.05090507119894028,-0.08534365892410278,-0.8892320990562439,-0.12184419482946396,-0.44093120098114014,0.010371565818786621,0.14387787878513336,-0.16554462909698486,0.7463146031662665,0.3126273181643708,-0.4263784285776689,0.40432682622640237
1728065002217950500,2.652950439453125,0.8686941266059875,-0.16278761625289917,-0.0308654997497797,-0.8896530866622925,-0.12606561183929443,-0.4388905465602875,0.0761306881904602,0.034833312034606934,-0.15441691875457764,0.7448590265136018,0.31612887937014356,-0.42499088344060576,0.4057466937821526
1728065002227981600,2.662981689453125,0.7685089707374573,-0.18544232845306396,0.004365457687526941,-0.8904258608818054,-0.12980863451957703,-0.4362241327762604,0.08399885892868042,-0.09068083763122559,-0.12120988965034485,0.7431811146550757,0.31961105005443596,-0.4239536567640874,0.40717794717076833
1728065002238011600,2.67301171875,0.5823427438735962,-0.1453229784965515,0.05516897886991501,-0.8911963105201721,-0.13250337541103363,-0.43383416533470154,0.061621665954589844,-0.18968595564365387,-0.046069979667663574,0.7416760231567111,0.3224126924164154,-0.4232410285128903,0.40845301681092416
1728065002248042500,2.68304248046875,0.37824687361717224,-0.0742378756403923,0.1193021610379219,-0.8917968273162842,-0.13383181393146515,-0.43218931555747986,0.036526381969451904,-0.24618832767009735,0.021102309226989746,0.7404779167517739,0.32425589675588096,-0.4228042672272226,0.40961843241793616
1728065002258072600,2.693072509765625,0.15415506064891815,0.02245819941163063,0.20815028250217438,-0.8921287655830383,-0.13352295756340027,-0.4315992295742035,0.02564316987991333,-0.25403499603271484,0.07751908898353577,0.7396569640668245,0.32494706991489597,-0.42262251089176,0.41073979149570905
1728065002268103700,2.703103759765625,0.01611410081386566,0.06978044658899307,0.29724153876304626,-0.8922367691993713,-0.13155898451805115,-0.43197911977767944,0.03470802307128906,-0.20215073227882385,0.12149327993392944,0.7391027989935763,0.32459101663933976,-0.4226714046703753,0.411966912248238
1728065002278133500,2.713133544921875,-0.02554146759212017,0.09669956564903259,0.2989097237586975,-0.892259955406189,-0.1287926733493805,-0.43276411294937134,0.04878455400466919,-0.10661990940570831,0.10038191080093384,0.7386776624205973,0.32372499609754213,-0.42287122004917604,0.4132040133215392
1728065002288164600,2.72316455078125,-0.054332099854946136,0.10133932530879974,0.24282331764698029,-0.8921909928321838,-0.1261955201625824,-0.43367040157318115,0.05097389221191406,-0.02752150595188141,0.05322307348251343,0.7383798098852975,0.3228077107183597,-0.4230366141588631,0.41428314575197894
1728065002298194700,2.733194580078125,-0.1707165688276291,0.0979391559958458,0.19635674357414246,-0.8920239806175232,-0.12378416955471039,-0.43470752239227295,0.04116344451904297,0.02788270264863968,0.029601991176605225,0.7383129241046454,0.32174215191435135,-0.4232354326864951,0.41502740448932884
1728065002308225500,2.7432255859375,-0.3251676559448242,0.07916627079248428,0.1681770384311676,-0.8918769955635071,-0.12105239182710648,-0.4357772171497345,0.047791242599487305,0.08502641320228577,0.03560027480125427,0.7385181057515261,0.3202459464522828,-0.4237380309218143,0.41530667448651704
1728065002318255600,2.753255615234375,-0.36157694458961487,0.11243858188390732,0.10839944332838058,-0.8916313648223877,-0.1182347908616066,-0.4370516538619995,0.057707905769348145,0.1179906576871872,0.05843538045883179,0.7389935288962272,0.3184333531904415,-0.42435170072696393,0.4152282018205019
1728065002328285700,2.76328564453125,-0.30296289920806885,0.06929963827133179,0.053955912590026855,-0.8912969827651978,-0.1160552129149437,-0.43831607699394226,0.04365593194961548,0.08939812332391739,0.04555487632751465,0.7395700015919091,0.31681923578098614,-0.42481471018471073,0.41496302214969405
1728065002338316800,2.77331689453125,-0.19504374265670776,0.04082314670085907,0.054200656712055206,-0.8911350965499878,-0.11448308825492859,-0.43905800580978394,0.008932888507843018,0.048732973635196686,-0.018247902393341064,0.7399727169263356,0.3156654543827758,-0.4252367807603788,0.4146919771456133
1728065002348346400,2.783346435546875,-0.07183073461055756,0.033498652279376984,0.10006269067525864,-0.8910647630691528,-0.11323327571153641,-0.43952450156211853,-0.004626154899597168,0.04263085126876831,-0.020802587270736694,0.7400932213834659,0.31495088196146354,-0.4254922871138831,0.41475810727608736
1728065002358377700,2.793377685546875,-0.01993897370994091,0.049302756786346436,0.1310855895280838,-0.8910195827484131,-0.1119803711771965,-0.4399370551109314,-0.00807410478591919,0.0640525296330452,-0.014622271060943604,0.7399985281860191,0.3144546198129215,-0.4256169270611679,0.41517562009812514
1728065002368407600,2.803407470703125,0.0031895136926323175,0.03724662587046623,0.09849195182323456,-0.8909638524055481,-0.11086943745613098,-0.44033119082450867,-0.01995539665222168,0.10079865157604218,-0.016486406326293945,0.739850872274327,0.31407979560789523,-0.4256621679114614,0.4156758670280281
1728065002378438400,2.8134384765625,-0.016965821385383606,0.0692112147808075,0.022837409749627113,-0.8908060789108276,-0.11029089987277985,-0.4407954514026642,-0.03674525022506714,0.12579381465911865,-0.005234181880950928,0.7398325279448718,0.31382735795024963,-0.4255756891806861,0.4159876638366459
1728065002388468500,2.823468505859375,-0.11638189107179642,0.0878586694598198,-0.03532842546701431,-0.8904397487640381,-0.11008530855178833,-0.44158628582954407,-0.05163794755935669,0.11286241561174393,0.010968029499053955,0.7401182547268835,0.31344542563556493,-0.4253925440352907,0.4159546961069135
1728065002398499600,2.83349951171875,-0.2755587697029114,0.1058126911520958,-0.03724696859717369,-0.8899755477905273,-0.10957776010036469,-0.44264715909957886,-0.05469626188278198,0.07660351693630219,0.017354130744934082,0.7407058538282346,0.3126133032822007,-0.42538141450055267,0.41554618087531064
1728065002408529400,2.843529296875,-0.40557271242141724,0.08689625561237335,-0.028284097090363503,-0.889473557472229,-0.10832704603672028,-0.4439620077610016,-0.04279279708862305,0.03627505153417587,0.034217774868011475,0.7415376009500947,0.3111781301046805,-0.4256608567518892,0.414853179316195
1728065002418560500,2.853560546875,-0.4135652780532837,0.003521260339766741,0.001678327564150095,-0.8892388939857483,-0.10643576085567474,-0.4448884129524231,-0.03271239995956421,0.013525009155273438,0.04384168982505798,0.742311785469367,0.3094885780122197,-0.42634800282090424,0.4140259518686952
1728065002428590600,2.863590576171875,-0.36826199293136597,-0.014700086787343025,0.06560111790895462,-0.8893238306045532,-0.10407178848981857,-0.44527751207351685,-0.037983238697052,0.028754428029060364,0.008632063865661621,0.7428034382635591,0.3078524567393193,-0.42730329655591914,0.41337844047500255
1728065002438621400,2.873621337890625,-0.2558545768260956,0.03539269417524338,0.06603547930717468,-0.8893328309059143,-0.10192010551691055,-0.4457571804523468,-0.03504467010498047,0.09108637273311615,-0.02081078290939331,0.7431731347579555,0.3064431083506911,-0.4280350786660875,0.4130040738023787
1728065002448651500,2.883651611328125,0.04883316531777382,0.011310260742902756,-0.10090690106153488,-0.8892180323600769,-0.10154081881046295,-0.4460725784301758,-0.041735947132110596,0.15342071652412415,-0.05972573161125183,0.7434173331610932,0.3060127730499536,-0.4281587312607813,0.4127553079428672
1728065002458681600,2.893681640625,0.33740565180778503,0.03410622850060463,-0.24431546032428741,-0.8892244100570679,-0.10228519141674042,-0.44588997960090637,-0.0814482569694519,0.15302065014839172,-0.14428943395614624,0.7432563912052809,0.30653485765007377,-0.4278917992186187,0.4129347603500818
1728065002468712400,2.90371240234375,0.5165815353393555,-0.03841511160135269,-0.274664044380188,-0.8891902565956116,-0.10548514872789383,-0.44521188735961914,-0.0684819221496582,0.11520502716302872,-0.1382841169834137,0.7429381943412141,0.3083910399625722,-0.4269531809835139,0.41309660018781846
1728065002478742500,2.913742431640625,0.5569037199020386,-0.08697375655174255,-0.21245819330215454,-0.8892499208450317,-0.1101420447230339,-0.4439631700515747,-0.01710689067840576,0.0809367448091507,-0.0913761556148529,0.7424359695906356,0.31112319568912494,-0.42570033223533665,0.4132438149953579
1728065002488773600,2.923773681640625,0.38979434967041016,-0.032404784113168716,-0.10493919998407364,-0.8893255591392517,-0.11369577795267105,-0.4429147243499756,0.040631651878356934,0.03673045337200165,0.013639211654663086,0.7418858114035315,0.3133740735140651,-0.42466377904220304,0.4135975278630871
1728065002498803700,2.9338037109375,0.18956278264522552,-0.038710616528987885,-0.04727163910865784,-0.8893818855285645,-0.11559890955686569,-0.4423084259033203,0.06259965896606445,-0.012788519263267517,0.08922013640403748,0.7415190475818904,0.31465097722807245,-0.42407610774904525,0.4138885302541395
1728065002508834600,2.94383447265625,0.057964544743299484,-0.02213430218398571,-0.027803663164377213,-0.889474093914032,-0.11651627719402313,-0.4418823719024658,0.03550058603286743,-0.07388287782669067,0.07527470588684082,0.741331729433563,0.31527533729286766,-0.42386351939086225,0.41396691022901744
1728065002518864600,2.95386474609375,-0.12641075253486633,0.045721232891082764,0.02515515871345997,-0.8894268870353699,-0.1164194643497467,-0.4420027732849121,0.010718941688537598,-0.1330617219209671,0.07280111312866211,0.7414140770630772,0.3151462109414994,-0.42388851943750877,0.41389208938824673
1728065002528895700,2.963895751953125,-0.2889149785041809,0.11830142885446548,0.06654946506023407,-0.8891109228134155,-0.11502096056938171,-0.4430035650730133,0.020244896411895752,-0.1293332874774933,0.1198224425315857,0.7418188304927668,0.31407635363638226,-0.4240922723069203,0.4137714496436437
1728065002538925600,2.973925537109375,-0.34586474299430847,0.22091515362262726,0.03918548673391342,-0.888424277305603,-0.11309487372636795,-0.44487279653549194,0.028789877891540527,-0.09846822172403336,0.1286497414112091,0.7425744525349361,0.3124046072854767,-0.424225126374099,0.4135451526060243
1728065002548956700,2.983956787109375,-0.6147545576095581,0.17823825776576996,0.021604100242257118,-0.8875246047973633,-0.11076206713914871,-0.44724923372268677,0.010479927062988281,-0.0742507353425026,0.07514843344688416,0.7436709739392651,0.31019398922574315,-0.42444678799388275,0.41301109096285327
1728065002558986800,2.99398681640625,-0.6725761294364929,0.2515878975391388,0.057981543242931366,-0.8866323828697205,-0.10738986730575562,-0.4498339295387268,0.0023244619369506836,-0.03367763012647629,0.013478338718414307,0.7451140363171709,0.3071294089637683,-0.4251524042974992,0.41197344669333147
1728065002569016600,3.0040166015625,-0.2961231470108032,0.12460064888000488,0.12193603068590164,-0.8858080506324768,-0.1043514609336853,-0.4521670639514923,0.03000354766845703,-0.0484958291053772,0.0974612832069397,0.7460978958973031,0.304691203390913,-0.42553465091245707,0.41160862875349147
1728065002579047700,3.014047607421875,-0.1803731918334961,0.07650982588529587,0.10877016186714172,-0.8855264782905579,-0.10232789814472198,-0.4531796872615814,0.04212743043899536,-0.07610835134983063,-0.0732942521572113,0.7463690152632655,0.30345444206118904,-0.4258233917860465,0.41173182948705556
1728065002589077500,3.024077392578125,-0.3153693675994873,0.059754014015197754,0.0556158572435379,-0.8852948546409607,-0.10049228370189667,-0.4540424346923828,0.027155756950378418,-0.044542498886585236,-0.1280040740966797,0.7467156797805385,0.302226846008308,-0.4261897622424579,0.4116273971719208
1728065002599108600,3.034108642578125,-0.47972068190574646,0.038300760090351105,-0.0071660298854112625,-0.8850790858268738,-0.09849268198013306,-0.454900324344635,0.011818528175354004,-0.0031308457255363464,0.007222771644592285,0.7473842691036541,0.30058498328693567,-0.4268471606163748,0.41093431539926684
1728065002609138400,3.044138427734375,-0.5672598481178284,0.010661941021680832,-0.015599194914102554,-0.8849541544914246,-0.09623923897743225,-0.45562514662742615,-0.010492682456970215,0.014467388391494751,0.008206963539123535,0.748274612454193,0.298583877592919,-0.4278260097541719,0.4097532942517429
1728065002619169500,3.05416943359375,-0.5401710867881775,0.030887797474861145,0.05541958659887314,-0.8848798274993896,-0.09353720396757126,-0.45633161067962646,-0.02565789222717285,0.01988305151462555,-0.020337671041488647,0.7491122829551465,0.29641459621023813,-0.4289202546980223,0.408652219399918
1728065002629199600,3.06419970703125,-0.4427239000797272,-0.030624832957983017,0.08935970813035965,-0.8849214315414429,-0.09061412513256073,-0.4568404257297516,0.008120894432067871,0.024558857083320618,-0.014854460954666138,0.7497077595874246,0.29438201894859156,-0.4300221030911429,0.4078707091711942
1728065002639230500,3.07423046875,-0.35688844323158264,-0.042916812002658844,0.11323947459459305,-0.8851991891860962,-0.08794932067394257,-0.4568232297897339,0.036062777042388916,0.03028637170791626,-0.019434064626693726,0.7499947100722877,0.29278207598445377,-0.4311229966062614,0.40733235748880214
1728065002649260500,3.084260498046875,-0.4239034056663513,-0.0375947505235672,0.16345497965812683,-0.8855096697807312,-0.08497247844934464,-0.45678478479385376,0.0362207293510437,0.03391658514738083,0.0014930665493011475,0.750182879931951,0.29112994195815267,-0.43226261423028206,0.40696200454804726
1728065002659290600,3.09429052734375,-0.4778568744659424,0.05777810513973236,0.1699746698141098,-0.8856295943260193,-0.0813262090086937,-0.4572158455848694,0.03261744976043701,0.06156609207391739,0.03161773085594177,0.7505173341553325,0.2890049090776267,-0.4334377021052944,0.406609963989984
1728065002669321500,3.104321533203125,-0.1779138296842575,0.09105909615755081,0.10791102051734924,-0.8853728175163269,-0.07843883335590363,-0.4582166075706482,0.001751542091369629,0.047570325434207916,0.04484081268310547,0.750923397668632,0.28718918040348956,-0.43406689082716354,0.4064757316624748
1728065002679351600,3.1143515625,0.2705431282520294,0.04774060100317001,0.06644666939973831,-0.8850780725479126,-0.07800217717885971,-0.4588601589202881,-0.04572337865829468,-0.039643071591854095,-0.040041208267211914,0.7508193098252788,0.287106578491254,-0.4337507759092807,0.4070634225037612
1728065002689382700,3.124382568359375,0.25027620792388916,-0.06063540652394295,0.020420856773853302,-0.8851412534713745,-0.07892424613237381,-0.45858052372932434,-0.052084147930145264,-0.0679873675107956,-0.17317909002304077,0.7503080417810941,0.28809363694663315,-0.433257200414931,0.4078336139733019
1728065002699412500,3.13441259765625,0.11337234824895859,-0.13116417825222015,-0.052433378994464874,-0.8855849504470825,-0.07989846169948578,-0.45755407214164734,-0.013157784938812256,0.031345002353191376,-0.13239645957946777,0.7498675654984587,0.2890079261026933,-0.43324056257524707,0.4080145144280819
1728065002709443600,3.144443603515625,-0.00748323742300272,-0.10682420432567596,-0.08579026907682419,-0.8860874772071838,-0.08080091327428818,-0.4564213156700134,0.018457412719726562,0.11017408221960068,0.0032047629356384277,0.7496696215170544,0.2896261128690365,-0.4334813233946633,0.4076840940535904
1728065002719473700,3.1544736328125,-0.09783277660608292,-0.04195215925574303,-0.08370474725961685,-0.8863527774810791,-0.08130622655153275,-0.45581600069999695,0.028534114360809326,0.11161018908023834,0.021001577377319336,0.7497697661636704,0.2897482649206817,-0.43374870131265575,0.40712830905376535
1728065002729504500,3.16450439453125,-0.10386136919260025,-0.015428674407303333,-0.07456345111131668,-0.8864073753356934,-0.08154961466789246,-0.45566630363464355,0.016503751277923584,0.07013606280088425,-0.0031959712505340576,0.7500220944995766,0.2895935781409061,-0.43393826134701097,0.40657114430428687
1728065002739534600,3.17453466796875,-0.21351490914821625,-0.05779722332954407,-0.06941822171211243,-0.8864970803260803,-0.08151007443666458,-0.45549890398979187,-0.003548145294189453,-0.0012535825371742249,-0.04570651054382324,0.7503062552024033,0.2892652066094275,-0.434253603308667,0.4059435628335031
1728065002749565700,3.184565673828125,-0.4616282880306244,-0.11632285267114639,-0.05805131793022156,-0.8868617415428162,-0.08056683838367462,-0.4549565315246582,0.0009363889694213867,-0.039550334215164185,-0.03443855047225952,0.7507274202142672,0.2883325308239754,-0.43518511149510186,0.4048293793707746
1728065002759595500,3.194595458984375,-0.6367099285125732,-0.12015731632709503,-0.005520196631550789,-0.8873878121376038,-0.07832615822553635,-0.45432159304618835,0.018216490745544434,-0.02636437863111496,0.04556912183761597,0.751335522209198,0.2865515775972617,-0.4367234750273159,0.40330623510212654
1728065002769625600,3.20462548828125,-0.6348917484283447,-0.05377670004963875,0.0438859686255455,-0.8878217935562134,-0.07517266273498535,-0.4540064334869385,0.03183412551879883,0.0023272112011909485,0.08424025774002075,0.7520128539434812,0.2842478551864113,-0.4384061289902299,0.4018459091204251
1728065002779656700,3.21465673828125,-0.4700462222099304,-0.01288402546197176,0.028744300827383995,-0.8879674077033997,-0.07224775850772858,-0.4541962146759033,0.022031068801879883,0.02396896481513977,0.04405525326728821,0.7526686106030039,0.2820924070331889,-0.43968826777446685,0.4007344143406734
1728065002789686800,3.224686767578125,-0.2545967698097229,-0.03730281442403793,-0.024676846340298653,-0.8880676627159119,-0.07061599940061569,-0.45425668358802795,-0.011285364627838135,0.013136148452758789,-0.02924850583076477,0.7531247128456936,0.2807851264553083,-0.44048992140569804,0.3999142983580807
1728065002799717600,3.234717529296875,-0.14308586716651917,-0.06396505236625671,-0.03386661782860756,-0.8883015513420105,-0.07003016769886017,-0.45388996601104736,-0.0336955189704895,-0.0006943047046661377,-0.05721840262413025,0.7533380494967354,0.28024125684676676,-0.4410440535339042,0.3992828334324044
1728065002809747700,3.244747802734375,-0.05832837522029877,-0.04414021223783493,0.006540460977703333,-0.8885385394096375,-0.06969071924686432,-0.4534783363342285,-0.019267916679382324,0.006702445447444916,-0.021832942962646484,0.7533878158367872,0.2799971796999117,-0.4414322291567598,0.39893123608092707
1728065002819778600,3.254778564453125,0.062038786709308624,-0.012533659115433693,0.029295308515429497,-0.8886816501617432,-0.069551981985569,-0.4532191753387451,0.006357371807098389,-0.005261845886707306,0.0027340054512023926,0.7532838787794093,0.28003022072155925,-0.4415580187915586,0.39896514830498236
1728065002829808400,3.264808349609375,0.1207612156867981,-0.013135267421603203,0.0272649135440588,-0.8887573480606079,-0.06975526362657547,-0.4530393183231354,0.024011194705963135,-0.04026060551404953,-0.023385822772979736,0.7530571643377681,0.280372857989176,-0.4414424165508288,0.3992800652666964
1728065002839839700,3.27483984375,-0.009483670815825462,-0.05194658041000366,0.03407301753759384,-0.8889054656028748,-0.06981314718723297,-0.4527399241924286,0.03706812858581543,-0.08671149611473083,-0.0369756817817688,0.7528450389803606,0.28062126486258926,-0.44145412643258186,0.3994928194392551
1728065002849869600,3.28486962890625,-0.18251483142375946,-0.14101414382457733,0.057500310242176056,-0.8897743821144104,-0.06906221807003021,-0.4511454701423645,0.05377572774887085,-0.09628202021121979,0.00009566545486450195,0.752482000345422,0.28056946270165706,-0.44238901671486563,0.3991788996739278
1728065002859900400,3.294900390625,-0.21897244453430176,-0.15640640258789062,0.07279005646705627,-0.8906858563423157,-0.06730516254901886,-0.44960954785346985,0.0608212947845459,-0.055924803018569946,0.038385212421417236,0.7522013150359137,0.27992641718827443,-0.44366252116348104,0.3987455098112269
1728065002869930500,3.304930419921875,-0.16190142929553986,-0.13533148169517517,0.051367852836847305,-0.8912094235420227,-0.06567294150590897,-0.4488127827644348,0.03421473503112793,-0.04396145045757294,0.03258359432220459,0.7520964751665691,0.279186601694863,-0.44457670055021986,0.39844370987405076
1728065002879961600,3.314961669921875,-0.07247814536094666,-0.08939461410045624,-0.011376753449440002,-0.8917188048362732,-0.06497079133987427,-0.44790226221084595,-0.007557928562164307,-0.0067455098032951355,-0.009220510721206665,0.7519715723575506,0.2789252755860912,-0.4452522424297335,0.3981080078709546
1728065002889991400,3.324991455078125,-0.1235799491405487,-0.03231988102197647,-0.09293340146541595,-0.8919724225997925,-0.06509315222501755,-0.44737908244132996,-0.05970299243927002,0.03950417786836624,-0.03989502787590027,0.7520445077842994,0.27887509816782363,-0.4455773124738116,0.3976412288062146
1728065002900021500,3.335021484375,-0.38351166248321533,-0.008691517636179924,-0.11230842769145966,-0.8919415473937988,-0.06490572541952133,-0.4474680721759796,-0.07885318994522095,0.07882176339626312,-0.0314900279045105,0.7526096219344949,0.2781523401084218,-0.4459789684483948,0.3966269165285744
1728065002910052600,3.345052490234375,-0.2119966298341751,-0.01119835115969181,-0.01521463505923748,-0.8919486403465271,-0.06404288858175278,-0.4475781321525574,-0.07559597492218018,0.10525688529014587,-0.00840023159980774,0.7531865747191857,0.2770771110164781,-0.4465861776955067,0.3955996030161849
1728065002920082700,3.355082763671875,0.07980573177337646,-0.05783221870660782,0.10359936207532883,-0.8921071290969849,-0.063407301902771,-0.44735297560691833,-0.028654158115386963,0.03456819802522659,-0.05748409032821655,0.7530995358686166,0.2768435183492693,-0.4468569971062739,0.3956233728226292
1728065002930113500,3.365113525390625,0.07669036835432053,-0.15742060542106628,0.15124519169330597,-0.8924288749694824,-0.06406600773334503,-0.44661685824394226,0.03633427619934082,-0.055791765451431274,-0.13388854265213013,0.7527184399006673,0.2775588214881812,-0.44682510338379017,0.3958833966750704
1728065002940143600,3.3751435546875,-0.02367831952869892,-0.1815236359834671,0.15879791975021362,-0.8932908773422241,-0.06366920471191406,-0.44494709372520447,0.051509082317352295,-0.04910849779844284,-0.06869429349899292,0.7520708800947371,0.2779894259087207,-0.4474911591307314,0.3960595598039319
1728065002950174500,3.385174560546875,-0.013167621567845345,-0.1395370364189148,0.17972609400749207,-0.8941275477409363,-0.06268700957298279,-0.44340312480926514,0.023720383644104004,-0.024806879460811615,0.003980547189712524,0.751463290844004,0.2780887843674053,-0.44829128126418505,0.3962379240759736
1728065002960204500,3.39520458984375,0.0043455250561237335,-0.10573800653219223,0.21913129091262817,-0.8947346806526184,-0.06102289631962776,-0.44240933656692505,-0.002802550792694092,-0.04067690297961235,-0.0032693445682525635,0.7508241020428796,0.2779155606763367,-0.44895242481654035,0.39682211978714427
1728065002970235600,3.405235595703125,-0.10357295721769333,-0.05272885411977768,0.22424988448619843,-0.8951762914657593,-0.05833015218377113,-0.44187918305397034,-0.008189857006072998,-0.05354728177189827,-0.010665953159332275,0.7502570674900206,0.27717232532281744,-0.44970646758956945,0.39756026076960854
1728065002980265700,3.415265625,-0.05623999238014221,0.01800539344549179,0.1685813069343567,-0.8954013586044312,-0.05523935332894325,-0.4418202042579651,-0.011932075023651123,-0.027905777096748352,0.04376417398452759,0.7498455503310462,0.27608027839366944,-0.450410461777409,0.3982986770938315
1728065002990296600,3.425296630859375,0.014656285755336285,0.048302579671144485,0.08679481595754623,-0.895464301109314,-0.0528840497136116,-0.4419809579849243,-0.029050588607788086,-0.0289488285779953,0.031580567359924316,0.7495087474085673,0.2752856670974804,-0.4508074096515096,0.3990329045580084
1728065003000326700,3.43532666015625,0.009449141100049019,0.015465004369616508,0.06973487138748169,-0.8950896263122559,-0.051935840398073196,-0.44285139441490173,-0.032431185245513916,-0.010442078113555908,-0.04933607578277588,0.7495251275464136,0.2748430473867623,-0.4505947156865404,0.3995471834109597
1728065003010356700,3.445356689453125,0.04495067521929741,-0.032439935952425,0.08918900042772293,-0.894191324710846,-0.052333347499370575,-0.44461578130722046,0.008967876434326172,0.04743528738617897,-0.07155847549438477,0.7499297919070534,0.27469302615683727,-0.4497063979173532,0.3998916002159291
1728065003020386800,3.45538671875,0.022527258843183517,-0.08224770426750183,0.09377576410770416,-0.8938702940940857,-0.052622053772211075,-0.44522663950920105,0.0740460753440857,0.05683350935578346,-0.060296982526779175,0.7499689107764168,0.27483002588100136,-0.4492829190644532,0.40019983193272163
1728065003030416600,3.465416748046875,-0.132932648062706,-0.10584970563650131,0.0899922102689743,-0.8942955136299133,-0.05214070528745651,-0.444428950548172,0.10440897941589355,0.01893758773803711,-0.047529637813568115,0.7497263596728448,0.2748138749843892,-0.44973642540701353,0.40015627807926124
1728065003040448000,3.475447998046875,-0.27154555916786194,-0.08113232254981995,0.10859252512454987,-0.8947434425354004,-0.050976432859897614,-0.4436616897583008,0.09171909093856812,-0.016803082078695297,0.0007448196411132812,0.7496724508768212,0.2742429307399813,-0.45051079520335713,0.39977766665700715
1728065003050477800,3.485477783203125,-0.31830161809921265,-0.0748581811785698,0.1415046751499176,-0.8950746059417725,-0.04929620772600174,-0.4431834816932678,0.056146204471588135,-0.04599492624402046,0.020896494388580322,0.7497761583287018,0.27325003682772236,-0.45137863448338145,0.39928398110856234
1728065003060508700,3.4955087890625,-0.2440507709980011,-0.09518097341060638,0.1664142906665802,-0.8958374857902527,-0.04720411077141762,-0.441867858171463,0.01294863224029541,-0.06883896887302399,-0.0096091628074646,0.7495507092799644,0.2723664119852182,-0.4526396005050399,0.39888331046628456
1728065003070538800,3.505538818359375,-0.26314669847488403,-0.05354032292962074,0.1822901964187622,-0.8965669870376587,-0.04512371867895126,-0.4406035840511322,-0.02082192897796631,-0.07432206720113754,-0.03817138075828552,0.7492517238542657,0.2715719406894892,-0.4538137147277845,0.3986523095225498
1728065003080569900,3.51556982421875,-0.22072440385818481,-0.002048368565738201,0.13777439296245575,-0.8964920043945312,-0.04276455566287041,-0.44099152088165283,-0.0330582857131958,-0.0367184579372406,-0.011034786701202393,0.7493815804970876,0.2702548445692167,-0.45438590951542196,0.39865172061636056
1728065003090599700,3.525599609375,-0.008632391691207886,0.070896677672863,0.061067886650562286,-0.8959037065505981,-0.040723200887441635,-0.44237807393074036,-0.05349820852279663,0.029034994542598724,0.019526541233062744,0.7496083030999025,0.26905346538326586,-0.45433599606423314,0.3990947503391588
1728065003100630800,3.535630859375,0.13643164932727814,0.17264403402805328,-0.017173124477267265,-0.8947606682777405,-0.040160614997148514,-0.44473668932914734,-0.06166034936904907,0.0737604945898056,0.0008585453033447266,0.7500120297470954,0.268462654814613,-0.45338664691407,0.39981308509507674
1728065003110660900,3.545660888671875,0.3291880786418915,0.16024674475193024,-0.0922178104519844,-0.8934717774391174,-0.04165409132838249,-0.447183758020401,-0.039389610290527344,0.10775516927242279,0.01844233274459839,0.7504679382986038,0.2688559007881333,-0.4518015408203952,0.4004870994994241
1728065003120691700,3.555691650390625,0.5007075667381287,0.14930632710456848,-0.1436423808336258,-0.8925480246543884,-0.044902872294187546,-0.4487112760543823,-0.027953684329986572,0.12438592314720154,0.012676149606704712,0.7506097237980659,0.2704277399526858,-0.45001467132760825,0.40117415378777666
1728065003130721800,3.5657216796875,0.5624271035194397,0.11136053502559662,-0.1301790326833725,-0.891890823841095,-0.04909619316458702,-0.44957810640335083,-0.017166852951049805,0.10921584814786911,-0.01628798246383667,0.7505025339083227,0.27270727304629094,-0.4481536430473268,0.40191440082561486
1728065003140752000,3.575751953125,0.4546734392642975,0.09102905541658401,-0.06652362644672394,-0.8913227915763855,-0.05291155353188515,-0.45027124881744385,-0.013065695762634277,0.06578998267650604,-0.020721793174743652,0.7503062811716361,0.2748764134025362,-0.4464385062131587,0.40271105893652703
1728065003150782700,3.58578271484375,0.3367728888988495,0.0814637839794159,-0.037210747599601746,-0.8909314870834351,-0.055073488503694534,-0.4507862627506256,-0.0020588040351867676,0.023701414465904236,-0.010547995567321777,0.7500353041382268,0.2762838743445756,-0.44527979002396834,0.40353485439536824
1728065003160812800,3.595812744140625,0.251383900642395,0.029145024716854095,-0.06990744173526764,-0.8906433582305908,-0.0568426139652729,-0.45113566517829895,0.001513659954071045,-0.003505874425172806,-0.016836106777191162,0.7498441983443292,0.2773946754801066,-0.4443921286355937,0.40410590144620917
1728065003170844000,3.605843994140625,-0.040019743144512177,-0.008226050063967705,-0.13214844465255737,-0.890522837638855,-0.05827543884515762,-0.4511907994747162,0.011921703815460205,-0.016294267028570175,-0.07017147541046143,0.7499002352552615,0.27805032060751383,-0.4439511481778424,0.4040360815938023
1728065003180874000,3.6158740234375,-0.4362420439720154,-0.12230776995420456,-0.19140030443668365,-0.8907535076141357,-0.05860300734639168,-0.450692743062973,0.03504055738449097,0.010339461266994476,-0.05406796932220459,0.7504203836005809,0.27761691818879086,-0.44450249820593785,0.4027601432188102
1728065003190904800,3.62590478515625,-0.5313538908958435,-0.18967509269714355,-0.23043426871299744,-0.8913719654083252,-0.058160461485385895,-0.4495258331298828,0.036605119705200195,0.08555002510547638,-0.020933091640472412,0.7511719020312648,0.2765028908846996,-0.44585113213505495,0.4006291753876949
1728065003200935000,3.635934814453125,-0.43287360668182373,-0.20535025000572205,-0.23494406044483185,-0.8921358585357666,-0.05805152654647827,-0.44802191853523254,0.0340120792388916,0.11150306463241577,-0.05623522400856018,0.7518619313347759,0.2755930263270422,-0.4472555525548877,0.3983900035501858
1728065003210965800,3.6459658203125,-0.38745447993278503,-0.21452218294143677,-0.23936358094215393,-0.892957866191864,-0.05832839384675026,-0.44634518027305603,0.031812846660614014,0.08654192090034485,-0.0883837640285492,0.7524043099638024,0.2750195634148589,-0.44854392377623803,0.3963083616715142
1728065003220995800,3.655995849609375,-0.3932356536388397,-0.1644248068332672,-0.26624101400375366,-0.893693745136261,-0.05882144719362259,-0.44480523467063904,0.01985335350036621,0.05346562713384628,-0.051547884941101074,0.7529911960526489,0.27450150098522813,-0.44971803011331807,0.3942169943003481
1728065003231027000,3.66602685546875,-0.4522227942943573,-0.055367033928632736,-0.27659404277801514,-0.894045352935791,-0.059378791600465775,-0.4440239667892456,-0.01658397912979126,0.009574130177497864,0.037499308586120605,0.7538475348888477,0.2737482452090843,-0.45061060841866346,0.3920791925082209
1728065003241057000,3.67605712890625,-0.5052199959754944,0.015738457441329956,-0.2601253390312195,-0.8939762115478516,-0.0596211813390255,-0.44413062930107117,-0.05743986368179321,-0.026575714349746704,0.08498454093933105,0.7549870463087418,0.27256402016240905,-0.4512688127411277,0.3899487617679346
1728065003251086800,3.6860869140625,-0.45337754487991333,0.06807143986225128,-0.2265836000442505,-0.8936493992805481,-0.05963187664747238,-0.44478631019592285,-0.062451064586639404,-0.040831975638866425,0.08237484097480774,0.756213055962183,0.2711958074110746,-0.4517296521694608,0.38798841505489645
1728065003261118000,3.696117919921875,-0.35457733273506165,0.016019262373447418,-0.15908071398735046,-0.8933089971542358,-0.05954310670495033,-0.4454813599586487,-0.02830660343170166,-0.06382419168949127,0.08384808897972107,0.7572503913200953,0.2699947636469012,-0.4520643214632194,0.38640980506673256
1728065003271147800,3.706147705078125,-0.2562140226364136,-0.11824986338615417,-0.09314218908548355,-0.8934808969497681,-0.059292323887348175,-0.4451700747013092,0.012972414493560791,-0.08676478266716003,0.04926556348800659,0.7577798377676994,0.2692217549846024,-0.4526970443432998,0.3851685307487554
1728065003281178600,3.7161787109375,-0.28583815693855286,-0.1541769653558731,-0.02977120690047741,-0.8940985798835754,-0.05867115408182144,-0.44401082396507263,0.040704965591430664,-0.08920174837112427,0.01821434497833252,0.7579111605326876,0.26865538659685934,-0.45367264883950076,0.3841565923825684
1728065003291208700,3.726208740234375,-0.38850274682044983,-0.06057831272482872,0.0053167385049164295,-0.8946073055267334,-0.05718061700463295,-0.4431798458099365,0.03819245100021362,-0.05884721130132675,0.07922720909118652,0.7581290542447203,0.26756882434910234,-0.45477137852029054,0.3831846064180172
1728065003301239800,3.73623974609375,-0.2415236234664917,0.033476974815130234,-0.06423836946487427,-0.8946700692176819,-0.05593355372548103,-0.4432120621204376,0.005784571170806885,-0.012425806373357773,0.1364036500453949,0.7585713747777221,0.2664112950768749,-0.45543275775148884,0.3823291190098975
1728065003311270000,3.746269775390625,-0.07693308591842651,0.06834840774536133,-0.141740620136261,-0.8943564891815186,-0.0561816468834877,-0.4438132047653198,-0.043723344802856445,0.013136614114046097,0.06425085663795471,0.7591105922193206,0.26594882744041015,-0.45537305364841874,0.38165136559488866
1728065003321300700,3.75630078125,0.09351355582475662,-0.015249019488692284,-0.13900715112686157,-0.8941461443901062,-0.05749750882387161,-0.4440686106681824,-0.05533212423324585,0.030764132738113403,-0.011894524097442627,0.7594495211110863,0.266237320129967,-0.4550641593921758,0.381144170010751
1728065003331330800,3.766330810546875,0.1905231922864914,-0.03475800156593323,-0.07197405397891998,-0.894243597984314,-0.059132300317287445,-0.44365739822387695,-0.0017372965812683105,0.040531840175390244,0.0014424324035644531,0.7593662273574526,0.26713117863155356,-0.4547661369669978,0.38104034275160237
1728065003341361700,3.776361572265625,0.15638652443885803,-0.022167697548866272,-0.03132569417357445,-0.8943344950675964,-0.0602908618748188,-0.4433181881904602,0.07269442081451416,0.024509020149707794,0.044056713581085205,0.7591532452430708,0.2679436702586169,-0.4544745278782237,0.38124221708967
1728065003351391700,3.786391845703125,0.09538256376981735,-0.056304365396499634,-0.06058558076620102,-0.8944927453994751,-0.061226192861795425,-0.44287025928497314,0.1014934778213501,0.01563294231891632,0.08090129494667053,0.7589738472215208,0.2685924216831772,-0.45433796395092113,0.3813054186072735
1728065003361421800,3.796421875,0.07098527252674103,-0.055661048740148544,-0.08359795808792114,-0.8947127461433411,-0.06220114976167679,-0.4422898292541504,0.06362748146057129,0.031363144516944885,0.09751749038696289,0.7588605401662849,0.2691707084175324,-0.45431510559316296,0.38115055553901933
1728065003371453000,3.806452880859375,0.037521056830883026,-0.05994926765561104,-0.11905448138713837,-0.8949247598648071,-0.06331058591604233,-0.4417029321193695,-0.01590287685394287,0.07086370140314102,0.08061900734901428,0.758840735254182,0.26970479743774795,-0.4543213196575185,0.3808047012852353
1728065003381482800,3.816482666015625,0.17314539849758148,0.017052195966243744,-0.15724048018455505,-0.8949781060218811,-0.0649329423904419,-0.4413593113422394,-0.10145139694213867,0.12451852113008499,0.03674203157424927,0.7589119417884065,0.2704122613877651,-0.45408980780585473,0.38043713263208373
1728065003391513900,3.826513916015625,0.5478417873382568,0.18565265834331512,-0.17925043404102325,-0.894418478012085,-0.06798537075519562,-0.4420336186885834,-0.14571219682693481,0.1724470555782318,0.009340167045593262,0.7589830759253079,0.2719347372306721,-0.4528075665199262,0.3807382879430155
1728065003401544000,3.8365439453125,0.8055146932601929,0.2124866247177124,-0.14851702749729156,-0.8933738470077515,-0.07256408780813217,-0.4434160888195038,-0.1300179362297058,0.12285707890987396,-0.04347658157348633,0.7588144221611715,0.27456653205586606,-0.45044996627108214,0.38198027226548414
1728065003411574800,3.84657470703125,0.6466369032859802,0.12656345963478088,-0.052131108939647675,-0.892552375793457,-0.07680407166481018,-0.44435518980026245,-0.06058800220489502,-0.01929578185081482,-0.10131430625915527,0.7583525441204094,0.2773184382277879,-0.4482375294218792,0.3835089569179909
1728065003421604900,3.85660498046875,0.33772215247154236,0.055164214223623276,0.05590960383415222,-0.8921573162078857,-0.07895022630691528,-0.44477206468582153,0.04387545585632324,-0.16035336256027222,-0.03487268090248108,0.7578503278977078,0.27901214658846796,-0.4469521114018293,0.38477127459758714
1728065003431636000,3.866635986328125,-0.04256712272763252,-0.011327460408210754,0.0950452908873558,-0.892146110534668,-0.07887420803308487,-0.4448081851005554,0.1282147765159607,-0.2701095640659332,0.056533098220825195,0.7575173210470931,0.279363232900509,-0.44671253204230005,0.38545008212597576
1728065003441665800,3.876665771484375,-0.3746655583381653,-0.037857282906770706,0.08140484988689423,-0.8923646807670593,-0.07707328349351883,-0.44468557834625244,0.1627197265625,-0.2762592136859894,0.08282339572906494,0.7575776481381244,0.27838181128828665,-0.4473933093852775,0.3852520614734988
1728065003451697000,3.88669677734375,-0.37891435623168945,-0.07010576874017715,0.0532778725028038,-0.8926557302474976,-0.07466002553701401,-0.4445129930973053,0.13252383470535278,-0.1660168468952179,0.09008187055587769,0.7578809419609248,0.2768044754417249,-0.44846714793863934,0.3845428253794753
1728065003461727000,3.89672705078125,-0.13675586879253387,-0.05242312327027321,0.024508541449904442,-0.8929921984672546,-0.07314285635948181,-0.44408926367759705,0.06645405292510986,-0.03902450203895569,0.013394713401794434,0.7580113596197341,0.2758561113693235,-0.4492869558416305,0.38400990135537716
1728065003471757000,3.906757080078125,0.04611674323678017,-0.011494068428874016,0.00030946312472224236,-0.8931580185890198,-0.07286481559276581,-0.4438011050224304,-0.006103456020355225,0.054218605160713196,-0.08262702822685242,0.7579579499314487,0.2757556937721468,-0.4495088850797443,0.383927479120923
1728065003481788000,3.916787841796875,0.05052746832370758,0.024585533887147903,-0.011357313022017479,-0.8931398391723633,-0.0731876865029335,-0.4437847435474396,-0.038256704807281494,0.1019199937582016,-0.09979432821273804,0.7578945416480837,0.2759911583003895,-0.44937346485906426,0.38404214865492364
1728065003491817700,3.926817626953125,-0.06469179689884186,0.02943914383649826,0.013834061101078987,-0.8929919600486755,-0.0731600746512413,-0.4440867602825165,-0.02258121967315674,0.09334746748209,-0.03345227241516113,0.7579746258938834,0.2759074979875715,-0.4492567988676954,0.38408065017153564
1728065003501848800,3.936848876953125,-0.16718748211860657,-0.03439836949110031,0.04946635663509369,-0.893045961856842,-0.07229991257190704,-0.44411906599998474,0.004877567291259766,0.036197640001773834,0.03052961826324463,0.7580600780709374,0.2753771726703418,-0.4495640939269501,0.3839329824742938
1728065003511878700,3.946878662109375,-0.23974211513996124,-0.0444914847612381,0.08790934830904007,-0.8932971358299255,-0.07076884806156158,-0.4438605308532715,0.008684039115905762,-0.026978962123394012,0.025174617767333984,0.758106138408352,0.27453122497564486,-0.45022477449424775,0.3836736514152061
1728065003521909800,3.95690966796875,-0.26463940739631653,0.017603309825062752,0.12125719338655472,-0.8934730887413025,-0.06867394596338272,-0.44383522868156433,-0.01335674524307251,-0.04887975752353668,0.022311240434646606,0.7582054915795022,0.27335578097287117,-0.45095343664718013,0.3834606134676989
1728065003531939800,3.96693994140625,-0.19274604320526123,0.12860332429409027,0.1229027584195137,-0.8932220935821533,-0.06651781499385834,-0.44466808438301086,-0.053189098834991455,-0.029353149235248566,0.018490135669708252,0.7584442695375679,0.27205473958948523,-0.451278372453439,0.38353145310156556
1728065003541970700,3.976970703125,-0.16449162364006042,0.21714411675930023,0.11353401839733124,-0.8925610780715942,-0.0646807923913002,-0.4462636113166809,-0.09228700399398804,-0.021394014358520508,-0.026758849620819092,0.7588286411304483,0.27080575116849487,-0.4511456958453542,0.38381118412613424
1728065003552000800,3.987000732421875,-0.26946383714675903,0.2799758017063141,0.0932156965136528,-0.8914918303489685,-0.06279299408197403,-0.44866424798965454,-0.09288334846496582,-0.025128163397312164,-0.049932003021240234,0.7594813588816572,0.2692808960250703,-0.45072793803784716,0.3840838581408426
1728065003562031900,3.997031982421875,-0.4027484655380249,0.24444764852523804,0.07900400459766388,-0.8903566598892212,-0.06049175560474396,-0.45122718811035156,-0.045144498348236084,-0.02713945508003235,-0.03377336263656616,0.7603691228130045,0.2672834291346011,-0.45049524943553676,0.3839955878008119
1728065003572061700,4.007061767578125,-0.461508184671402,0.17494793236255646,0.10221904516220093,-0.8894621729850769,-0.057705577462911606,-0.4533511996269226,0.01650679111480713,-0.020358361303806305,-0.021593868732452393,0.7612497031057794,0.26501215521323745,-0.4506583654058114,0.38363347578931933
1728065003582091800,4.017091796875,-0.4844543933868408,0.05146519094705582,0.13065575063228607,-0.8890039920806885,-0.05448109656572342,-0.45464688539505005,0.07239937782287598,-0.01947823539376259,-0.025348812341690063,0.7619112474857116,0.26270581575320484,-0.4512895028344192,0.3831641708132956
1728065003592123000,4.027122802734375,-0.4719543159008026,-0.08902161568403244,0.18472644686698914,-0.8892369270324707,-0.05088680237531662,-0.45460787415504456,0.10665935277938843,-0.02545289695262909,-0.03345972299575806,0.762171290775112,0.2605687118682843,-0.45254835312868785,0.3826211933124843
1728065003602152700,4.037152587890625,-0.3317013382911682,-0.12989383935928345,0.25596892833709717,-0.889855146408081,-0.04702334478497505,-0.453813761472702,0.122475266456604,-0.03880733251571655,-0.005613088607788086,0.7620285682625628,0.25870009571720115,-0.45405658156666173,0.38238668643656726
1728065003612183800,4.047183837890625,-0.1284661889076233,-0.11534632742404938,0.3006458580493927,-0.8905670642852783,-0.04346011206507683,-0.45277124643325806,0.11708366870880127,-0.07905268669128418,-0.017733514308929443,0.7614854310993301,0.2574331455272808,-0.4553488303851873,0.3827868267637924
1728065003622214000,4.0572138671875,0.045511335134506226,-0.08744961023330688,0.28042420744895935,-0.8911721706390381,-0.0406712181866169,-0.45183849334716797,0.07301115989685059,-0.12438308447599411,-0.057988137006759644,0.7607207338077676,0.2568325396041903,-0.45619930040312184,0.38369683722162895
1728065003632244700,4.06724462890625,-0.24642197787761688,-0.12225125730037689,0.24197615683078766,-0.8917489051818848,-0.03802341967821121,-0.4509304165840149,0.01417011022567749,-0.124787837266922,-0.05462378263473511,0.7600595956139359,0.25618144301695583,-0.45706220553089205,0.38441475104781725
1728065003642274800,4.07727490234375,-0.7514976859092712,-0.027750376611948013,0.15302684903144836,-0.8922261595726013,-0.03387174382805824,-0.450316846370697,-0.028382420539855957,-0.0017270036041736603,0.0384211540222168,0.7601211493805877,0.25392143261022837,-0.4586561631807862,0.3838936297375147
1728065003652306000,4.087305908203125,-0.7383501529693604,0.09334994852542877,0.046065233647823334,-0.8921008706092834,-0.029468266293406487,-0.45087453722953796,-0.058689653873443604,0.15047046542167664,0.15958428382873535,0.7609949827027676,0.25065877912610385,-0.46014444780270325,0.38252322981783976
1728065003662336000,4.0973359375,-0.557478129863739,0.14052672684192657,0.01306786946952343,-0.8915400505065918,-0.02633936144411564,-0.4521755576133728,-0.08134514093399048,0.13971218466758728,0.0817989706993103,0.7620400697218619,0.24790926495770862,-0.46092648400953196,0.381290984878753
1728065003672366800,4.107366943359375,-0.3683747947216034,0.07568994909524918,0.04447638988494873,-0.8910702466964722,-0.023949675261974335,-0.4532333314418793,-0.05244177579879761,0.09264475107192993,-0.08486783504486084,0.7628166232028321,0.24583782521053252,-0.46146191968565226,0.3804308318432231
1728065003682397000,4.11739697265625,-0.1331540048122406,0.02781030163168907,0.021937526762485504,-0.8908426761627197,-0.022475123405456543,-0.45375582575798035,0.002613246440887451,0.07459915429353714,-0.10436487197875977,0.7631619924085945,0.24470735887825587,-0.4617796032009937,0.38008130409368124
1728065003692427000,4.127427001953125,0.001370774582028389,0.030063601210713387,-0.05156199261546135,-0.8907623291015625,-0.02231423184275627,-0.45392146706581116,0.042327821254730225,0.053518474102020264,-0.09016114473342896,0.7632984811928482,0.2444749259143539,-0.4618130359395194,0.3799161352807283
