time,seconds_elapsed,rotationRateX,rotationRateY,rotationRateZ,gravityX,gravityY,gravityZ,accelerationX,accelerationY,accelerationZ,quaternionW,quaternionX,quaternionY,quaternionZ
1728328522853936000,0.04893603515625,-0.1822170466184616,-0.1351158320903778,-0.3432617783546448,0.34488606452941895,0.23552803695201874,-0.9086143970489502,-0.05161219835281372,0.029700204730033875,0.0682976245880127,0.9768864386406225,-0.12055036370198685,0.17652311366990686,-2.475627827151574e-17
1728328522863967200,0.05896728515625,-0.14089344441890717,-0.12353311479091644,-0.36958950757980347,0.34285831451416016,0.23828311264514923,-0.9086635112762451,-0.045510321855545044,0.04260063171386719,0.05052441358566284,0.9768979191494592,-0.1216863697226584,0.17567207728493486,-0.0015164456893272619
1728328522873998000,0.068998046875,-0.018708014860749245,-0.10097400099039078,-0.388044148683548,0.34094053506851196,0.2403336465358734,-0.9088450074195862,-0.04618653655052185,0.0683973878622055,0.02992349863052368,0.9769400968513675,-0.12242510478500282,0.17489878243128995,-0.0032294852142316895
1728328522884029200,0.079029296875,0.1339600831270218,-0.06509802490472794,-0.3970227539539337,0.3392430543899536,0.24114541709423065,-0.9092651009559631,-0.04833430051803589,0.09894244372844696,0.008843958377838135,0.977039484054979,-0.12248692003645055,0.17425381529551853,-0.0051542606963793
1728328522894060000,0.08906005859375,0.24645188450813293,-0.04453112557530403,-0.38134390115737915,0.3377957344055176,0.24070310592651367,-0.9099209308624268,-0.046505481004714966,0.11983151733875275,-0.0029209256172180176,0.9771942693112455,-0.12187988649929403,0.17373783499915935,-0.007201805713454898
1728328522904091100,0.099091064453125,0.2632332444190979,-0.03756722807884216,-0.3637548089027405,0.3365517556667328,0.23954063653945923,-0.9106883406639099,-0.049228817224502563,0.11647738516330719,-0.006654858589172363,0.9773735743613658,-0.12090686343965966,0.17331292997622083,-0.009226907005365211
1728328522914122000,0.1091220703125,0.1726847141981125,-0.048626430332660675,-0.35163208842277527,0.33530303835868835,0.23872068524360657,-0.911363959312439,-0.04979586601257324,0.07954709231853485,-0.004804253578186035,0.9775263020584283,-0.12013264553812521,0.17287612450818923,-0.01114972210441519
1728328522924153000,0.119153076171875,0.0174434632062912,-0.07709801942110062,-0.3178826570510864,0.3339093327522278,0.23895493149757385,-0.9118141531944275,-0.05725225806236267,0.03381115198135376,0.01943439245223999,0.9776206889191936,-0.11994914728515153,0.1723517193340286,-0.012838251401641805
1728328522934184200,0.12918408203125,-0.14535658061504364,-0.08730772137641907,-0.2866048812866211,0.33242639899253845,0.24056123197078705,-0.9119336605072021,-0.06814423203468323,-0.00018957257270812988,0.04682135581970215,0.9776324416318245,-0.12053745290248438,0.17176698950206545,-0.014201184957677346
1728328522944215000,0.139215087890625,-0.21824996173381805,-0.08196995407342911,-0.291546106338501,0.33095407485961914,0.24324433505535126,-0.9117574095726013,-0.07723098993301392,-0.01707860827445984,0.05734151601791382,0.9775692779231934,-0.12171730262391255,0.17119051803846447,-0.01539261855600828
1728328522954246400,0.149246337890625,-0.16837213933467865,-0.045257531106472015,-0.3066622018814087,0.3296133875846863,0.24607689678668976,-0.9114829301834106,-0.09150004386901855,-0.00881803035736084,0.061125874519348145,0.977478554054267,-0.1229657817058793,0.17069838504265133,-0.016649442913584025
1728328522964277200,0.15927734375,-0.04036970064043999,0.013058772310614586,-0.3177601397037506,0.32867172360420227,0.24810390174388885,-0.9112734794616699,-0.10743457078933716,0.015903621912002563,0.06201505661010742,0.9773995630706853,-0.12376867593318457,0.17042470469294566,-0.01807545870439334
1728328522974308400,0.169308349609375,0.1087961494922638,0.06922255456447601,-0.33290472626686096,0.3282357454299927,0.24885791540145874,-0.9112250208854675,-0.11694738268852234,0.058728694915771484,0.05278080701828003,0.9773554250342655,-0.12387361742999123,0.17041954863387535,-0.01971841576601398
1728328522984339200,0.179339111328125,0.20618315041065216,0.12801849842071533,-0.3411506712436676,0.3283258378505707,0.24848796427249908,-0.9112935066223145,-0.12454476952552795,0.10762159526348114,0.04039812088012695,0.9773339734045825,-0.12335982133000958,0.17069154947773998,-0.021560748343457767
1728328522994370300,0.189370361328125,0.24817299842834473,0.16221661865711212,-0.3442271649837494,0.3288176655769348,0.24750101566314697,-0.9113847613334656,-0.1357940435409546,0.12939102947711945,0.055381953716278076,0.9773121212314608,-0.12250329748475612,0.17117407602154958,-0.023523118967789566
1728328523004401200,0.199401123046875,0.22220692038536072,0.16508564352989197,-0.33444350957870483,0.32949352264404297,0.24644014239311218,-0.9114281535148621,-0.14614397287368774,0.11838218569755554,0.06566399335861206,0.9772738663030425,-0.12160542897156,0.1717499497631104,-0.02549208938492516
1728328523014432300,0.209432373046875,0.17082975804805756,0.14900431036949158,-0.30617833137512207,0.3301343619823456,0.24570950865745544,-0.9113935232162476,-0.15799999237060547,0.09665189683437347,0.06768929958343506,0.9772154270830031,-0.12090115432210374,0.17229670653553508,-0.027326581416893692
1728328523024463000,0.219463134765625,0.11125297844409943,0.1320418268442154,-0.26781681180000305,0.3307240307331085,0.2453620582818985,-0.9112733006477356,-0.1652424931526184,0.07266156375408173,0.0644410252571106,0.9771380211878294,-0.12043223720155292,0.1727987646948133,-0.028947627736518832
1728328523034494200,0.229494140625,0.02962096594274044,0.10256335884332657,-0.23879553377628326,0.3311794400215149,0.24556000530719757,-0.9110546112060547,-0.15866363048553467,0.050048455595970154,0.04818534851074219,0.9770404496145028,-0.12029028569319915,0.1732136113340943,-0.03031821114631584
1728328523044525000,0.239525146484375,-0.03134331479668617,0.08244983106851578,-0.21564361453056335,0.33144643902778625,0.24634885787963867,-0.9107444882392883,-0.13924676179885864,0.03422971069812775,0.036598920822143555,0.9769240969004966,-0.12049121055565927,0.17352127826755265,-0.03148697928595151
1728328523054556200,0.24955615234375,-0.06248025968670845,0.06240123510360718,-0.17408472299575806,0.3316248953342438,0.24744942784309387,-0.9103810787200928,-0.12128251791000366,0.033602163195610046,0.04746603965759277,0.9767995165486822,-0.12089038873945337,0.17376702778758768,-0.03245172572357595
1728328523064587000,0.2595869140625,-0.06490986794233322,0.04089807718992233,-0.10418420284986496,0.33174949884414673,0.2485211193561554,-0.9100437164306641,-0.1089407205581665,0.04423396289348602,0.05553621053695679,0.9766909940274996,-0.12132858774258565,0.173946917036892,-0.033113659041065564
1728328523074618000,0.2696181640625,-0.06257706880569458,-0.014599859714508057,-0.03119095228612423,0.33171606063842773,0.2493341714143753,-0.9098334312438965,-0.09389260411262512,0.05684864521026611,0.059369564056396484,0.9766274812599813,-0.12170062774038169,0.17398916056300706,-0.033398124071723254
1728328523084649000,0.27964892578125,-0.08533484488725662,-0.06724629551172256,0.034492190927267075,0.3313484191894531,0.25,-0.909784734249115,-0.0756722092628479,0.06382745504379272,0.047327399253845215,0.976618368881444,-0.12206634254300176,0.17380290994509845,-0.033300791617442836
1728328523094680000,0.28968017578125,-0.1275317668914795,-0.11952371150255203,0.08734235167503357,0.3306557536125183,0.25078505277633667,-0.9098206758499146,-0.0568520724773407,0.06307294964790344,0.05519115924835205,0.9766423066253647,-0.12255579302917602,0.1734062876366748,-0.032867045797495824
1728328523104711200,0.299711181640625,-0.19112379848957062,-0.17222580313682556,0.15686523914337158,0.3296014964580536,0.25185951590538025,-0.9099063873291016,-0.043178826570510864,0.06826984882354736,0.07555580139160156,0.976691407219849,-0.12326532377213834,0.17277864349517333,-0.0320500798990458
1728328523114743300,0.309743408203125,-0.2510471045970917,-0.20455673336982727,0.22006924450397491,0.32833191752433777,0.2532762587070465,-0.9099721312522888,-0.031624794006347656,0.0765882134437561,0.09295552968978882,0.9767481841420934,-0.12422787431254799,0.17199232941653148,-0.030808202646694944
1728328523124774100,0.319774169921875,-0.28217893838882446,-0.22748282551765442,0.2483767718076706,0.3269588053226471,0.2549756169319153,-0.909991979598999,-0.02163049578666687,0.07427847385406494,0.10956162214279175,0.9767998664250959,-0.12538417644943928,0.17112225508750867,-0.029292304557075155
1728328523134805200,0.32980517578125,-0.3029464781284332,-0.24927347898483276,0.2822361886501312,0.32544589042663574,0.25680285692214966,-0.9100204706192017,-0.024756252765655518,0.06526437401771545,0.11912691593170166,0.9768561983836377,-0.12663486627726872,0.17015692360531978,-0.027606089824527592
1728328523144836000,0.339836181640625,-0.30628472566604614,-0.24529656767845154,0.33069056272506714,0.32394593954086304,0.2585962414741516,-0.9100477695465088,-0.03540229797363281,0.05268299579620361,0.11646872758865356,0.9769154692633395,-0.1279050712794415,0.16916381475423206,-0.025689154927359216
1728328523154867200,0.3498671875,-0.2865220308303833,-0.22736214101314545,0.3561277389526367,0.32266926765441895,0.2602277100086212,-0.9100363254547119,-0.03105860948562622,0.043330609798431396,0.10981959104537964,0.976965742294744,-0.12912007756856783,0.1682553081167848,-0.02358295396510048
1728328523164898000,0.35989794921875,-0.2183714658021927,-0.20776845514774323,0.3903866410255432,0.3216598927974701,0.2613678276538849,-0.9100669026374817,-0.027226358652114868,0.05287161469459534,0.10217499732971191,0.9770236516688755,-0.13008838923007807,0.1674621293078706,-0.021404733754476317
1728328523174929200,0.36992919921875,-0.1430080682039261,-0.19215556979179382,0.46030208468437195,0.32093265652656555,0.2616659700870514,-0.9102379679679871,-0.04213938117027283,0.08321309089660645,0.10085076093673706,0.9771161233324162,-0.13064501655415206,0.16677200116152008,-0.01905378946553888
1728328523184960000,0.3799599609375,-0.11655514687299728,-0.17777769267559052,0.5513255000114441,0.3205907642841339,0.2611848711967468,-0.9104965925216675,-0.07080444693565369,0.10305759310722351,0.07342994213104248,0.977231367151817,-0.13085502170024849,0.1662187503861578,-0.01634477961955504
1728328523196245200,0.391245361328125,-0.16398878395557404,-0.19245998561382294,0.6208451986312866,0.32043057680130005,0.26044806838035583,-0.9107639789581299,-0.08930575847625732,0.10155138373374939,0.05787396430969238,0.9773522313981559,-0.13106774522372044,0.16564798910408363,-0.012826500599627463
1728328523215065300,0.4100654296875,-0.4459160566329956,-0.23988981544971466,0.7494361996650696,0.3201020061969757,0.2614366114139557,-0.9105963110923767,-0.0665009617805481,0.043266087770462036,0.046231627464294434,0.9773762376426005,-0.13276407784142286,0.16454650337555765,-0.0058211824074233445
1728328523225096200,0.42009619140625,-0.6251185536384583,-0.26799148321151733,0.8448606729507446,0.31987854838371277,0.2637680768966675,-0.9100022315979004,-0.031517982482910156,0.018504232168197632,0.05814981460571289,0.977240719297153,-0.134737852109228,0.16384315946882627,-0.0012983268762179008
1728328523235127300,0.430127197265625,-0.8147420287132263,-0.31181538105010986,0.917223334312439,0.31958603858947754,0.26753857731819153,-0.9090037941932678,-0.011099159717559814,0.019235074520111084,0.05100202560424805,0.9769785840365202,-0.13755842511244704,0.16302084838105765,0.0038176192857287713
1728328523245158100,0.440158203125,-0.9445070624351501,-0.35892945528030396,0.9602496027946472,0.3190729022026062,0.27256789803504944,-0.9076889753341675,0.009402990341186523,0.042373478412628174,0.059666454792022705,0.9766046593787835,-0.14110344448461754,0.16200414916652398,0.00937219321058343
1728328523255189200,0.450189208984375,-1.0629918575286865,-0.4037240147590637,1.0180554389953613,0.3183387815952301,0.27853384613990784,-0.9061342477798462,0.03842693567276001,0.06427004933357239,0.05969870090484619,0.9761317236509505,-0.1451921148278889,0.16078592182696294,0.015297989160387396
1728328523265220000,0.46022021484375,-1.212408185005188,-0.4634978771209717,1.0784732103347778,0.31735917925834656,0.2855030596256256,-0.9043070077896118,0.07468482851982117,0.09161785244941711,0.05874115228652954,0.9755429561196216,-0.14986873891240107,0.15932941996025332,0.02166493141607457
1728328523275251200,0.470251220703125,-1.3752936124801636,-0.514188289642334,1.1142319440841675,0.3160753548145294,0.29374536871910095,-0.90211421251297,0.1024884283542633,0.11261135339736938,0.07148677110671997,0.9748070615587237,-0.1552645368492144,0.15759387352924673,0.028429255639119654
1728328523285282000,0.480281982421875,-1.5846060514450073,-0.553327739238739,1.146533489227295,0.31464841961860657,0.3035162687301636,-0.8993743658065796,0.11758720874786377,0.11256030201911926,0.09041440486907959,0.9738709645852534,-0.1615085603849898,0.1556528579717227,0.0355300637275967
1728328523295313200,0.490313232421875,-1.9017077684402466,-0.6205700635910034,1.2181259393692017,0.3130287528038025,0.31545576453208923,-0.8958240151405334,0.12450170516967773,0.08531630039215088,0.12752872705459595,0.9726520393253574,-0.1689656455397419,0.1534229534660936,0.04312848180091977
1728328523305344000,0.500343994140625,-2.244997978210449,-0.7010180354118347,1.2841097116470337,0.31117117404937744,0.33015260100364685,-0.8911631107330322,0.14033636450767517,0.04207026958465576,0.17543435096740723,0.9710513945025231,-0.1779779394723121,0.1508054591765175,0.051386893759869455
1728328523315376400,0.51037646484375,-2.5908796787261963,-0.7850160002708435,1.312246322631836,0.3089766800403595,0.3476659059524536,-0.885246753692627,0.15318146347999573,-0.013895183801651001,0.20052385330200195,0.9690199201345654,-0.18856667525965282,0.1477133495183039,0.06019707646697904
1728328523325407200,0.5204072265625,-2.960806131362915,-0.8899128437042236,1.320381999015808,0.3062816858291626,0.3681870698928833,-0.8778552412986755,0.15612056851387024,-0.061348140239715576,0.22509950399398804,0.9664923041720435,-0.2008218100748406,0.14402427060331816,0.0694271840788264
1728328523335438300,0.530438232421875,-3.2539310455322266,-0.9744179248809814,1.3391727209091187,0.30317649245262146,0.3914310932159424,-0.8688300848007202,0.15965300798416138,-0.08265429735183716,0.2673743963241577,0.963412916768434,-0.21461498559122164,0.13973321881503253,0.07905998638550155
1728328523345469200,0.54046923828125,-3.4404709339141846,-1.0377641916275024,1.3220610618591309,0.2998320162296295,0.41645845770835876,-0.8582907915115356,0.1641571819782257,-0.09317055344581604,0.30282509326934814,0.9598118060984309,-0.22944885010273977,0.13493637347958684,0.08891954464251318
1728328523355500300,0.550500244140625,-3.607417345046997,-1.040086030960083,1.2806262969970703,0.2964071035385132,0.4427299499511719,-0.8462464213371277,0.15140777826309204,-0.09751516580581665,0.3050019145011902,0.9557111589569549,-0.24502354660258527,0.12976998272633616,0.09868817507577538
1728328523365531100,0.56053125,-3.810382604598999,-1.112804889678955,1.3486546277999878,0.2933470904827118,0.4700629413127899,-0.8324592113494873,0.12317201495170593,-0.09047010540962219,0.31633061170578003,0.9510055221094007,-0.2613550936615146,0.1243540052756433,0.10871112574803908
1728328523375562200,0.570562255859375,-4.03288459777832,-1.1468045711517334,1.450868010520935,0.29082581400871277,0.49838897585868835,-0.8167182803153992,0.14792537689208984,-0.06267431378364563,0.31540602445602417,0.9455822349864106,-0.27850459327974586,0.11864251530748951,0.11930378216155536
1728328523385593000,0.580593017578125,-4.209117889404297,-1.200629472732544,1.5101643800735474,0.28894561529159546,0.5275118350982666,-0.798900306224823,0.14998868107795715,-0.05113250017166138,0.2735249400138855,0.9393850821047254,-0.296412840795459,0.1126466504091572,0.13040669505009345
1728328523395624200,0.590624267578125,-4.390030860900879,-1.2534164190292358,1.4828523397445679,0.28743308782577515,0.557162344455719,-0.7790714502334595,0.12017488479614258,-0.07272636890411377,0.2302127480506897,0.9324463421625953,-0.31491365710977665,0.10627171242755187,0.14170195765191468
1728328523405655000,0.600655029296875,-4.628687858581543,-1.2748236656188965,1.486816167831421,0.28628212213516235,0.587600588798523,-0.7568144202232361,0.08169877529144287,-0.11003106832504272,0.18245834112167358,0.9246666696055932,-0.33419935775151616,0.09951669521356034,0.15296643770097823
1728328523415686100,0.61068603515625,-4.868512153625488,-1.363529086112976,1.505483627319336,0.2854781448841095,0.6188376545906067,-0.7318074703216553,0.08279266953468323,-0.1365531086921692,0.13470053672790527,0.9158994595740132,-0.35438673699035533,0.09222964558182932,0.16441358620671515
1728328523425717000,0.620717041015625,-4.985820770263672,-1.4811744689941406,1.5058354139328003,0.28486204147338867,0.6500913500785828,-0.7044394016265869,0.10190242528915405,-0.16470932960510254,0.12784028053283691,0.9062050517614821,-0.3750682019920344,0.08428613377288649,0.17610263475922672
1728328523435748000,0.630748046875,-4.958744525909424,-1.6102324724197388,1.4162733554840088,0.2839820981025696,0.6804177761077881,-0.6755632758140564,0.12220680713653564,-0.17031651735305786,0.09916245937347412,0.8958480723391441,-0.3956039180845808,0.07560356186473342,0.18771742323429874
1728328523445779200,0.640779296875,-4.7632365226745605,-1.7658649682998657,1.3024072647094727,0.2822243869304657,0.7088577151298523,-0.6464287638664246,0.12869474291801453,-0.10663914680480957,0.06754076480865479,0.8852322102835612,-0.4152322141093558,0.06608961607977654,0.19894300124644845
1728328523455810000,0.65081005859375,-4.457845211029053,-1.8738194704055786,1.272213101387024,0.279945969581604,0.7345521450042725,-0.6181126832962036,0.13729023933410645,0.011327862739562988,0.03806507587432861,0.8746419476048495,-0.43336332022077023,0.05603477272366138,0.20989923049329232
1728328523465841400,0.66084130859375,-4.073985576629639,-1.8848764896392822,1.3244582414627075,0.278207004070282,0.7567905187606812,-0.5914971828460693,0.15274691581726074,0.12603718042373657,-0.01076728105545044,0.8642795571493584,-0.4495875249604557,0.04607020283956814,0.2208379132058035
1728328523475870700,0.67087060546875,-3.7557435035705566,-1.846072793006897,1.3729112148284912,0.27776601910591125,0.7757793068885803,-0.5665796995162964,0.14346802234649658,0.1794666051864624,-0.06508845090866089,0.8541574272691311,-0.46407345363468394,0.03668777550365286,0.23174320511714178
1728328523485901600,0.680901611328125,-3.574106216430664,-1.8217893838882446,1.367039680480957,0.2784087061882019,0.7922557592391968,-0.5429726839065552,0.10728764533996582,0.16395145654678345,-0.10865390300750732,0.8442001870835539,-0.47722174369150777,0.027803962790554346,0.2425125078200034
1728328523495932700,0.6909326171875,-3.6083850860595703,-1.88815438747406,1.2673884630203247,0.2791665494441986,0.8076552748680115,-0.5193831920623779,0.07526454329490662,0.10752105712890625,-0.16469889879226685,0.834083057478926,-0.4898528390245659,0.018777706012507174,0.2529762062562357
1728328523505963500,0.700963623046875,-3.707279682159424,-2.0234055519104004,1.14421808719635,0.279102623462677,0.8228914141654968,-0.49492567777633667,0.05242505669593811,0.032134830951690674,-0.1634911298751831,0.8235490659232125,-0.5024515320005538,0.008923024756472525,0.26311544396936815
1728328523515994600,0.71099462890625,-3.7084310054779053,-2.15500545501709,1.0108994245529175,0.277966171503067,0.8378671407699585,-0.4698014557361603,0.04912117123603821,-0.03017371892929077,-0.18097063899040222,0.8126535801178916,-0.514874407590993,-0.0019016388702535287,0.272937343673922
1728328523526025500,0.721025390625,-3.5492453575134277,-2.2800350189208984,0.8892212510108948,0.27583491802215576,0.8519392609596252,-0.4451006352901459,0.04441648721694946,-0.049342215061187744,-0.2090131640434265,0.8017334370972762,-0.526562453703514,-0.01347847790423774,0.2824424810868025
1728328523536056600,0.731056640625,-3.2648892402648926,-2.3771133422851562,0.8083940148353577,0.27300217747688293,0.8644413948059082,-0.4221500754356384,0.0341876745223999,0.008941054344177246,-0.23980674147605896,0.7911838071579912,-0.5369149141744332,-0.025442942627340138,0.2917242970061546
1728328523546087400,0.74108740234375,-2.8513851165771484,-2.35896635055542,0.7542967200279236,0.2699934244155884,0.8750004172325134,-0.4018431305885315,0.025492995977401733,0.12281757593154907,-0.2740297317504883,0.781324765215874,-0.5456110925656843,-0.03724215081924131,0.3007543724308416
1728328523556118500,0.751118408203125,-2.3830926418304443,-2.304105520248413,0.7456142902374268,0.2673851549625397,0.8833013772964478,-0.38507652282714844,0.005075722932815552,0.20806825160980225,-0.29377180337905884,0.77248165785958,-0.5523871411951224,-0.04827196882563242,0.30953251816999844
1728328523566149400,0.7611494140625,-2.0054149627685547,-2.251986265182495,0.7330963611602783,0.26532891392707825,0.8896229863166809,-0.371714323759079,-0.010675013065338135,0.2319590449333191,-0.3317158818244934,0.7646211800937032,-0.5574307246777852,-0.05842798928110971,0.3181377000605116
1728328523576180500,0.771180419921875,-1.7976503372192383,-2.265209436416626,0.6954983472824097,0.2634906768798828,0.8946473002433777,-0.3608029782772064,-0.0318470299243927,0.19257187843322754,-0.34061306715011597,0.7574507281288502,-0.5612188486142112,-0.0680581690602022,0.3266035149587364
1728328523586211300,0.78121142578125,-1.8308717012405396,-2.305342674255371,0.6412811875343323,0.2613913118839264,0.899325430393219,-0.3505544066429138,-0.049172163009643555,0.11700141429901123,-0.31956589221954346,0.7504093121898198,-0.5645119299493745,-0.07777581876324255,0.3349076311946625
1728328523596242400,0.791242431640625,-1.9374492168426514,-2.381873846054077,0.5860435366630554,0.2588360905647278,0.9042540192604065,-0.3396005630493164,-0.05261361598968506,0.06925666332244873,-0.2920217514038086,0.7430297915688787,-0.567848620562638,-0.08802078865477256,0.34308459597331836
1728328523606273500,0.8012734375,-1.9611657857894897,-2.426670551300049,0.5095136165618896,0.2557823657989502,0.9093896150588989,-0.3280029594898224,-0.05381712317466736,0.057880282402038574,-0.288848876953125,0.7353598102474839,-0.5711772539099128,-0.09876771851520817,0.351066143602436
1728328523616304400,0.811304443359375,-1.8551589250564575,-2.4450995922088623,0.4457833170890808,0.2522714138031006,0.914375364780426,-0.31666508316993713,-0.06219276785850525,0.0826948881149292,-0.29670771956443787,0.7277240045597169,-0.5741266030895141,-0.10975475557383141,0.35881786860231774
1728328523626336500,0.82133642578125,-1.5533415079116821,-2.4447734355926514,0.37742024660110474,0.24844767153263092,0.9187189936637878,-0.30696794390678406,-0.064625084400177,0.14858752489089966,-0.31955796480178833,0.720590177630803,-0.5761777620406191,-0.12056207053212402,0.3663794334511804
1728328523636367600,0.83136767578125,-1.0974162817001343,-2.463618755340576,0.2888259291648865,0.24403806030750275,0.9219461679458618,-0.3007670044898987,-0.05994082987308502,0.22443139553070068,-0.3520345687866211,0.7145878082131172,-0.5766135179105722,-0.13089444434515823,0.3738285694942116
1728328523646398500,0.8413984375,-0.6724362373352051,-2.4780211448669434,0.23535366356372833,0.23903077840805054,0.9239427447319031,-0.29865387082099915,-0.057008758187294006,0.2579877972602844,-0.31206393241882324,0.7098767345590263,-0.5752354363714509,-0.1406316437884979,0.38131607326572503
1728328523656429600,0.8514296875,-0.3466145098209381,-2.435818672180176,0.18104808032512665,0.23361171782016754,0.9249470233917236,-0.2998307943344116,-0.03918428719043732,0.2897745966911316,-0.25368183851242065,0.7062341833947322,-0.572422538702399,-0.14972322121076348,0.3887783893581896
1728328523666460400,0.86146044921875,-0.10201195627450943,-2.4159982204437256,0.07086191326379776,0.22750522196292877,0.9253005385398865,-0.30341437458992004,-0.024487078189849854,0.301521360874176,-0.23618221282958984,0.7034767792627873,-0.5685243868772104,-0.15834405582162203,0.39601463286340033
1728328523676491500,0.871491455078125,0.024209825322031975,-2.4294164180755615,-0.05647020787000656,0.220143124461174,0.9253665804862976,-0.3085995614528656,-0.0261581689119339,0.2781856656074524,-0.2316684126853943,0.7014054228293173,-0.5637731587785075,-0.16691328081577464,0.4029021962299203
1728328523686522400,0.8815224609375,0.026201337575912476,-2.4484500885009766,-0.150816410779953,0.21157321333885193,0.9254962205886841,-0.31415513157844543,-0.027994796633720398,0.23179131746292114,-0.19969987869262695,0.6995999955078526,-0.5586119482170343,-0.175713178617876,0.4094354668319685
1728328523696553500,0.891553466796875,0.028755972161889076,-2.4482316970825195,-0.23298504948616028,0.20205016434192657,0.9257957339286804,-0.3194962441921234,-0.020791098475456238,0.1832892894744873,-0.1651076376438141,0.6978541474051432,-0.5532781567980489,-0.1847570125471626,0.4156291522130145
1728328523706584600,0.90158447265625,0.034590695053339005,-2.4562346935272217,-0.3133121430873871,0.1916103959083557,0.926217794418335,-0.32466307282447815,-0.025564298033714294,0.12694388628005981,-0.16460999846458435,0.6961941585229581,-0.5477523324654967,-0.19399958730497432,0.42147985815577943
1728328523716615400,0.911615478515625,-0.003050159430131316,-2.452037811279297,-0.3776317238807678,0.18036186695098877,0.9267805814743042,-0.3294650912284851,-0.028353869915008545,0.08278661966323853,-0.1378200650215149,0.6945484308367781,-0.5421051297237554,-0.20344404180538517,0.42700697964366424
1728328523726646500,0.921646484375,-0.0849442258477211,-2.443913221359253,-0.4428621232509613,0.1684420108795166,0.9276378750801086,-0.3333393335342407,-0.024246543645858765,0.08166992664337158,-0.09285387396812439,0.6927471805652069,-0.5365582570537553,-0.21315620668398064,0.4321699675886419
1728328523736677400,0.931677490234375,-0.09695934504270554,-2.426262617111206,-0.5102778673171997,0.15584152936935425,0.9287256002426147,-0.33642569184303284,-0.02276967465877533,0.09870964288711548,-0.04241955280303955,0.6908668307853013,-0.5310575285822693,-0.2230808206221912,0.43693930383052954
1728328523746708500,0.94170849609375,-0.035033389925956726,-2.4342992305755615,-0.5836727619171143,0.1425337940454483,0.9297624230384827,-0.3394497036933899,-0.026841670274734497,0.10667562484741211,-0.026120394468307495,0.6891115268000766,-0.5253104480466126,-0.23307525533736734,0.441418487596752
1728328523756739600,0.951739501953125,0.061441078782081604,-2.4358327388763428,-0.6686214804649353,0.1283961981534958,0.9305534362792969,-0.34290605783462524,-0.027276262640953064,0.12117373943328857,-0.022068887948989868,0.6876237214709041,-0.5190934574140083,-0.24308219826214644,0.44567540502578296
1728328523766770700,0.961770751953125,0.13102681934833527,-2.428086042404175,-0.7376950979232788,0.11343120783567429,0.93105548620224,-0.3467983603477478,-0.026791848242282867,0.12889635562896729,0.006618887186050415,0.6864319165149877,-0.5124105643549939,-0.253053819488498,0.449678127028399
1728328523776801500,0.971801513671875,0.21379706263542175,-2.4243979454040527,-0.7977935671806335,0.0977875292301178,0.9312664270401001,-0.3509705662727356,-0.01703806221485138,0.14720946550369263,0.027301132678985596,0.6854689743311656,-0.5053375318504281,-0.2629614040871967,0.45345068280662004
1728328523786832600,0.98183251953125,0.35495418310165405,-2.4166669845581055,-0.8531268835067749,0.0815349817276001,0.9309979677200317,-0.3558015525341034,-0.004371337592601776,0.170823872089386,0.021710366010665894,0.6848079022686129,-0.4977309163433771,-0.27269609190802374,0.4570982454121942
1728328523796863500,0.991863525390625,0.5072645545005798,-2.422828197479248,-0.9124155044555664,0.06462597846984863,0.9300826191902161,-0.3616211414337158,0.006373099982738495,0.17811745405197144,0.0010406970977783203,0.6845428301917001,-0.4894549857371463,-0.2821759105153942,0.46066440000325426
1728328523806894600,1.00189453125,0.6336895823478699,-2.4285101890563965,-0.9592415690422058,0.04700808972120285,0.9284805655479431,-0.3683939278125763,0.015858076512813568,0.1625075340270996,0.0033731460571289062,0.6846322328221435,-0.48048194576123815,-0.29144491112851456,0.46419355944833945
1728328523816925400,1.011925537109375,0.6444439888000488,-2.43449330329895,-1.0027928352355957,0.02885507419705391,0.9264219403266907,-0.37537941336631775,0.027480313554406166,0.14585888385772705,0.051679521799087524,0.6848624963466009,-0.47111684715092367,-0.3005980745899292,0.4676034958642845
1728328523826956500,1.02195654296875,0.6165574789047241,-2.438282012939453,-1.0699864625930786,0.010014655068516731,0.9242081642150879,-0.38175782561302185,0.03559380769729614,0.1606459617614746,0.09417539834976196,0.6850438684468381,-0.4616130024819143,-0.30989437163568995,0.47073753424714465
1728328523836987400,1.0319873046875,0.6421467065811157,-2.4084887504577637,-1.1169047355651855,-0.009465132839977741,0.9217808246612549,-0.3875957429409027,0.035466063767671585,0.16891735792160034,0.11254078149795532,0.6852505621824972,-0.451982405463764,-0.31923977204305803,0.473528757088489
1728328523847018500,1.0420185546875,0.7346845865249634,-2.389975070953369,-1.146385669708252,-0.029314372688531876,0.9188464283943176,-0.3935248553752899,0.03714209794998169,0.1507183313369751,0.09898445010185242,0.6855981107281492,-0.44204555029723985,-0.3283798126711762,0.4761486521033168
1728328523857049300,1.05204931640625,0.837274432182312,-2.362443447113037,-1.1504576206207275,-0.04927113279700279,0.9152262806892395,-0.39991647005081177,0.046570271253585815,0.131786048412323,0.07780343294143677,0.686122735362889,-0.4317181961048731,-0.33713670806064405,0.4787419102578033
1728328523867080400,1.06208056640625,0.879708468914032,-2.355761766433716,-1.1642557382583618,-0.06931779533624649,0.9110042452812195,-0.4065297245979309,0.05582898110151291,0.11723983287811279,0.06487011909484863,0.6867326751437595,-0.42107370115788106,-0.34558945895851323,0.48131402260920725
1728328523877111600,1.072111572265625,0.8642939925193787,-2.3417587280273438,-1.211773157119751,-0.08970462530851364,0.906421422958374,-0.41273877024650574,0.06654174625873566,0.1103631854057312,0.08945077657699585,0.6873169058482043,-0.4102730937531941,-0.3539867243450406,0.48369915302889377
1728328523887142400,1.082142333984375,0.8480764031410217,-2.301713466644287,-1.2531203031539917,-0.11050954461097717,0.901588499546051,-0.4182414710521698,0.07311020791530609,0.0976485013961792,0.12324327230453491,0.6878875044534136,-0.3994480661651016,-0.36238171665580826,0.48572792952914967
1728328523897173500,1.092173583984375,0.8382325172424316,-2.231154203414917,-1.2560367584228516,-0.13135236501693726,0.8964985609054565,-0.42312735319137573,0.08258523046970367,0.07009989023208618,0.14358633756637573,0.6884464417077194,-0.3886960154654235,-0.3706099372267593,0.48744752319169765
1728328523907204400,1.102204345703125,0.8417385816574097,-2.1933579444885254,-1.2357983589172363,-0.15186966955661774,0.8911277651786804,-0.42758235335350037,0.09091077744960785,0.06358402967453003,0.15112367272377014,0.6889597969703872,-0.37804220696521945,-0.3785404960956556,0.48900452161530894
1728328523917235700,1.112235595703125,0.8855271935462952,-2.134242534637451,-1.2532262802124023,-0.17220503091812134,0.8854011297225952,-0.43175265192985535,0.09812359511852264,0.08286058902740479,0.14642852544784546,0.6894588791321777,-0.3673769262540045,-0.38620961533029163,0.49043126245137486
1728328523927266600,1.1222666015625,0.9885912537574768,-2.103862762451172,-1.2913068532943726,-0.1925983428955078,0.8789895176887512,-0.4362148642539978,0.09474371373653412,0.09240025281906128,0.1321529746055603,0.6901602042324061,-0.3564504827247519,-0.3934915762040276,0.49171781227147093
1728328523937297700,1.132297607421875,1.0375921726226807,-2.1088080406188965,-1.315854549407959,-0.21326224505901337,0.871857762336731,-0.4408891797065735,0.09966053068637848,0.10789382457733154,0.12002736330032349,0.6909776760474958,-0.34513949779963743,-0.40054230053436585,0.49294463891799867
1728328523947328500,1.14232861328125,1.0787571668624878,-2.0991926193237305,-1.3302772045135498,-0.2340732216835022,0.8642124533653259,-0.44536104798316956,0.11787751317024231,0.1451411247253418,0.14459508657455444,0.6917725932898221,-0.33360786985567675,-0.4074619745009074,0.4940962957199838
1728328523957360400,1.1523603515625,1.1564234495162964,-2.0735175609588623,-1.359357237815857,-0.25500109791755676,0.8559034466743469,-0.4498930275440216,0.12942126393318176,0.16239184141159058,0.1616087555885315,0.6926400792361898,-0.3217915916640046,-0.4141300008195334,0.495172917584125
1728328523967391500,1.1623916015625,1.2059118747711182,-2.0735647678375244,-1.3665337562561035,-0.2759617269039154,0.8469352722167969,-0.45447298884391785,0.1323154866695404,0.15251529216766357,0.14426180720329285,0.6935570664690776,-0.30971054082445976,-0.42052692249584983,0.49620059056835175
1728328523977422600,1.172422607421875,1.227146029472351,-2.142777681350708,-1.4086337089538574,-0.29726406931877136,0.8373826742172241,-0.45872023701667786,0.14438626170158386,0.1503491997718811,0.13244161009788513,0.6943765717904347,-0.29728883279067675,-0.4269182937857479,0.4971933240152716
1728328523987453400,1.182453369140625,1.1449213027954102,-2.1404976844787598,-1.4205620288848877,-0.3189665675163269,0.827520489692688,-0.46202826499938965,0.1574065089225769,0.14093953371047974,0.16126230359077454,0.6950047902407196,-0.2847361507594007,-0.433487252532484,0.4979783248635367
1728328523997484500,1.192484619140625,0.9850718379020691,-2.11063289642334,-1.4432815313339233,-0.3405434191226959,0.8178950548171997,-0.46376463770866394,0.1681496500968933,0.14314913749694824,0.20578435063362122,0.6953952405047591,-0.2726299157537773,-0.44021654801279086,0.4983047439205744
1728328524007515400,1.202515380859375,0.9435781836509705,-2.0976860523223877,-1.5200409889221191,-0.36237168312072754,0.8082674145698547,-0.46410179138183594,0.16431260108947754,0.171758770942688,0.19560816884040833,0.6956724974888158,-0.2607720796493249,-0.4471543674120642,0.4980869080308371
1728328524017546500,1.21254638671875,0.9996184706687927,-2.0768797397613525,-1.573614478111267,-0.3845047056674957,0.797995388507843,-0.4640684425830841,0.15229642391204834,0.17231100797653198,0.175265371799469,0.6960518516379274,-0.24871766767535347,-0.453988220009085,0.4975399987789317
1728328524027577300,1.222577392578125,1.1105176210403442,-2.0550425052642822,-1.5665371417999268,-0.40658241510391235,0.7869031429290771,-0.46419206261634827,0.15584996342658997,0.17838305234909058,0.15160053968429565,0.6964896011562642,-0.23630965403625637,-0.46050159721535117,0.4969893052887944
1728328524037608700,1.232608642578125,1.2903084754943848,-2.0684847831726074,-1.552855372428894,-0.428320974111557,0.7748648524284363,-0.46489307284355164,0.165839284658432,0.20331501960754395,0.11442923545837402,0.6969405027798902,-0.22341805157103933,-0.46651670837566295,0.49670964607766
1728328524047639600,1.2426396484375,1.4806302785873413,-2.0605084896087646,-1.5707228183746338,-0.4499305486679077,0.7615556716918945,-0.46647143363952637,0.16610181331634521,0.22666454315185547,0.08626818656921387,0.6974461731881471,-0.20976954870415845,-0.47197565682038845,0.4967943972777852
1728328524057670700,1.252670654296875,1.587352991104126,-2.052826166152954,-1.6125611066818237,-0.4715338349342346,0.7470508813858032,-0.46858376264572144,0.15878969430923462,0.2423136830329895,0.08056801557540894,0.6980600747415289,-0.195519319481296,-0.4769489648479679,0.4969949229215828
1728328524067701500,1.262701416015625,1.6392817497253418,-2.0483853816986084,-1.6577978134155273,-0.49327269196510315,0.73157799243927,-0.4706118404865265,0.15518373250961304,0.23441004753112793,0.07659944891929626,0.6987086037219735,-0.18084461500123744,-0.48165267722688576,0.49710364917927263
1728328524077732600,1.272732666015625,1.5789812803268433,-2.0288443565368652,-1.707157015800476,-0.5151001214981079,0.7154446244239807,-0.4720284640789032,0.16367489099502563,0.1942386031150818,0.10409325361251831,0.6993550140975199,-0.16602453881429247,-0.4862320716970748,0.4969071967689386
1728328524087763500,1.282763427734375,1.39264714717865,-2.0023162364959717,-1.7393368482589722,-0.5368457436561584,0.699338436126709,-0.4719347357749939,0.17237430810928345,0.15785455703735352,0.1458544135093689,0.6998792861740707,-0.151577278957447,-0.490975525557115,0.49612128180414056
1728328524097794600,1.292794677734375,1.1997936964035034,-1.9377973079681396,-1.7667157649993896,-0.5582688450813293,0.6836639642715454,-0.47004207968711853,0.16439372301101685,0.1505645513534546,0.16765868663787842,0.7002694972473394,-0.13783348885795263,-0.4959645992878213,0.4946146999661856
1728328524107825400,1.302825439453125,1.1290271282196045,-1.8102103471755981,-1.8041003942489624,-0.5791523456573486,0.66811203956604,-0.4671283960342407,0.14168286323547363,0.16341561079025269,0.16030466556549072,0.7007395771929696,-0.12470376801496887,-0.5008839855125896,0.4924716196181459
1728328524117856500,1.3128564453125,1.2081176042556763,-1.7532997131347656,-1.8193703889846802,-0.5993674993515015,0.6520940661430359,-0.46425434947013855,0.10954505205154419,0.1658991575241089,0.08873552083969116,0.7013824838007144,-0.11174442098965583,-0.5053573093408223,0.4900917326889434
1728328524127887400,1.322887451171875,1.4631885290145874,-1.7409131526947021,-1.8233734369277954,-0.6191717386245728,0.6348919868469238,-0.4621022939682007,0.08729612827301025,0.1701769232749939,0.015447020530700684,0.7020774851263465,-0.09820864640862183,-0.5092189227505329,0.4879942818067756
1728328524137918500,1.33291845703125,1.7542517185211182,-1.757399082183838,-1.821008563041687,-0.6386216878890991,0.6160183548927307,-0.46117645502090454,0.08245408535003662,0.1937350034713745,-0.004781186580657959,0.7027701858377485,-0.08364266849443576,-0.512265246281787,0.4865206442904753
1728328524147949600,1.342949462890625,2.034691095352173,-1.7098544836044312,-1.8489691019058228,-0.6577409505844116,0.5954605340957642,-0.46130651235580444,0.07351243495941162,0.25980985164642334,-0.0019655823707580566,0.7034460520482424,-0.06806841778989633,-0.5145030962060461,0.4856099134109101
1728328524157980400,1.35298046875,2.3611268997192383,-1.683733344078064,-1.9863336086273193,-0.6767470836639404,0.5725363492965698,-0.46283411979675293,0.05382227897644043,0.3601265549659729,0.03366541862487793,0.7043600339071336,-0.05127123926809866,-0.5157074784973453,0.4850710503016514
1728328524168011500,1.363011474609375,2.6892874240875244,-1.618950605392456,-2.1324374675750732,-0.6960160732269287,0.5465981364250183,-0.46560925245285034,0.017000019550323486,0.4142324924468994,0.033297330141067505,0.705626905552765,-0.03299874176854087,-0.515855066592404,0.48465991849651047
1728328524178042400,1.37304248046875,2.997589588165283,-1.5548242330551147,-2.1431288719177246,-0.7149003148078918,0.5180567502975464,-0.4696112275123596,0.010386824607849121,0.3900090456008911,0.06441408395767212,0.707071372211391,-0.013506110692134836,-0.514793135800277,0.4846191239003092
1728328524188073500,1.383073486328125,3.1335949897766113,-1.5183935165405273,-2.0878212451934814,-0.732810914516449,0.4881647229194641,-0.47400790452957153,0.0377730131149292,0.3352300524711609,0.08074313402175903,0.7083168127199982,0.006572630351315531,-0.5127892789362866,0.4850683904619524
1728328524198104600,1.3931044921875,3.163080930709839,-1.5063161849975586,-2.0728936195373535,-0.7498624920845032,0.45770519971847534,-0.47771573066711426,0.0562436580657959,0.30102285742759705,0.11818808317184448,0.709221273575162,0.026772433567498106,-0.5103188864653775,0.48565747134053333
1728328524208135700,1.4031357421875,3.1531052589416504,-1.495832920074463,-2.0957746505737305,-0.7663126587867737,0.42669564485549927,-0.4803079664707184,0.04773050546646118,0.27786365151405334,0.13355201482772827,0.7098734674765846,0.04698870637090712,-0.507580607178423,0.4860387846292757
1728328524218166500,1.41316650390625,3.1321985721588135,-1.4647763967514038,-2.0927302837371826,-0.7820958495140076,0.39524009823799133,-0.4817793667316437,0.02583974599838257,0.23450538516044617,0.11807090044021606,0.7103284452906669,0.06711565593754197,-0.5045847789365032,0.48613081861625457
1728328524228197600,1.42319775390625,3.0284807682037354,-1.5004398822784424,-2.071340799331665,-0.7971628904342651,0.3638615608215332,-0.48180508613586426,0.011609911918640137,0.2016291320323944,0.09243130683898926,0.7104696965486205,0.0869607194629473,-0.501532939661552,0.48593764683685214
1728328524238228500,1.433228515625,2.8678653240203857,-1.5047515630722046,-2.085707187652588,-0.8116775155067444,0.33291828632354736,-0.47994285821914673,-0.0036606192588806152,0.20728862285614014,0.09934288263320923,0.7103119996734542,0.10632698289781309,-0.49872150687250655,0.48520963255020666
1728328524248259600,1.443259521484375,2.8235883712768555,-1.4593102931976318,-2.141655683517456,-0.8255179524421692,0.3019894063472748,-0.4767835736274719,-0.030576467514038086,0.2198001742362976,0.13477307558059692,0.7100897721875152,0.1252945805552262,-0.49589260428880366,0.48390538745106493
1728328524258290400,1.45329052734375,2.8039610385894775,-1.347747802734375,-2.1561777591705322,-0.838382363319397,0.27065926790237427,-0.4731370806694031,-0.05958211421966553,0.21138110756874084,0.13834398984909058,0.7099093681804403,0.1440425261891053,-0.4926288754321817,0.4822834752184378
1728328524268322600,1.463322509765625,2.8284270763397217,-1.2508432865142822,-2.1114134788513184,-0.8499805927276611,0.23930634558200836,-0.4693244695663452,-0.06408190727233887,0.20457179844379425,0.14069592952728271,0.7097131151431054,0.16242549058930186,-0.48883097746211274,0.4805928513742928
1728328524278353400,1.473353515625,2.9377553462982178,-1.2246955633163452,-2.047823190689087,-0.8604079484939575,0.20801059901714325,-0.46522003412246704,-0.049397289752960205,0.20997340977191925,0.13810211420059204,0.7092158534280759,0.18070617980847226,-0.48449485093310296,0.47918979108552096
1728328524288384500,1.483384521484375,3.072991371154785,-1.15316641330719,-2.0256567001342773,-0.869868814945221,0.17642003297805786,-0.46065640449523926,-0.03364986181259155,0.23723050951957703,0.13323330879211426,0.7083527678810742,0.19915909468214602,-0.47959091679377464,0.4780843457901875
1728328524298415400,1.493415283203125,3.227414608001709,-1.1413891315460205,-2.029844045639038,-0.8784093856811523,0.14414939284324646,-0.4556508958339691,-0.03835386037826538,0.28770482540130615,0.1382986307144165,0.7071790398000366,0.2179372947087013,-0.4740019945317058,0.47720344835602285
1728328524308446500,1.503446533203125,3.3996942043304443,-1.0888625383377075,-2.006448984146118,-0.886053740978241,0.11126285046339035,-0.450032502412796,-0.03861355781555176,0.33583492040634155,0.12544751167297363,0.7055789469677223,0.23710752193653098,-0.4677218986030246,0.476628312833569
1728328524318477300,1.513477294921875,3.476685047149658,-1.020688533782959,-1.9989372491836548,-0.8926873207092285,0.07796289771795273,-0.44388192892074585,-0.010205745697021484,0.35149574279785156,0.13972854614257812,0.7036302066006838,0.2564716419308123,-0.46073997652117554,0.47628305106459295
1728328524328508700,1.5235087890625,3.3742623329162598,-0.9573383331298828,-1.9788618087768555,-0.8982808589935303,0.04496091976761818,-0.43711546063423157,0.011989414691925049,0.3151617646217346,0.16299134492874146,0.7015255108339874,0.2754774761451428,-0.4533811101254403,0.4758357418452461
1728328524338539500,1.53353955078125,3.2433767318725586,-0.9114019870758057,-1.9653502702713013,-0.9029024243354797,0.012802801094949245,-0.42965489625930786,0.028100788593292236,0.24761897325515747,0.18784886598587036,0.6993975144397114,0.29375461143661635,-0.44596051831626343,0.4750479852937523
1728328524348570600,1.543570556640625,3.0910706520080566,-0.8498326539993286,-1.9227572679519653,-0.9065943956375122,-0.018366051837801933,-0.42160338163375854,0.026085972785949707,0.15865537524223328,0.19314879179000854,0.6972668309408505,0.3112533792957844,-0.4385426420249479,0.47394166764945267
1728328524358601500,1.5536015625,2.8687920570373535,-0.796739399433136,-1.8359829187393188,-0.9094399213790894,-0.04793424531817436,-0.4130634069442749,0.012787699699401855,0.09805937856435776,0.19998973608016968,0.6951373549179388,0.32771956291175514,-0.43135621298333887,0.4725630021839297
1728328524368632600,1.563632568359375,2.716768503189087,-0.6303014159202576,-1.7316099405288696,-0.9112722277641296,-0.07558093219995499,-0.40480905771255493,-0.009931325912475586,0.10487783700227737,0.21747690439224243,0.6931335816978171,0.34290924235018216,-0.4242743473754258,0.4711372424414983
1728328524378663400,1.573663330078125,2.710184097290039,-0.5776349306106567,-1.6625381708145142,-0.912158727645874,-0.10185763239860535,-0.3969777226448059,-0.034160733222961426,0.15143346786499023,0.19682824611663818,0.6911166223473849,0.3572414253737701,-0.4170008433650786,0.46994310822644386
1728328524388694500,1.583694580078125,2.7986578941345215,-0.5066324472427368,-1.6525614261627197,-0.9123960733413696,-0.12780150771141052,-0.3888445496559143,-0.034762680530548096,0.2304321676492691,0.1344042718410492,0.6888460301160525,0.37146202703170755,-0.4093820818324728,0.46894917957985677
1728328524398725600,1.5937255859375,2.9193503856658936,-0.5364100933074951,-1.6352483034133911,-0.9120751619338989,-0.15381114184856415,-0.38008037209510803,-0.011569857597351074,0.28123733401298523,0.10153120756149292,0.6862288983589186,0.38585012598561264,-0.40134709065653773,0.46811335649635005
1728328524408756500,1.603756591796875,2.9651472568511963,-0.56966632604599,-1.5900368690490723,-0.9114682674407959,-0.17957888543605804,-0.37010428309440613,0.019622445106506348,0.26254093647003174,0.05028006434440613,0.6830724552328868,0.4004709981558027,-0.39315497630221263,0.4674016096186508
1728328524418787600,1.61378759765625,2.819955587387085,-0.579612672328949,-1.5589932203292847,-0.9105809926986694,-0.20446641743183136,-0.3592154383659363,0.03408569097518921,0.20469534397125244,0.05851048231124878,0.6796725852736428,0.4147879417070985,-0.38515353696520216,0.4665328636221006
1728328524428818400,1.623818359375,2.481072187423706,-0.4953962564468384,-1.5624563694000244,-0.9091442823410034,-0.2280643880367279,-0.34848731756210327,0.0011852383613586426,0.1428745687007904,0.11963602900505066,0.6766348195650208,0.42807094022990083,-0.3775070955449172,0.46519789462592925
1728328524438849500,1.633849609375,2.0143890380859375,-0.3959589898586273,-1.550089716911316,-0.9069662690162659,-0.24987708032131195,-0.3390776515007019,-0.051911234855651855,0.07028117775917053,0.1585661768913269,0.6745199200987682,0.4396019657010186,-0.37042041918801283,0.46320810699826087
1728328524448880400,1.64388037109375,1.5516003370285034,-0.32957276701927185,-1.5255215167999268,-0.9041891098022461,-0.26969343423843384,-0.3312210440635681,-0.08390897512435913,0.020334362983703613,0.193876713514328,0.6734403848984694,0.44923368165125543,-0.3641134080853636,0.46053065540930194
1728328524458911500,1.653911376953125,1.1592504978179932,-0.2944605350494385,-1.5032718181610107,-0.9010252952575684,-0.2877418100833893,-0.3245888948440552,-0.08550113439559937,0.0019142329692840576,0.19777318835258484,0.6732681482533591,0.45723557747884663,-0.35866582510397366,0.45716997952141813
1728328524468942300,1.6639423828125,0.8777158260345459,-0.24263516068458557,-1.4138463735580444,-0.8975793719291687,-0.30404841899871826,-0.31922659277915955,-0.07410019636154175,0.020723283290863037,0.20481625199317932,0.673783458404285,0.46381894109900934,-0.3539190542667359,0.4534633525725358
1728328524478973700,1.6739736328125,0.8575683832168579,-0.20457673072814941,-1.3237801790237427,-0.8940781950950623,-0.3188859224319458,-0.3145407438278198,-0.05022716522216797,0.09943404793739319,0.19138705730438232,0.6744751492929854,0.46957114506694164,-0.34961773983408373,0.44983732826490913
1728328524489004500,1.684004638671875,1.1659070253372192,-0.15177609026432037,-1.2779502868652344,-0.8904111981391907,-0.33351925015449524,-0.3097298741340637,-0.028488218784332275,0.17606386542320251,0.12222990393638611,0.6747219850647315,0.47555874679799,-0.3449332324686891,0.44678303045327517
1728328524499035600,1.69403564453125,1.528099775314331,-0.22604867815971375,-1.1802245378494263,-0.8867864608764648,-0.3485320210456848,-0.30353766679763794,-0.01378720998764038,0.2036041021347046,0.024652838706970215,0.6738937283409078,0.4826142241151239,-0.3395801450182453,0.44456275835543324
1728328524509066500,1.70406640625,1.7882364988327026,-0.3397829532623291,-1.0937048196792603,-0.8836808800697327,-0.36341387033462524,-0.2950228154659271,0.014982759952545166,0.23482811450958252,-0.04797947406768799,0.671841140661327,0.4907397482366734,-0.33416027765017,0.4428779389930644
1728328524519097600,1.71409765625,1.9417353868484497,-0.3479255735874176,-1.0150749683380127,-0.880855143070221,-0.37794384360313416,-0.2850484549999237,0.03803592920303345,0.20876967906951904,-0.016068458557128906,0.6689156918190285,0.4994858306535807,-0.32861782041021687,0.4416741170419523
1728328524529128400,1.72412841796875,1.9082791805267334,-0.3528553545475006,-0.9276812672615051,-0.8782232999801636,-0.39161306619644165,-0.2745233178138733,0.026676058769226074,0.12105953693389893,0.02714782953262329,0.665561220571125,0.5082281532164559,-0.32317561558253655,0.4407833005816113
1728328524539159600,1.73415966796875,1.8382688760757446,-0.31573718786239624,-0.8419679403305054,-0.8757117390632629,-0.40415263175964355,-0.26417702436447144,0.022501349449157715,0.05666428804397583,0.08665627241134644,0.6621303379844052,0.5165308795444091,-0.31797379462269876,0.4400816938016074
1728328524549190400,1.7441904296875,1.7739479541778564,-0.27884095907211304,-0.6906500458717346,-0.873421847820282,-0.41535231471061707,-0.254198282957077,0.03586685657501221,-0.010093271732330322,0.13208219408988953,0.6586126590041733,0.5243128992349118,-0.3130444637270087,0.4396914136849555
1728328524559221800,1.7542216796875,1.6592531204223633,-0.31900134682655334,-0.4982798397541046,-0.8717523217201233,-0.4246053993701935,-0.24445509910583496,0.06750720739364624,-0.056305885314941406,0.15393993258476257,0.6548877131387449,0.5314709768783047,-0.308724878833233,0.43971550966337675
1728328524569252600,1.764252685546875,1.6223790645599365,-0.2861352860927582,-0.33020642399787903,-0.870807945728302,-0.4319513738155365,-0.2347584366798401,0.0891459584236145,-0.029840588569641113,0.1981678605079651,0.6509174388825347,0.5380849843568031,-0.30509888801896856,0.44009736110963565
1728328524579284700,1.77428466796875,1.733604073524475,-0.29102659225463867,-0.12542371451854706,-0.8704487085342407,-0.43774545192718506,-0.2251622974872589,0.07395517826080322,-0.012037813663482666,0.22952628135681152,0.6464854942482404,0.5444327957107584,-0.3016815927501863,0.44117764052423825
1728328524589315600,1.784315673828125,1.8508262634277344,-0.40160369873046875,0.10689554363489151,-0.8713526725769043,-0.4416126608848572,-0.21382874250411987,0.0673213005065918,-0.04914045333862305,0.13651245832443237,0.640921240204709,0.5510953545996109,-0.29896410501783494,0.44287050536178424
1728328524599346700,1.7943466796875,1.7735934257507324,-0.31325989961624146,0.16074280440807343,-0.872711718082428,-0.44416162371635437,-0.20271821320056915,0.254211962223053,-0.10742831230163574,0.06798315048217773,0.6350192763249087,0.5574796054000257,-0.29640746649769456,0.44509501620791747
1728328524609377500,1.80437744140625,1.512413501739502,-0.2796015441417694,0.26009202003479004,-0.8742510676383972,-0.445574551820755,-0.19273945689201355,0.19833248853683472,-0.1752292513847351,0.12871360778808594,0.6294630770379607,0.5630670737371807,-0.2942545562681171,0.4473768035607501
1728328524619408600,1.81440869140625,1.216044545173645,-0.3187390863895416,0.35516953468322754,-0.8762134313583374,-0.44540122151374817,-0.18403173983097076,0.03688853979110718,-0.23366057872772217,0.18017126619815826,0.6244582108637244,0.5675603896363683,-0.29301762860828995,0.44951947710180007
1728328524629439500,1.824439453125,0.9221093654632568,-0.2787008583545685,0.5501124262809753,-0.8787839412689209,-0.4433600902557373,-0.17655204236507416,0.1106870174407959,-0.22138899564743042,0.25125908851623535,0.6199279638510452,0.5709329345178001,-0.29284733254003686,0.4516252282418683
1728328524639470600,1.834470703125,0.5627066493034363,-0.1831047683954239,0.7639451026916504,-0.8821593523025513,-0.43873339891433716,-0.17119483649730682,0.13537907600402832,-0.2576471269130707,0.314749538898468,0.61591270650635,0.5727919603437267,-0.29378896407317395,0.4541462322854646
1728328524649501400,1.84450146484375,0.16765093803405762,-0.15810354053974152,0.7751444578170776,-0.8858658075332642,-0.43239903450012207,-0.16814452409744263,0.1293199062347412,-0.30662980675697327,0.3225176930427551,0.6128361937720735,0.5731277363295184,-0.29572340917717904,0.45662230704488194
1728328524659532500,1.854532470703125,-0.06705763936042786,-0.16346514225006104,0.7935546040534973,-0.8895065784454346,-0.42548924684524536,-0.1665443629026413,0.13849949836730957,-0.26724448800086975,0.312006413936615,0.6106949990231803,0.5724440623762442,-0.29838836084101794,0.45861074893015535
1728328524669563600,1.864563720703125,-0.03180830553174019,-0.09750102460384369,0.9267811179161072,-0.8933518528938293,-0.4177146852016449,-0.16564075648784637,0.13589036464691162,-0.16924509406089783,0.2720707654953003,0.6087138413791877,0.5712548444802111,-0.30140922839924006,0.46074698165373507
1728328524679594500,1.874594482421875,0.09854790568351746,0.000038951635360717773,1.0937474966049194,-0.8976346850395203,-0.40867486596107483,-0.16503503918647766,0.12267142534255981,-0.09672662615776062,0.19451500475406647,0.6061795854179101,0.5699470282046085,-0.30437290281807494,0.4637496067606836
1728328524689625900,1.8846259765625,0.07667216658592224,0.10431049764156342,1.1919888257980347,-0.9022117853164673,-0.3984345495700836,-0.16511669754981995,0.13680052757263184,-0.06613442301750183,0.17184580862522125,0.6032896094754663,0.5683530869989396,-0.3072725487837336,0.4675465859139975
1728328524699656700,1.89465673828125,-0.07976744323968887,0.17626096308231354,1.1749475002288818,-0.9066638946533203,-0.38766640424728394,-0.16635890305042267,0.1522235870361328,-0.06773209571838379,0.23389428853988647,0.6006904369624585,0.5662033010436693,-0.310216646116869,0.471540456961312
1728328524709687800,1.904687744140625,-0.31998056173324585,0.3031257092952728,1.162443995475769,-0.9107523560523987,-0.376690536737442,-0.16921672224998474,0.15216171741485596,-0.08299568295478821,0.28941017389297485,0.5988454741031017,0.5632308586308594,-0.3133091793906644,0.47538660885873485
1728328524719718700,1.91471875,-0.5172262191772461,0.5997685790061951,1.2211413383483887,-0.9144032001495361,-0.3650733232498169,-0.1748945713043213,0.1835377812385559,-0.08173444867134094,0.3142530918121338,0.5978902950559483,0.5590134391448429,-0.3163173856754491,0.4795564600514204
1728328524729749800,1.924749755859375,-0.8200457096099854,0.814301073551178,1.2960395812988281,-0.9176690578460693,-0.3522825837135315,-0.18379458785057068,0.16924071311950684,-0.11838996410369873,0.34364569187164307,0.5978080297693433,0.5533072173358268,-0.31930209458894276,0.4842755644961467
1728328524739780600,1.934780517578125,-1.187167763710022,0.9712634086608887,1.281338095664978,-0.9204549193382263,-0.33843740820884705,-0.1955070048570633,0.16970723867416382,-0.15985354781150818,0.4622001051902771,0.5988587355570322,0.546027176275359,-0.3226465834919779,0.48900079328752755
1728328524749811700,1.944811767578125,-1.4092566967010498,1.0816800594329834,1.2366961240768433,-0.9225465059280396,-0.32414674758911133,-0.2093728482723236,0.21800243854522705,-0.13090083003044128,0.5396493077278137,0.6009989333513341,0.5374989251345776,-0.3262031302764041,0.493443795937933
1728328524759842600,1.954842529296875,-1.307176113128662,1.092438817024231,1.321216106414795,-0.9242186546325684,-0.3093613386154175,-0.22386516630649567,0.24949020147323608,-0.03013145923614502,0.4790988862514496,0.6033425165009481,0.5285098998302582,-0.32976461449248473,0.4979061368950137
1728328524769873700,1.964873779296875,-0.7361217141151428,1.1466578245162964,1.467162847518921,-0.9258490204811096,-0.293983519077301,-0.2374388724565506,0.2672950029373169,0.10767379403114319,0.3304564952850342,0.6044534245162527,0.5202036154163614,-0.3326691441326065,0.5033442378957436
1728328524779904500,1.974904541015625,-0.04605595022439957,1.1803287267684937,1.5029560327529907,-0.9273036122322083,-0.279119074344635,-0.24940021336078644,0.255886435508728,0.1683402955532074,0.12543779611587524,0.6035962398798962,0.5135640234230971,-0.33399383866390936,0.5102662455703784
1728328524789935600,1.984935546875,0.5099726915359497,1.1405085325241089,1.411561131477356,-0.9283115863800049,-0.2661743462085724,-0.25959330797195435,0.22669726610183716,0.17854321002960205,0.022899001836776733,0.601166806055855,0.5088502160115371,-0.3335787725720698,0.518068577055393
1728328524799966500,1.994966552734375,0.876154363155365,1.1413253545761108,1.347902774810791,-0.9289659857749939,-0.25517553091049194,-0.2681557238101959,0.22024112939834595,0.15159893035888672,0.009732872247695923,0.5976289600760314,0.5057341135552432,-0.3318962841351984,0.5262294134190069
1728328524809997600,2.00499755859375,0.14172033965587616,1.5323290824890137,1.2017029523849487,-0.928386926651001,-0.24506515264511108,-0.2793574333190918,0.22166097164154053,0.09601737558841705,0.037292033433914185,0.5948429014868248,0.5019149962840869,-0.329245526429552,0.534640511025532
1728328524820028400,2.0150283203125,-1.5301158428192139,1.1030089855194092,0.7994213104248047,-0.9270302057266235,-0.233355313539505,-0.2935307025909424,0.2126900553703308,0.16690334677696228,0.04523968696594238,0.5961023284553909,0.49442333353643914,-0.32981845937087334,0.5398401329329868
1728328524830059500,2.0250595703125,-2.0706307888031006,0.7624737024307251,0.32191595435142517,-0.9254507422447205,-0.22272130846977234,-0.3064901828765869,0.23883575201034546,0.3544504642486572,0.22981476783752441,0.6008317233529549,0.4853576064989944,-0.33344100672220656,0.5405981558831018
1728328524840090600,2.035090576171875,-1.384056806564331,0.3547666370868683,0.31128889322280884,-0.924365222454071,-0.2144729495048523,-0.31551608443260193,0.23845207691192627,0.3557235598564148,-0.04579678177833557,0.6052872133457037,0.47798067674476735,-0.3373076238169647,0.539801373987645
1728328524850121700,2.045121826171875,-0.2687342166900635,0.12245242297649384,0.5573604702949524,-0.9245663285255432,-0.20784714818000793,-0.31933778524398804,0.3081570863723755,0.4095836579799652,-0.4316692650318146,0.6064782191398552,0.47412966373151133,-0.3399002362182464,0.5402342258856229
1728328524860152800,2.05515283203125,0.68085116147995,0.20128242671489716,0.7406474947929382,-0.9254350662231445,-0.20245905220508575,-0.32028141617774963,0.3155565857887268,0.5086724758148193,-0.3575139343738556,0.6044017693530387,0.47328509460977497,-0.34038287902744946,0.5429909484202274
1728328524870183700,2.06518359375,1.074605941772461,0.35267141461372375,0.6563217043876648,-0.9260098934173584,-0.19874460995197296,-0.3209461271762848,0.15173310041427612,0.48089489340782166,-0.15454831719398499,0.6007137092592457,0.4740999418028528,-0.33875680877865655,0.5473721035652387
1728328524880214800,2.07521484375,0.890669047832489,0.5305100083351135,0.34997424483299255,-0.9255731105804443,-0.19724950194358826,-0.323121041059494,-0.07290112972259521,0.37039101123809814,-0.013228505849838257,0.5976643122893802,0.47502461973149424,-0.33584384403444995,0.5516864833647269
1728328524890245600,2.08524560546875,0.45179396867752075,0.5994216799736023,0.1496211737394333,-0.9241546392440796,-0.1973985880613327,-0.327065646648407,-0.20047909021377563,0.15978573262691498,0.05895349383354187,0.5963021594092905,0.4751521132412843,-0.3327125644976471,0.5549382787645374
1728328524900276700,2.09527685546875,-0.6827800273895264,0.6334664821624756,0.2064482420682907,-0.9224616885185242,-0.19556960463523865,-0.3328917324542999,-0.14545512199401855,-0.14415201544761658,0.05940845608711243,0.5970281724560437,0.4729327583816586,-0.3314947001208065,0.55677927320117
1728328524910308600,2.10530859375,-1.901777744293213,0.6181296110153198,0.29642340540885925,-0.9208168983459473,-0.18880663812160492,-0.3412449359893799,-0.031667113304138184,-0.3811700940132141,0.26942184567451477,0.6004727378050749,0.4668109782938356,-0.3338638123840265,0.5568256923571419
1728328524920339700,2.115339599609375,-2.9569203853607178,0.519410252571106,0.38806942105293274,-0.9194231033325195,-0.17714303731918335,-0.3511146008968353,-0.03338140249252319,-0.5178031921386719,0.3236793279647827,0.6061266532752283,0.4572293058935038,-0.3396823032281876,0.5551285644443108
1728328524930370600,2.12537060546875,-3.4165563583374023,0.23730774223804474,0.40223798155784607,-0.9187697768211365,-0.1618991196155548,-0.36007052659988403,-0.03170013427734375,-0.4180111289024353,0.16230136156082153,0.6130139820318191,0.44558619234902713,-0.3484504045480199,0.5515878318672286
1728328524940401700,2.135401611328125,-3.0219874382019043,0.022019192576408386,0.5065646767616272,-0.9189894795417786,-0.14587466418743134,-0.36630454659461975,0.009901285171508789,-0.21896296739578247,0.042070478200912476,0.619204673918337,0.43435234201837986,-0.3580304053948563,0.5474832983693976
1728328524950432500,2.1454326171875,-2.010157823562622,-0.038954947143793106,0.6927438378334045,-0.9198957681655884,-0.13100078701972961,-0.36963585019111633,0.041004717350006104,-0.1307789832353592,-0.11502906680107117,0.6230073362746475,0.425416884925982,-0.36633666077223764,0.5446832677006083
1728328524960463600,2.155463623046875,-1.1360719203948975,-0.02466628886759281,0.8323073387145996,-0.921018660068512,-0.1181248277425766,-0.37117522954940796,0.02065861225128174,-0.07596693187952042,-0.20960479974746704,0.6240613154013271,0.41928981296624346,-0.3723015433670764,0.5441829134406773
1728328524970494700,2.16549462890625,-1.099178433418274,0.15047889947891235,0.7913564443588257,-0.9217433333396912,-0.106588214635849,-0.37286490201950073,-0.07567787170410156,-0.00567067414522171,-0.09539681673049927,0.6241354617045712,0.41428636158445775,-0.376741771505278,0.5448737559057368
1728328524980525800,2.17552587890625,-1.4206446409225464,0.3145340383052826,0.6673351526260376,-0.9215689897537231,-0.09504275768995285,-0.3764007091522217,-0.22071921825408936,0.010188654065132141,0.15035700798034668,0.6252341629758648,0.4082363657620578,-0.3809760110802603,0.5452362805896528
1728328524990556700,2.185556640625,-1.5769882202148438,0.375247985124588,0.7220242619514465,-0.9208388924598694,-0.08312637358903885,-0.3809797763824463,-0.30245816707611084,-0.12121927738189697,0.15521076321601868,0.6270832418720194,0.401294699207563,-0.38532152850243223,0.5452121847491214
1728328525000587800,2.195587890625,-1.907578945159912,0.20892399549484253,0.8959478735923767,-0.9202815294265747,-0.06893781572580338,-0.38513562083244324,-0.16324502229690552,-0.28968948125839233,0.026233673095703125,0.6289109693180147,0.3934061310250625,-0.39072215728319915,0.5450126638402673
1728328525010618600,2.20561865234375,-1.813043475151062,-0.11714572459459305,1.0408027172088623,-0.9207375049591064,-0.05269594117999077,-0.3866076171398163,0.08472377061843872,-0.26586177945137024,0.03440430760383606,0.6300291221292496,0.3854341088401516,-0.39766410640714644,0.5443959832853106
1728328525020649700,2.215649658203125,-1.4451361894607544,-0.21031257510185242,1.1443406343460083,-0.9219066500663757,-0.03619842976331711,-0.38571709394454956,0.1930248737335205,-0.2055465430021286,0.02235954999923706,0.6298125224782651,0.3785293779802451,-0.4047924864345493,0.5442376902864
1728328525030680600,2.2256806640625,-0.9948052763938904,-0.11198893934488297,1.1938213109970093,-0.9229424595832825,-0.020695360377430916,-0.384380966424942,0.11376893520355225,-0.13553935289382935,-0.024249345064163208,0.6285104399348018,0.37282331969531224,-0.4108677286425903,0.5451284012173646
1728328525040711700,2.235711669921875,-1.0747506618499756,0.16928960382938385,1.1904367208480835,-0.9229437112808228,-0.005809555761516094,-0.3848910927772522,-0.017989516258239746,-0.041141707450151443,-0.004040181636810303,0.6271124395109198,0.3671517654103483,-0.4156369016091532,0.5469693873899925
1728328525050742500,2.245742431640625,-1.7625523805618286,0.11265508830547333,0.8875111937522888,-0.922392725944519,0.009449092671275139,-0.38613763451576233,-0.02700906991958618,0.0688742995262146,0.05374014377593994,0.6270599369464097,0.3601202032997857,-0.4210043053550293,0.5475989091721674
1728328525060773600,2.255773681640625,-2.221076488494873,-0.11228348314762115,0.5825129747390747,-0.9222031235694885,0.023964889347553253,-0.38596245646476746,0.0955582857131958,0.18843747675418854,0.11469176411628723,0.6287863219116699,0.35212047075094943,-0.4278199900899102,0.5455354722319069
1728328525070804500,2.265804443359375,-1.9593374729156494,-0.22968095541000366,0.7014023065567017,-0.9227288365364075,0.03796085715293884,-0.3835756778717041,0.24053901433944702,0.18765561282634735,0.13017302751541138,0.63039687126714,0.34455590477842046,-0.43530838709207353,0.5425748726810359
1728328525080835600,2.275835693359375,-1.2571743726730347,-0.15606483817100525,0.8349321484565735,-0.9231758117675781,0.05134163051843643,-0.3809334635734558,0.3348885774612427,0.10786859691143036,0.14404082298278809,0.6305947999240344,0.33830614527131747,-0.44168112565549544,0.541125481945502
1728328525090866700,2.28586669921875,-0.6164655685424805,0.07242824882268906,0.751284122467041,-0.9229114651679993,0.0623258538544178,-0.3799338936805725,0.19996541738510132,0.09990562498569489,0.17465746402740479,0.6298725862601998,0.3337142814072611,-0.4457217017761369,0.541504717588847
1728328525100897500,2.2958974609375,-0.21816480159759521,0.2735050618648529,0.6363444924354553,-0.9217715859413147,0.0702207013964653,-0.381321519613266,-0.029354453086853027,0.1424563229084015,0.24010148644447327,0.6290727184035277,0.3304193004138461,-0.44739504334372293,0.5430728884660088
1728328525110928600,2.3059287109375,-0.14084550738334656,0.4011754095554352,0.6358060240745544,-0.9199299812316895,0.07668504118919373,-0.3845101296901703,-0.1138375997543335,0.17003431916236877,0.26137176156044006,0.6284157022491302,0.3275128887091106,-0.44775020684694006,0.5452968154660432
1728328525120959500,2.31595947265625,-0.23723703622817993,0.4626307785511017,0.6108641624450684,-0.917827844619751,0.08322140574455261,-0.3881571590900421,-0.0384555459022522,0.1504822075366974,0.250080406665802,0.627935606308047,0.32436465580151824,-0.4480055733136016,0.5475173387442235
1728328525130990800,2.325990966796875,-0.08908110857009888,0.5127200484275818,0.620380699634552,-0.9153670072555542,0.08955060690641403,-0.39253515005111694,0.022682130336761475,0.06619588285684586,0.29172036051750183,0.6276462480009871,0.32107079747152023,-0.44793522721911094,0.549843303345691
1728328525141021700,2.336021728515625,0.013373088091611862,0.4633319675922394,0.5947536826133728,-0.9128388166427612,0.09524627774953842,-0.39705580472946167,0.032666146755218506,-0.045441582798957825,0.18100664019584656,0.6271077887923882,0.3182549335791488,-0.4474213761630837,0.5525066491149486
1728328525151052800,2.346052734375,0.06931917369365692,0.37446096539497375,0.5093926787376404,-0.9106277227401733,0.10017953813076019,-0.4009005129337311,0.07731479406356812,0.034631870687007904,0.04514187574386597,0.6264683432552213,0.31594568665933737,-0.44690945378872665,0.5549664196290967
1728328525161083600,2.356083740234375,0.27464917302131653,0.3567533493041992,0.47163596749305725,-0.9087037444114685,0.1039077639579773,-0.40430280566215515,0.0728272795677185,0.1308639943599701,0.07324814796447754,0.6256457626152847,0.31440625204509876,-0.44609114298827446,0.5574215617644929
1728328525171114800,2.36611474609375,0.427933007478714,0.4014132022857666,0.5319033265113831,-0.906632125377655,0.10702802985906601,-0.4081215560436249,-0.024276018142700195,0.11407184600830078,0.025049686431884766,0.6245318599148011,0.3133337712668532,-0.4447034564330827,0.5603755362312458
1728328525181145600,2.3761455078125,0.5338277220726013,0.37702158093452454,0.4886825680732727,-0.904439389705658,0.1097652018070221,-0.4122387766838074,-0.055857181549072266,0.098654605448246,0.005027502775192261,0.6231949905518707,0.3125668878632477,-0.4429249918860149,0.5636907496805664
1728328525191176700,2.3861767578125,0.5210906267166138,0.351240873336792,0.4405438005924225,-0.9024374485015869,0.11173056811094284,-0.4160802364349365,-0.036985039710998535,0.08654215931892395,-0.011867731809616089,0.6218436752038973,0.3121947990957875,-0.44101506100963234,0.5668777915709307
1728328525201207600,2.39620751953125,0.49862954020500183,0.35751286149024963,0.4600386917591095,-0.9004483819007874,0.11365298926830292,-0.4198518693447113,-0.02272355556488037,0.09113524109125137,0.009359985589981079,0.6205572756587264,0.3117759847778073,-0.43916944255591694,0.5699425422862812
1728328525211238700,2.40623876953125,0.5165852904319763,0.3630506694316864,0.43384861946105957,-0.8983913064002991,0.11561282724142075,-0.42370569705963135,-0.017898857593536377,0.06062621623277664,0.03399631381034851,0.6192787189306074,0.3112971566654922,-0.4373113616986337,0.5730153382569142
1728328525221269500,2.41626953125,0.6093008518218994,0.3281177282333374,0.4417840540409088,-0.8964283466339111,0.11707639694213867,-0.4274451732635498,-0.030176818370819092,0.028538256883621216,0.004730939865112305,0.617898472459629,0.31112690866556614,-0.4352900937337255,0.5761285271686726
1728328525231300600,2.426300537109375,0.618153989315033,0.38851478695869446,0.43815895915031433,-0.8943691253662109,0.11848688125610352,-0.431351900100708,-0.02013576030731201,0.044400714337825775,-0.0037676990032196045,0.6164096923156125,0.3110131319726986,-0.4331222407551137,0.5794090612146691
1728328525241331500,2.43633154296875,0.7489131093025208,0.38318145275115967,0.4088290333747864,-0.892189621925354,0.11930897831916809,-0.4356181025505066,-0.009879469871520996,0.0667719841003418,0.04369610548019409,0.6149510115073972,0.3110786156260345,-0.4306054351315376,0.5827901347550942
1728328525251362600,2.446362548828125,0.8706405758857727,0.38822227716445923,0.37830042839050293,-0.8900092840194702,0.11930593103170395,-0.4400564134120941,-0.04082268476486206,0.05423229932785034,0.02610069513320923,0.6133887336762623,0.3115558180450829,-0.4276736710694534,0.5863297449395793
1728328525261393700,2.4563935546875,1.108629822731018,0.41854119300842285,0.37763330340385437,-0.887789785861969,0.1182742491364479,-0.44479286670684814,-0.04635334014892578,0.08913850039243698,0.07136446237564087,0.611582784074215,0.312611779028687,-0.42411961682285704,0.5902228935146562
1728328525271424500,2.466424560546875,1.3006278276443481,0.435385137796402,0.39405086636543274,-0.885399341583252,0.11628048121929169,-0.4500519335269928,-0.04650062322616577,0.1489478051662445,0.09452220797538757,0.6094426694813366,0.3142191944115331,-0.4198098826336561,0.5946473304634904
1728328525281456600,2.47645654296875,1.4468975067138672,0.4227021634578705,0.3815537393093109,-0.8830123543739319,0.11349882930517197,-0.4554198980331421,-0.012571752071380615,0.19018161296844482,0.11266171932220459,0.6069873400601915,0.31632264017081446,-0.4150060692029568,0.5993966578366385
1728328525291486700,2.48648681640625,1.5339632034301758,0.4534273147583008,0.3382091820240021,-0.8806155323982239,0.10976234078407288,-0.46094316244125366,0.010589838027954102,0.176111102104187,0.12210643291473389,0.6044272687946181,0.3188242108253468,-0.4097310587237009,0.6042676374101755
1728328525301518600,2.4965185546875,1.4843753576278687,0.5409327745437622,0.32889479398727417,-0.8779646754264832,0.10564563423395157,-0.4669228792190552,0.00647425651550293,0.13611465692520142,0.12907803058624268,0.6019562960989976,0.3212517347011659,-0.4041483433913457,0.6091880015064679
1728328525311549700,2.5065498046875,1.1914710998535156,0.6410223245620728,0.2135503590106964,-0.8748838305473328,0.10175729542970657,-0.47352269291877747,0.011602580547332764,0.09587457776069641,0.13853126764297485,0.60013092348731,0.32292123076383006,-0.3986985411284733,0.6136808608468539
1728328525321580500,2.51658056640625,0.8539234399795532,0.6701341867446899,0.12528175115585327,-0.8715881705284119,0.09832298755645752,-0.4802777171134949,-0.012719690799713135,0.059666529297828674,0.17862671613693237,0.5992657959149947,0.32364303394115,-0.39384810510718266,0.61726764899627
1728328525331611600,2.526611572265625,0.595037043094635,0.7515307664871216,0.09949728101491928,-0.8680269718170166,0.09583687037229538,-0.48718008399009705,-0.00021332502365112305,0.03606012463569641,0.23678338527679443,0.5991672876297103,0.32335453476227327,-0.38968166817120165,0.6201520751473031
1728328525341642500,2.536642578125,0.5798630118370056,0.7828383445739746,0.07421456277370453,-0.8641223907470703,0.09370704740285873,-0.4944809377193451,0.030839979648590088,0.029339872300624847,0.2683151960372925,0.599505223747702,0.3224970831043004,-0.38568791101616556,0.622763129382303
1728328525351673600,2.546673583984375,0.7594567537307739,0.76419997215271,0.011074479669332504,-0.860295832157135,0.090950608253479,-0.5016164183616638,0.045476555824279785,0.013022802770137787,0.17535299062728882,0.5997118051006795,0.32198947677500045,-0.38146373640505277,0.6254229966928576
1728328525361704700,2.55670458984375,1.0396544933319092,0.640154242515564,-0.11862226575613022,-0.8566365838050842,0.08585410565137863,-0.5087266564369202,0.04476219415664673,0.04709573835134506,-0.024156033992767334,0.5998563847858965,0.3225044477427915,-0.3763343602626348,0.6281207107910135
1728328525371735600,2.566735595703125,0.8510129451751709,0.2106982320547104,-0.16279557347297668,-0.8545836210250854,0.07959642261266708,-0.5131775140762329,0.08747857809066772,-0.027914874255657196,-0.3404143452644348,0.5994750552471311,0.3244084203811853,-0.37171282288714347,0.63025258772494
1728328525381766700,2.5767666015625,0.30064162611961365,0.03746398165822029,-0.18992413580417633,-0.8542062640190125,0.07506240904331207,-0.5144873261451721,0.191761314868927,-0.2620130777359009,-0.3303460478782654,0.5992947661758317,0.3261639794860318,-0.36928770541668077,0.6309432088332446
1728328525391797500,2.586797607421875,-0.10038863122463226,0.08972851932048798,-0.08513834327459335,-0.8540119528770447,0.0734688937664032,-0.5150396823883057,0.11510509252548218,-0.4075295329093933,-0.058278799057006836,0.5997166886447025,0.3264713779201161,-0.3686415618675725,0.6307611591953607
1728328525401828600,2.59682861328125,-0.28368520736694336,0.08540891855955124,0.02748780883848667,-0.8535580039024353,0.07420764863491058,-0.5156857967376709,0.055645525455474854,-0.3969767689704895,0.025207340717315674,0.6002880828069288,0.3256611146122258,-0.36891996295813384,0.6304736360617907
1728328525411859700,2.606859619140625,-0.725138783454895,0.08310901373624802,0.10881302505731583,-0.8530575633049011,0.07733360677957535,-0.5160544514656067,0.0780637264251709,-0.33999836444854736,-0.06565630435943604,0.6009929346228026,0.3238044140957228,-0.3703018557216164,0.6299481461521192
1728328525421890800,2.616890869140625,-1.4728809595108032,0.02974044159054756,0.1681208312511444,-0.8526926636695862,0.08415532112121582,-0.5155900120735168,0.10269272327423096,-0.2902252674102783,-0.05115199089050293,0.6024123638208689,0.3201005273025951,-0.37381901551886076,0.6284061686694502
1728328525431921700,2.626921630859375,-1.906846523284912,0.06289306282997131,0.2078610509634018,-0.8522870540618896,0.09474105387926102,-0.5144228935241699,0.07378363609313965,-0.24973979592323303,0.13769865036010742,0.6046552883715679,0.3143510561704722,-0.3794363747450347,0.6257822665149407
1728328525441952800,2.636952880859375,-1.8297340869903564,0.08191682398319244,0.23635181784629822,-0.8517153859138489,0.10639286786317825,-0.5130900740623474,0.022491753101348877,-0.17720888555049896,0.1787547469139099,0.6070299817259122,0.3079708355899824,-0.38549829839502425,0.6229442905473265
1728328525451983600,2.646983642578125,-1.4874145984649658,0.1742539405822754,0.19834557175636292,-0.8507987856864929,0.11691100150346756,-0.5123213529586792,-0.026139020919799805,0.013414323329925537,0.10004419088363647,0.6091482339203516,0.3020248030530892,-0.3906665327994194,0.6205634640073613
1728328525462014700,2.6570146484375,-1.0159879922866821,0.22575537860393524,0.09701628237962723,-0.8495819568634033,0.12458331137895584,-0.5125322341918945,-0.05752241611480713,0.20009322464466095,0.04442316293716431,0.6109622171881005,0.29728890381438133,-0.3941486842294659,0.6188627668036445
1728328525472045600,2.667045654296875,-0.6049789190292358,0.20541362464427948,0.018228795379400253,-0.8484184145927429,0.12919697165489197,-0.5133169293403625,-0.05020219087600708,0.2523795962333679,-0.023426175117492676,0.6124178962771575,0.29404250441184887,-0.39608147432939184,0.6177400215375908
1728328525482077700,2.67707763671875,-0.3156659007072449,0.1957404911518097,-0.03082636557519436,-0.8473765850067139,0.13146843016147614,-0.5144597887992859,-0.0035144686698913574,0.23541390895843506,-0.04358452558517456,0.6135123199533771,0.2920330937558547,-0.39684601907526096,0.6171162283275512
1728328525492108500,2.687108642578125,-0.06556233763694763,0.13558366894721985,-0.053303174674510956,-0.846571683883667,0.1320773959159851,-0.5156276822090149,0.023817777633666992,0.20978054404258728,-0.07032507658004761,0.614262981573601,0.2910155683204616,-0.39685778652631015,0.6168425904648677
1728328525502139600,2.6971396484375,0.105644091963768,0.09041006863117218,-0.057996731251478195,-0.8460794687271118,0.131476029753685,-0.5165883302688599,0.030665099620819092,0.1821226179599762,-0.09036046266555786,0.6146064686997641,0.2908711368421424,-0.39635817723981676,0.6168897508718789
1728328525512170500,2.70717041015625,0.028802581131458282,0.055981528013944626,-0.09586475789546967,-0.8458050489425659,0.13038799166679382,-0.5173130035400391,0.020853936672210693,0.15429525077342987,-0.06128495931625366,0.6148595277326071,0.29106276233675415,-0.39575999565684633,0.616931251464073
1728328525522201600,2.71720166015625,-0.1308302879333496,0.034284807741642,-0.22713302075862885,-0.845788836479187,0.12939059734344482,-0.517589807510376,-0.012655317783355713,0.09671415388584137,0.021938621997833252,0.6155171301496472,0.29104804553781655,-0.39559592791021964,0.6163874227541423
1728328525532232400,2.727232421875,-0.15678492188453674,0.050273094326257706,-0.25836285948753357,-0.8458987474441528,0.1280209869146347,-0.5177506804466248,-0.05693322420120239,0.02865627408027649,0.09271717071533203,0.6165754745744104,0.29097439734930525,-0.395548428775924,0.6153940953080355
1728328525542263800,2.737263916015625,-0.11733638495206833,0.037800393998622894,-0.23460185527801514,-0.8460046052932739,0.1267022341489792,-0.5179022550582886,-0.051151156425476074,0.0103064626455307,0.022846102714538574,0.6176333469315611,0.29087824469486745,-0.3955233647305735,0.6143940926004187
1728328525552294700,2.747294677734375,0.1375395804643631,-0.014199160039424896,-0.2646220922470093,-0.8462181687355042,0.12462378293275833,-0.5180575251579285,0.008785367012023926,0.07107020914554596,0.016272306442260742,0.6184209032374115,0.2913092900403723,-0.39510775326712316,0.6136646147798936
1728328525562325800,2.75732568359375,0.3137771189212799,-0.1107615977525711,-0.3105488419532776,-0.8468995094299316,0.12091881036758423,-0.517822265625,0.04436349868774414,0.07866616547107697,-0.0717010498046875,0.6188305226345274,0.29282282265016607,-0.39413661237980974,0.6131556837287813
1728328525572356600,2.767356689453125,0.3455134630203247,-0.22561974823474884,-0.4023900628089905,-0.8481159806251526,0.11608581244945526,-0.5169364213943481,0.06743061542510986,0.061038218438625336,-0.08223038911819458,0.6191375596579884,0.2950582093773046,-0.3930298376602833,0.6124840967426358
1728328525582387700,2.7773876953125,0.24289396405220032,-0.1868184357881546,-0.3864001929759979,-0.8497287034988403,0.11112760007381439,-0.5153753161430359,0.07792401313781738,0.0277274027466774,-0.03484135866165161,0.6194436269215998,0.2974860786376061,-0.3921917712595444,0.6115366864446237
1728328525592418600,2.78741845703125,-0.07100723683834076,-0.10476671904325485,-0.3928415775299072,-0.8508880138397217,0.10737822204828262,-0.5142562985420227,0.06522822380065918,-0.020799823105335236,0.03790748119354248,0.6202004028074393,0.29896548729928746,-0.3917798874705688,0.6103111276110215
1728328525602449700,2.79744970703125,-0.30504438281059265,-0.02824893221259117,-0.4323258697986603,-0.8516861796379089,0.10488376766443253,-0.5134491324424744,0.008851766586303711,-0.029566355049610138,0.15411996841430664,0.6216284827316797,0.2993648830787989,-0.39198992701837604,0.6085248762939011
1728328525612480800,2.807480712890625,-0.36426854133605957,0.05280863493680954,-0.38119184970855713,-0.8520758152008057,0.10314744710922241,-0.5131543874740601,-0.036458730697631836,-0.013425752520561218,0.17286813259124756,0.6234097905947535,0.2990756880975275,-0.39239845535684764,0.6065784194125203
1728328525622511600,2.81751171875,-0.1635664701461792,0.03499384596943855,-0.2830469012260437,-0.8521631360054016,0.10171012580394745,-0.5132960677146912,-0.020822584629058838,-0.009028226137161255,0.1604977250099182,0.6249479403231827,0.29871193998695467,-0.392585187402531,0.6050520526046237
1728328525632542700,2.827542724609375,0.04401442036032677,0.06975022703409195,-0.25247514247894287,-0.8521705865859985,0.09976951032876968,-0.5136645436286926,0.0022560954093933105,0.017601117491722107,0.05646544694900513,0.6258897119940753,0.29891870089469036,-0.39219299480729297,0.6042303090109614
1728328525642573600,2.837573486328125,0.1988135278224945,0.0740942731499672,-0.30197346210479736,-0.852049708366394,0.09678072482347488,-0.5144363045692444,-0.000977635383605957,0.04950530081987381,-0.01983487606048584,0.6266577828684421,0.2996359316785905,-0.3911523326793071,0.6037534023094187
1728328525652604700,2.847604736328125,0.2185819000005722,-0.026336997747421265,-0.409443199634552,-0.852240264415741,0.09270235896110535,-0.5148715376853943,0.012411773204803467,0.028299875557422638,-0.025716781616210938,0.6274775639955282,0.30088488857237666,-0.38991346201387606,0.6030817594324639
1728328525662636500,2.857636474609375,0.27187463641166687,-0.0932253748178482,-0.5043119192123413,-0.8530095815658569,0.08746528625488281,-0.5145137906074524,0.04084533452987671,0.004728339612483978,-0.03521460294723511,0.6283598462269517,0.30277967773923786,-0.38867412677260005,0.602013921801459
1728328525672667600,2.867667724609375,0.21343474090099335,-0.05197566747665405,-0.5213564038276672,-0.8538298606872559,0.08173810690641403,-0.5140947103500366,0.057748377323150635,-0.007214158773422241,0.017512738704681396,0.6293942509639707,0.304802376295621,-0.3873605161013842,0.6007579667919853
1728328525682698800,2.87769873046875,0.12918923795223236,-0.07787592709064484,-0.518999457359314,-0.8545510768890381,0.0764339417219162,-0.5137121677398682,0.06159764528274536,-0.007159017026424408,0.04308539628982544,0.6305841982252782,0.30651574240449236,-0.38625382967246813,0.5993492804658624
1728328525692729600,2.8877294921875,0.0041311876848340034,-0.08452451229095459,-0.5136457085609436,-0.8553736805915833,0.0716467946767807,-0.5130325555801392,0.0595363974571228,-0.004798024892807007,0.024415671825408936,0.6318750314261385,0.3079831677459147,-0.38552573358149017,0.5977039925219798
1728328525702760700,2.8977607421875,-0.1139632910490036,-0.07569847255945206,-0.5113711357116699,-0.8560984134674072,0.06757812201976776,-0.5123756527900696,0.04919832944869995,0.008227571845054626,0.05734330415725708,0.6333554864771812,0.3089929847625472,-0.3851434955110237,0.5958596387415724
1728328525712791800,2.907791748046875,-0.04114314913749695,-0.023208899423480034,-0.5362908244132996,-0.8567734956741333,0.06353584676980972,-0.511763870716095,0.027870357036590576,0.05870233476161957,0.08393806219100952,0.6349444201029247,0.30990518107755666,-0.38480752560264253,0.5939085716725185
1728328525722822700,2.91782275390625,0.1799030900001526,0.030155999585986137,-0.5081268548965454,-0.8570532202720642,0.0586673840880394,-0.5118769407272339,-0.005770266056060791,0.0918605849146843,0.05794322490692139,0.6364254593926127,0.31110626983453366,-0.3837634741445064,0.5923691485004036
1728328525732853800,2.927853759765625,0.3371579647064209,0.03623786196112633,-0.4895545244216919,-0.8571431040763855,0.05307365953922272,-0.5123367309570312,-0.014057457447052002,0.07539011538028717,-0.00539398193359375,0.6375510432942265,0.312784834591163,-0.3820958980465343,0.5913518778421567
1728328525742884600,2.937884521484375,0.4889583885669708,0.021570662036538124,-0.503452479839325,-0.8572694063186646,0.04668223857879639,-0.5127474665641785,0.0012055635452270508,0.06868948042392731,0.00006747245788574219,0.6384205976558041,0.31498261851340237,-0.3800160574203513,0.5905869134442695
1728328525752915700,2.947915771484375,0.42221158742904663,0.11392615735530853,-0.5059036612510681,-0.8571286797523499,0.03990785777568817,-0.513554036617279,0.008206009864807129,0.03902588412165642,0.04024171829223633,0.6393177968909444,0.31723720197270816,-0.37760236804342906,0.5899574180055979
1728328525762946600,2.957946533203125,0.46115413308143616,0.04987452179193497,-0.47831013798713684,-0.8568796515464783,0.0334489606320858,-0.5144302248954773,0.0058512091636657715,-0.025300733745098114,0.01525425910949707,0.6402473352229444,0.3193022599051555,-0.3752744930403114,0.5893203631278451
1728328525772977700,2.967977783203125,0.4008348882198334,0.017262253910303116,-0.4361264705657959,-0.8569045662879944,0.027143198996782303,-0.5147600173950195,0.036805689334869385,-0.08503503352403641,-0.03592967987060547,0.6409149373426871,0.321564205550844,-0.3731171929812694,0.5887343343118038
1728328525783008500,2.978008544921875,0.23199942708015442,0.03567609190940857,-0.3593507409095764,-0.8568286895751953,0.022154496982693672,-0.5151250958442688,0.06741511821746826,-0.07031121850013733,-0.009105861186981201,0.641645098387807,0.32319455252287593,-0.3714602549431901,0.5880937365815034
1728328525793039600,2.98803955078125,0.23023109138011932,0.027354247868061066,-0.28481656312942505,-0.8567473888397217,0.018215537071228027,-0.5154145359992981,0.05518794059753418,-0.04015764594078064,-0.0004545450210571289,0.6422828501733183,0.3244372319565233,-0.3701799587969043,0.5875202957542315
1728328525803070500,2.998070556640625,0.018462389707565308,0.0020354166626930237,-0.22051319479942322,-0.8566905856132507,0.01531971339136362,-0.5156030058860779,0.03772091865539551,-0.057372912764549255,-0.019995689392089844,0.6428081982764879,0.32531719393371394,-0.3692793210363845,0.5870256024119882
1728328525813101600,3.0081015625,-0.32881754636764526,-0.00267944298684597,-0.2459152340888977,-0.8567543625831604,0.014210276305675507,-0.5155289173126221,0.006320953369140625,-0.024723563343286514,0.033061206340789795,0.6437464823501341,0.32521994181231495,-0.36941511885423595,0.5859650038574106
1728328525823132400,3.01813232421875,-0.35612618923187256,-0.08527157455682755,-0.31891170144081116,-0.8570210337638855,0.013622431084513664,-0.5151013135910034,-0.05771279335021973,-0.009655105881392956,0.04716008901596069,0.6450719404478042,0.32472368576071897,-0.37014032355127297,0.5843225934205825
1728328525833163800,3.028163818359375,-0.29922160506248474,-0.06637272238731384,-0.30107542872428894,-0.8574851155281067,0.012564149685204029,-0.5143554210662842,-0.10499346256256104,-0.05988164246082306,-0.02925419807434082,0.646395012101167,0.32449236620493155,-0.3708463358252742,0.5825386447376005
1728328525843194600,3.038194580078125,-0.2480570524930954,-0.04185725748538971,-0.1896759271621704,-0.857781708240509,0.011856475844979286,-0.5138772130012512,-0.08940750360488892,-0.09530676901340485,-0.03504234552383423,0.6474427914159493,0.32422644482902585,-0.3714008600752139,0.58116804626231
1728328525853225700,3.048225830078125,-0.3714391589164734,-0.056512102484703064,-0.16989263892173767,-0.858029842376709,0.011952477507293224,-0.513460636138916,-0.04419177770614624,-0.06839471310377121,-0.018720149993896484,0.6483491772338071,0.32368760821121156,-0.37215051745071104,0.5799772486131247
1728328525863256600,3.058256591796875,-0.3363272547721863,-0.1520117223262787,-0.2213720679283142,-0.8586064577102661,0.012149931862950325,-0.5124912261962891,-0.03087407350540161,0.019145864993333817,-0.012121200561523438,0.6493016095440846,0.3231807415178402,-0.37324066050999183,0.5784920141283478
1728328525873287700,3.06828759765625,-0.23533859848976135,-0.11190025508403778,-0.21340788900852203,-0.8593496084213257,0.011684983037412167,-0.5112549662590027,-0.043146729469299316,0.10223715007305145,-0.006506204605102539,0.6501587021191362,0.32307042378967926,-0.3741630720292297,0.5769931757072837
1728328525883318800,3.07831884765625,0.005248716101050377,-0.0644020289182663,-0.12405431270599365,-0.859854519367218,0.010854673571884632,-0.5104237198829651,-0.07508200407028198,0.15242967009544373,-0.006788134574890137,0.6506801521375456,0.3232546425536331,-0.3745591572858385,0.5760444310569324
1728328525893349600,3.088349609375,0.15799058973789215,0.003935475833714008,-0.02925962768495083,-0.8599985241889954,0.009723330847918987,-0.5102037787437439,-0.09887897968292236,0.14706076681613922,-0.042362749576568604,0.6506966501994854,0.3237790278477806,-0.37425294174191515,0.5759302602681663
1728328525903380700,3.098380615234375,0.21338674426078796,-0.025045789778232574,-0.023809734731912613,-0.8600566983222961,0.008617918938398361,-0.5101255774497986,-0.09511291980743408,0.12166164070367813,-0.041739046573638916,0.6504251127197158,0.3244511609861599,-0.37372270404570057,0.57620299802695
1728328525913411600,3.10841162109375,0.20027519762516022,-0.022834032773971558,-0.12426923215389252,-0.8601886630058289,0.0069197374396026134,-0.5099290609359741,-0.08111077547073364,0.13164536654949188,-0.003758072853088379,0.6502418439425804,0.325345358299463,-0.3730762063187653,0.5763247049420471
1728328525923442700,3.118442626953125,0.19306781888008118,-0.0037258006632328033,-0.19886170327663422,-0.8602985739707947,0.004484907258301973,-0.5097708106040955,-0.08525806665420532,0.1424877792596817,0.034856319427490234,0.6503707051286947,0.32634769334711267,-0.37230600970814326,0.5761105847932658
1728328525933473500,3.1284736328125,0.25615304708480835,0.04947030916810036,-0.21204061806201935,-0.860198438167572,0.0015761248068884015,-0.509956955909729,-0.08639580011367798,0.12853558361530304,0.048531174659729004,0.6506567683462577,0.32738378940616714,-0.37126996634813897,0.5758681288048738
1728328525943504600,3.138504638671875,0.3689000904560089,0.17326830327510834,-0.20737582445144653,-0.8596178293228149,-0.0018032495863735676,-0.5109343528747559,-0.08180367946624756,0.10692107677459717,0.07831722497940063,0.6509621313762716,0.328451421462636,-0.3696653757724627,0.5759474014649965
1728328525953535500,3.148535400390625,0.4571085274219513,0.2597707211971283,-0.23664157092571259,-0.8584918975830078,-0.00587170897051692,-0.5127934813499451,-0.08714103698730469,0.1108827218413353,0.08040523529052734,0.6513095660363042,0.32960611437206816,-0.3673731811578344,0.5763615082858422
1728328525963566600,3.158566650390625,0.39718079566955566,-0.05332408472895622,-0.23362207412719727,-0.8575084209442139,-0.010324744507670403,-0.5143662691116333,-0.07918280363082886,0.11690743267536163,0.0208512544631958,0.6515705193937182,0.3310256689640249,-0.3650189987992287,0.5767485946397265
1728328525973597400,3.168597412109375,1.1688042879104614,0.2541477084159851,-0.207826167345047,-0.8570851683616638,-0.01612337864935398,-0.5149222016334534,-0.038727760314941406,0.10076391696929932,-0.03987199068069458,0.6510076994042406,0.33372659914038466,-0.3621677154698082,0.5776243625985468
1728328525983628800,3.17862890625,0.6715949177742004,0.32909470796585083,-0.17655906081199646,-0.8554012179374695,-0.02268546260893345,-0.517469048500061,-0.009787380695343018,0.11457391083240509,-0.15704572200775146,0.6505544853857749,0.33624184875025276,-0.3580599128935899,0.5792352163478433
1728328525993659600,3.18865966796875,0.9072604775428772,0.070867158472538,-0.2787941098213196,-0.854479193687439,-0.028373878449201584,-0.5187102556228638,0.008104681968688965,0.19744127988815308,0.20932304859161377,0.6502228030211836,0.33855643884781494,-0.3549991638926833,0.5801427121420831
1728328526003690800,3.198690673828125,1.0511462688446045,0.16184063255786896,-0.3154224157333374,-0.8537487983703613,-0.03640825301408768,-0.5194105505943298,-0.019053876399993896,0.10006794333457947,-0.004805088043212891,0.6496009281778914,0.3421054034638276,-0.3510820782142324,0.5811400657012746
1728328526013721600,3.2087216796875,0.7008615136146545,0.10092215240001678,-0.18835046887397766,-0.8529977202415466,-0.04313358664512634,-0.5201290845870972,-0.0714559555053711,0.003430258482694626,-0.07858002185821533,0.6490450706006595,0.3450362952784874,-0.34768579277367684,0.5820695517267187
1728328526023752700,3.218752685546875,0.5512765049934387,0.19665038585662842,-0.19205892086029053,-0.8521276116371155,-0.04787323251366615,-0.5211396217346191,-0.04188472032546997,0.06270481646060944,0.08379226922988892,0.6487781735185908,0.3468976191507923,-0.3450974098872453,0.5828006285811678
1728328526033784600,3.22878466796875,0.4443492591381073,0.1615414023399353,-0.22802038490772247,-0.8510511517524719,-0.0523400753736496,-0.5224676132202148,-0.0516740083694458,0.01417788490653038,0.05698305368423462,0.6488390398688134,0.34836897701910613,-0.3426445020727259,0.5833023843901819
1728328526043815700,3.238815673828125,0.20752590894699097,0.12371183931827545,-0.16667446494102478,-0.8502095341682434,-0.055763646960258484,-0.523482620716095,-0.040537476539611816,-0.04941515997052193,0.01853877305984497,0.6490951778133486,0.3493658158990447,-0.3408844621845073,0.5834523553090226
1728328526053846500,3.248846435546875,0.08777262270450592,0.12473609298467636,-0.1643838882446289,-0.8494763970375061,-0.05785682052373886,-0.5244446992874146,0.0026289820671081543,-0.033970534801483154,0.055160701274871826,0.649533027952511,0.3497307987280272,-0.3398029127028046,0.5833772691056592
1728328526063877600,3.258877685546875,0.07276210933923721,0.09178303927183151,-0.203529953956604,-0.8488025069236755,-0.05981234461069107,-0.5253159403800964,-0.006483197212219238,-0.013384047895669937,0.01852583885192871,0.6501164685600831,0.34997497137465383,-0.33890933317971694,0.583100848843963
1728328526073908500,3.268908447265625,0.09551536291837692,0.06421533226966858,-0.2017032951116562,-0.8482835292816162,-0.062009297311306,-0.5258991122245789,-0.02773880958557129,-0.009722236543893814,-0.022135496139526367,0.6506988304363732,0.3503803885859354,-0.3380591969378866,0.5827010809729466
1728328526083939600,3.278939697265625,0.05778249725699425,0.10283303260803223,-0.17814549803733826,-0.8477640151977539,-0.0640590563416481,-0.5264908075332642,-0.02253621816635132,0.00575527548789978,0.034425437450408936,0.651234490627143,0.3507510768855024,-0.3372362275882317,0.5823563897168266
1728328526093970400,3.288970458984375,-0.06256575137376785,0.12391354143619537,-0.17411240935325623,-0.847034752368927,-0.06550535559654236,-0.527485728263855,-0.023097693920135498,0.02036987990140915,0.05293738842010498,0.651936786277837,0.35069238081554305,-0.3365590542870214,0.5819976665928731
1728328526104001500,3.29900146484375,-0.13236699998378754,0.09768737852573395,-0.18095727264881134,-0.8463271260261536,-0.06645459681749344,-0.5285018086433411,-0.019181907176971436,0.01823684573173523,0.02522122859954834,0.652814565088563,0.3503295716544862,-0.33618191516392437,0.5814499212735681
1728328526114032600,3.30903271484375,-0.20977364480495453,0.059273939579725266,-0.1923055350780487,-0.845795214176178,-0.06715629994869232,-0.5292641520500183,-0.0009455084800720215,0.0033593475818634033,0.03265160322189331,0.6537846151480358,0.3498730415477779,-0.33609045057944714,0.580687321781576
1728328526124063700,3.319063720703125,-0.35731109976768494,0.05947452783584595,-0.16618098318576813,-0.8453770875930786,-0.06716884672641754,-0.5299301147460938,0.013284802436828613,0.0008083954453468323,0.04474639892578125,0.6548943964378908,0.34908311061602487,-0.3364162939301865,0.5797226654931126
1728328526134094600,3.329094482421875,-0.5007162094116211,0.06038959324359894,-0.1440967321395874,-0.8449417948722839,-0.06616638600826263,-0.5307496786117554,0.012590169906616211,0.016941562294960022,0.05350053310394287,0.6561993950997639,0.34773883559597707,-0.33719854568742313,0.5785992332844714
1728328526144125700,3.339125732421875,-0.5957773923873901,0.04720774292945862,-0.162789985537529,-0.8445557951927185,-0.06450141966342926,-0.5315684676170349,0.003140389919281006,0.03579968214035034,0.05624198913574219,0.6576822661683162,0.3460220205454627,-0.33835561172673567,0.5772679055404163
1728328526154156800,3.34915673828125,-0.6392273902893066,0.039181508123874664,-0.18674778938293457,-0.8442219495773315,-0.06264291703701019,-0.532320499420166,-0.009202063083648682,0.051656633615493774,0.05102783441543579,0.6593331793510308,0.3441369549777652,-0.3397197317593529,0.5757082546708885
1728328526164187600,3.359187744140625,-0.6032576560974121,0.022143080830574036,-0.20756544172763824,-0.8439425826072693,-0.0609770305454731,-0.5329566597938538,-0.022115707397460938,0.059573251754045486,0.025571346282958984,0.6610362126185494,0.34231605736404297,-0.34108854695406665,0.5740292242682848
1728328526174218800,3.36921875,-0.5391197204589844,-0.002735370770096779,-0.21171225607395172,-0.8437778353691101,-0.05969272926449776,-0.5333625674247742,-0.025484800338745117,0.06777992844581604,-0.01029270887374878,0.6626249967231357,0.34075989474134044,-0.3423468950207021,0.5723716582802137
1728328526184249600,3.37924951171875,-0.4579978585243225,-0.026148071512579918,-0.21595972776412964,-0.843722403049469,-0.05880916863679886,-0.5335485339164734,-0.020214974880218506,0.08235350251197815,-0.01698857545852661,0.6640735491907129,0.3394915004061092,-0.343469453714762,0.5707719821357001
1728328526194280700,3.38928076171875,-0.3319014310836792,-0.053856395184993744,-0.21129760146141052,-0.8438186645507812,-0.05850540101528168,-0.5334296822547913,-0.019615113735198975,0.08592546731233597,-0.02630847692489624,0.6652868547513845,0.3386611829561813,-0.34437445702337327,0.5693050932555014
1728328526204311600,3.3993115234375,-0.2498091459274292,-0.08473319560289383,-0.19913308322429657,-0.8440812230110168,-0.058714259415864944,-0.5329910516738892,-0.02109205722808838,0.06847992539405823,-0.037199318408966064,0.6662283806234425,0.33826915904336546,-0.3450774584582963,0.5680098165188675
1728328526214342700,3.4093427734375,-0.2821290194988251,-0.09002063423395157,-0.1776759922504425,-0.8444634079933167,-0.05891398340463638,-0.5323633551597595,-0.025302767753601074,0.04724104702472687,-0.02874809503555298,0.6670436460586908,0.33798731748832356,-0.34580760396167093,0.5667755660372276
1728328526224373500,3.41937353515625,-0.35626161098480225,-0.07072518020868301,-0.1674443930387497,-0.8447916507720947,-0.05865822359919548,-0.5318704843521118,-0.023372352123260498,0.032504696398973465,-0.0004170536994934082,0.6679275259201723,0.33744525944308057,-0.346692145787369,0.5655157422489275
1728328526234404600,3.429404541015625,-0.43714579939842224,-0.044203825294971466,-0.14396516978740692,-0.8450328707695007,-0.0578707754611969,-0.531573474407196,-0.027098417282104492,0.01665680482983589,0.022631824016571045,0.6689171812454127,0.33657508353612964,-0.34775059227567395,0.5642131830065162
1728328526244435500,3.439435546875,-0.5410599112510681,-0.025040995329618454,-0.12957371771335602,-0.8451470136642456,-0.05638566613197327,-0.5315516591072083,-0.027014851570129395,0.018345527350902557,0.03937947750091553,0.670057436223963,0.3352623907508564,-0.34903193473898,0.5628488555414393
1728328526254466600,3.449466552734375,-0.6026902198791504,-0.024016477167606354,-0.14843422174453735,-0.8452034592628479,-0.05446261167526245,-0.5316622853279114,-0.02587491273880005,0.03889867663383484,0.03331029415130615,0.6713661349124931,0.33362961741360997,-0.3505141154149902,0.5613363670749499
1728328526264497400,3.459497314453125,-0.5613176226615906,-0.02791454643011093,-0.17544719576835632,-0.8452625870704651,-0.052690617740154266,-0.5317469835281372,-0.03344529867172241,0.06410422921180725,0.012978672981262207,0.6727578933535681,0.3320040322290574,-0.3519940688133303,0.559705523538494
1728328526274528800,3.46952880859375,-0.4417920410633087,-0.01520940288901329,-0.18810173869132996,-0.8452942967414856,-0.05152314156293869,-0.5318109393119812,-0.03951704502105713,0.08567235618829727,-0.0072972774505615234,0.6740695329396087,0.3306768658275377,-0.3531958875234622,0.5581538081249576
1728328526284559600,3.4795595703125,-0.2662070095539093,0.005028809420764446,-0.17226551473140717,-0.845243513584137,-0.051132477819919586,-0.5319293141365051,-0.03860658407211304,0.11012299358844757,-0.0328441858291626,0.6751536785154413,0.3298025885793422,-0.35392877927533367,0.5568950682806372
1728328526294590700,3.4895908203125,-0.04504800960421562,0.003751024603843689,-0.13450855016708374,-0.8451400995254517,-0.05157152935862541,-0.5320514440536499,-0.03329312801361084,0.121441550552845,-0.0614849328994751,0.6758331359482382,0.32953037969432497,-0.35409603751488167,0.5561253570174615
1728328526304621800,3.499621826171875,0.07709860056638718,-0.041261136531829834,-0.11123758554458618,-0.8451717495918274,-0.05273030325770378,-0.5318874716758728,-0.028103947639465332,0.11472679674625397,-0.09096109867095947,0.6760959055703777,0.32988046586736464,-0.35388579123147335,0.5557320619485847
1728328526314652700,3.509652587890625,0.07478777319192886,-0.07191465049982071,-0.11652901768684387,-0.8454331159591675,-0.054086651653051376,-0.5313355922698975,-0.02100670337677002,0.10802651941776276,-0.04869675636291504,0.6761648917614983,0.3305120226841223,-0.3536863104325818,0.5553997838947307
1728328526324683800,3.519683837890625,0.047014739364385605,-0.04623991623520851,-0.14098508656024933,-0.8456929922103882,-0.05548914894461632,-0.5307770371437073,-0.01841217279434204,0.0952078104019165,0.008544981479644775,0.6763104086895482,0.3311147877285904,-0.35351731433642886,0.5549708441187602
1728328526334714600,3.529714599609375,0.006053989753127098,0.0169406495988369,-0.16408002376556396,-0.8457056879997253,-0.056934911757707596,-0.5306037068367004,-0.018521606922149658,0.05313550680875778,0.02887946367263794,0.6766532097871724,0.3315343255926884,-0.3532465669909409,0.5544747733570116
1728328526344745700,3.539745849609375,-0.12258541584014893,0.05724402517080307,-0.17259015142917633,-0.8454006314277649,-0.05807234346866608,-0.5309664607048035,-0.008359134197235107,0.009900368750095367,0.03986233472824097,0.6772743984722062,0.3315429112359296,-0.35298169490370973,0.5538795847876975
1728328526354776600,3.549776611328125,-0.28287041187286377,0.061961814761161804,-0.17896468937397003,-0.8449828624725342,-0.05844607576727867,-0.5315901041030884,0.006817638874053955,-0.005747616291046143,0.04597914218902588,0.678205196084514,0.33098419394504935,-0.35306433115027996,0.5530214884509311
1728328526364807700,3.5598076171875,-0.365170955657959,0.04016149789094925,-0.19652211666107178,-0.8446109294891357,-0.0582619234919548,-0.5322009325027466,0.020956814289093018,-0.011211328208446503,0.04108154773712158,0.6793454728335412,0.33005993492641117,-0.35349677708780114,0.5518968587377487
1728328526374838500,3.569838623046875,-0.3778587877750397,0.02747046947479248,-0.2139969766139984,-0.8443159461021423,-0.058000724762678146,-0.532697319984436,0.02757406234741211,-0.014982026070356369,0.023984551429748535,0.6805920444164942,0.32905517366684794,-0.3540819636443032,0.5505843036972795
1728328526384869600,3.57986962890625,-0.3690979778766632,0.012271275743842125,-0.21366675198078156,-0.8441029191017151,-0.05780550837516785,-0.5330560803413391,0.025148451328277588,0.0021262168884277344,0.008168995380401611,0.6818339054390947,0.3281045716518881,-0.3547102520705867,0.549209014932538
1728328526394900500,3.589900390625,-0.3157777786254883,-0.011647904291749,-0.20484928786754608,-0.8439865708351135,-0.05769520625472069,-0.5332522392272949,0.0222092866897583,0.03567679971456528,-0.002865314483642578,0.6829736211637135,0.3272835248840482,-0.3553299454916413,0.5478806744856509
1728328526404931600,3.599931640625,-0.25079211592674255,-0.046946827322244644,-0.19369357824325562,-0.8440354466438293,-0.05786644294857979,-0.533156156539917,0.012370467185974121,0.062032122164964676,-0.013886630535125732,0.6839320967162917,0.326750780513415,-0.3558873899501659,0.5466395543204952
1728328526414963700,3.609963623046875,-0.21818198263645172,-0.06310822069644928,-0.1834007203578949,-0.844240128993988,-0.05821254476904869,-0.5327944755554199,0.0067768096923828125,0.07553130388259888,-0.002605915069580078,0.6847203176809333,0.3264500108655422,-0.3564171169770709,0.5454863770787735
1728328526424994800,3.619994873046875,-0.190870463848114,-0.06034321337938309,-0.19840097427368164,-0.844470739364624,-0.05871262773871422,-0.5323740243911743,0.013751745223999023,0.08459156006574631,0.016810059547424316,0.6854591902177545,0.32625520549356185,-0.3568900855828179,0.544364562386655
1728328526435025700,3.630025634765625,-0.1847206950187683,-0.06849168986082077,-0.24490110576152802,-0.8446875810623169,-0.05957551673054695,-0.5319339036941528,0.01521986722946167,0.08244847506284714,0.024609684944152832,0.6862473560388227,0.32618303527308035,-0.35726417002563077,0.5431680617429243
1728328526445056800,3.640056884765625,-0.21499164402484894,-0.09233284741640091,-0.26794812083244324,-0.8449716567993164,-0.06069611385464668,-0.5313557386398315,0.007248878479003906,0.07517674565315247,0.03466689586639404,0.6871235828674512,0.32618481437724217,-0.3576668863740314,0.5417924569786924
1728328526455087600,3.650087646484375,-0.20779046416282654,-0.1477646678686142,-0.26486122608184814,-0.845464289188385,-0.061800409108400345,-0.5304440259933472,0.00833660364151001,0.07362601161003113,0.026873469352722168,0.6879781970239264,0.32625114249100173,-0.35824317830956337,0.5402851463121084
1728328526465118700,3.66011865234375,-0.1730141043663025,-0.19627149403095245,-0.22966355085372925,-0.8462511301040649,-0.06287232041358948,-0.5290615558624268,0.004454255104064941,0.06146853417158127,0.011040925979614258,0.688634049181849,0.32651580993386786,-0.3589660925246948,0.5388078361662758
1728328526475149600,3.670149658203125,-0.18737652897834778,-0.20194216072559357,-0.18789321184158325,-0.8471916317939758,-0.06366884708404541,-0.5274586081504822,-0.00160902738571167,0.0438019260764122,0.008980274200439453,0.68911989316656,0.32681158713553093,-0.35981227294864077,0.5374412044890716
1728328526485181200,3.68018115234375,-0.215320885181427,-0.18993130326271057,-0.1714135706424713,-0.8481146693229675,-0.06410618871450424,-0.5259199738502502,-0.00985652208328247,0.04071448743343353,0.0071974992752075195,0.6895738069215293,0.3269605294713309,-0.36074481302380745,0.5361416559234823
1728328526495212000,3.6902119140625,-0.21768923103809357,-0.17938119173049927,-0.16675889492034912,-0.8489803671836853,-0.06439197808504105,-0.5244863033294678,-0.013629436492919922,0.04539480805397034,-0.004825770854949951,0.6900452873098508,0.3270106873564025,-0.36169164828440187,0.5348649805245634
1728328526505243100,3.7002431640625,-0.22816821932792664,-0.19715437293052673,-0.16468508541584015,-0.8498563170433044,-0.06460606306791306,-0.5230394005775452,-0.00022602081298828125,0.054016515612602234,-0.004365324974060059,0.690510964917471,0.327032132436218,-0.36267104630098246,0.5335861304942517
1728328526515274200,3.710274169921875,-0.18482527136802673,-0.22500571608543396,-0.16457483172416687,-0.8508529663085938,-0.06489551067352295,-0.521380603313446,0.014946043491363525,0.07138053327798843,-0.009823620319366455,0.6909117049104576,0.3271610927681508,-0.3636967513237435,0.5322887028142181
1728328526525305300,3.720305419921875,-0.10547227412462234,-0.2472795993089676,-0.15316665172576904,-0.8520113825798035,-0.0654958114027977,-0.5194101929664612,0.010565459728240967,0.08115135878324509,-0.026961207389831543,0.691137615094547,0.3275897038044454,-0.36466406966274784,0.5310686632843539
1728328526535336200,3.730336181640625,-0.047157831490039825,-0.24401189386844635,-0.10875152796506882,-0.8532111048698425,-0.06621567159891129,-0.5173455476760864,-0.00799494981765747,0.07523363083600998,-0.040088534355163574,0.6911570257575689,0.3282228391989479,-0.36550921733665515,0.530070592446677
1728328526545367300,3.7403671875,-0.005634357687085867,-0.22793523967266083,-0.07298526912927628,-0.8543956279754639,-0.06683345139026642,-0.5153071284294128,-0.028767764568328857,0.0657653734087944,-0.03640490770339966,0.6909929508393605,0.3289315119094953,-0.3662656275698885,0.5293224814035693
1728328526555398100,3.750398193359375,0.008996782824397087,-0.15893487632274628,-0.05833601951599121,-0.8553707003593445,-0.06737879663705826,-0.5136154890060425,-0.04274624586105347,0.054302044212818146,-0.005564749240875244,0.6907888664471686,0.3295788666966057,-0.3668378642774014,0.5287895077793997
1728328526565429200,3.76042919921875,0.0037442969623953104,-0.09567862749099731,-0.06496036797761917,-0.8559899926185608,-0.06789941340684891,-0.512514054775238,-0.058331847190856934,0.044339895248413086,0.0003986358642578125,0.6906907851873909,0.33004648055828434,-0.36716794998118973,0.5283967580393136
1728328526575460000,3.770460205078125,-0.0065653324127197266,-0.06416784226894379,-0.052283719182014465,-0.8563557863235474,-0.06839638948440552,-0.5118364691734314,-0.06941014528274536,0.029440738260746002,-0.020054280757904053,0.690710895851658,0.33035365828011404,-0.36735298047416487,0.5280498259868276
1728328526585491200,3.7804912109375,-0.012492597103118896,-0.053862255066633224,-0.021343912929296494,-0.8566370606422424,-0.06867646425962448,-0.5113281607627869,-0.05210012197494507,0.015057116746902466,-0.005990505218505859,0.6907172851466541,0.33055014510879577,-0.36752214994508026,0.5278007500594136
1728328526595522000,3.79052197265625,-0.03728849068284035,-0.02819737419486046,0.013826590031385422,-0.856852114200592,-0.06856812536716461,-0.5109822154045105,-0.02089446783065796,0.004801668226718903,0.0020101070404052734,0.6906835872678272,0.33058197732141864,-0.3677287712621896,0.5276809942853918
1728328526605553200,3.80055322265625,-0.0746014416217804,-0.02203817293047905,0.01934732310473919,-0.8563018441200256,-0.06446076929569244,-0.5124374032020569,-0.005102634429931641,-0.005241371691226959,-0.0021805763244628906,0.6905143166351586,0.32870433578489544,-0.3684219834302123,0.5285913306782191
1728328526615584300,3.810584228515625,-0.1267184317111969,-0.0322687067091465,0.02206268161535263,-0.8557819724082947,-0.06051851436495781,-0.5137845873832703,-0.0019297003746032715,-0.010770518332719803,0.002996683120727539,0.690440895997471,0.32684318340418334,-0.3691628980269103,0.5293236231528511
1728328526625615000,3.820614990234375,-0.16788025200366974,-0.020542381331324577,0.04205077514052391,-0.8557010889053345,-0.05729885399341583,-0.5142881870269775,0.0024907588958740234,-0.01872040331363678,0.020101845264434814,0.6903679193505226,0.325423587579257,-0.37007484550160946,0.5296565804194124
1728328526635646200,3.830646240234375,-0.2258482128381729,0.026807023212313652,0.04745565727353096,-0.8560486435890198,-0.054582275450229645,-0.5140054821968079,0.007522523403167725,-0.02903588116168976,0.03664952516555786,0.6902715675505671,0.324359318001207,-0.3711984354449424,0.5296489926511097
1728328526645677000,3.840677001953125,-0.27343955636024475,0.07002421468496323,0.05378785729408264,-0.8562845587730408,-0.052049946039915085,-0.5138750672340393,0.0051340460777282715,-0.02679217979311943,0.04854309558868408,0.6903521343429299,0.3232236941231888,-0.3722753026600451,0.5294823285162974
1728328526655708200,3.850708251953125,-0.2815680503845215,0.11752781271934509,0.07856324315071106,-0.8561038970947266,-0.0496823750436306,-0.5144100189208984,0.004510939121246338,-0.020691148936748505,0.06264305114746094,0.6906521243996163,0.3218985320548667,-0.3730634283494927,0.5293435440236252
1728328526665739000,3.860739013671875,-0.28404706716537476,0.15908047556877136,0.09289131313562393,-0.8557472825050354,-0.04752558469772339,-0.5152065753936768,0.016559720039367676,-0.01448611170053482,0.06101346015930176,0.6910226131677824,0.32057263741982134,-0.37367082573372085,0.5292362579486006
1728328526675770400,3.870770263671875,-0.25404444336891174,0.17976364493370056,0.09610921144485474,-0.8551236391067505,-0.04571443796157837,-0.5164046287536621,0.028097331523895264,-0.00383082777261734,0.06189107894897461,0.6914955774801141,0.31926139591099884,-0.37399179061450344,0.5291844090966549
1728328526685801200,3.88080126953125,-0.19684378802776337,0.1888270378112793,0.09066996723413467,-0.8542579412460327,-0.04434340447187424,-0.5179545879364014,0.043360114097595215,0.0025343485176563263,0.05915331840515137,0.6920193755387024,0.31805107315840275,-0.3739869128646746,0.5292318976688732
1728328526695832300,3.890832275390625,-0.14797212183475494,0.1745293140411377,0.09618297964334488,-0.8534339070320129,-0.043300557881593704,-0.5193992853164673,0.050714850425720215,0.004329640418291092,0.043279290199279785,0.6924323873735256,0.31707832803020825,-0.37384714461353324,0.5293741794500709
1728328526705863200,3.90086328125,-0.15477024018764496,0.17190241813659668,0.11579237133264542,-0.8527937531471252,-0.042280662804841995,-0.5205335021018982,0.054362356662750244,0.005033969879150391,0.04699230194091797,0.6927146050281094,0.31625566422948104,-0.37378550112031317,0.5295405691409976
1728328526715894300,3.910894287109375,-0.1559430956840515,0.1643771231174469,0.1268940269947052,-0.8522863388061523,-0.04122171923518181,-0.5214486718177795,0.051321983337402344,0.008262749761343002,0.044474244117736816,0.6929354114731007,0.3154928548170051,-0.3738180302167724,0.5296836837603647
1728328526725925000,3.920925048828125,-0.16578055918216705,0.1807750165462494,0.13518871366977692,-0.8519457578659058,-0.04011259973049164,-0.5220914483070374,0.04275691509246826,0.005170006304979324,0.037045061588287354,0.6930766357779264,0.3148062913147552,-0.37396695506839367,0.5298023891274115
1728328526735956200,3.930956298828125,-0.22605374455451965,0.17264465987682343,0.14013446867465973,-0.851569652557373,-0.03843655437231064,-0.5228306651115417,0.03496503829956055,0.0025784410536289215,0.04466599225997925,0.6932270606313445,0.3138485976988278,-0.37427761628758177,0.5299543819663604
1728328526745987000,3.940987060546875,-0.2926010191440582,0.17376701533794403,0.13366910815238953,-0.8510369062423706,-0.03619685769081116,-0.5238569378852844,0.030083537101745605,0.018161002546548843,0.049384891986846924,0.6935129285567991,0.3125013678301715,-0.3747191356174999,0.5300644975092623
1728328526756018200,3.95101806640625,-0.298444002866745,0.1519048511981964,0.1287558376789093,-0.8504873514175415,-0.03368247672915459,-0.5249158143997192,0.02382725477218628,0.02590053528547287,0.051267802715301514,0.6938639099948126,0.3109799153953239,-0.37527800627672403,0.5301043441977281
1728328526766049000,3.961049072265625,-0.28020697832107544,0.14564184844493866,0.12540584802627563,-0.8497399091720581,-0.031078491359949112,-0.5262852311134338,0.021218180656433105,0.026943378150463104,0.04641157388687134,0.6942546002266641,0.30934022771977515,-0.3757206433268606,0.5302387126247712
1728328526776081200,3.9710810546875,-0.27635180950164795,0.14636863768100739,0.130026176571846,-0.849012553691864,-0.028530726209282875,-0.5276018381118774,0.017835795879364014,0.039364490658044815,0.03462088108062744,0.6946270526466113,0.307744105114288,-0.3761550848228857,0.53037171609404
1728328526786112000,3.981112060546875,-0.2422305792570114,0.15198059380054474,0.15247023105621338,-0.8482559323310852,-0.025941498577594757,-0.5289507508277893,0.018788158893585205,0.05868687480688095,0.03647333383560181,0.6949356561252978,0.3061675021219095,-0.37654492789407895,0.5306032557163122
1728328526796143400,3.991143310546875,-0.18706347048282623,0.14483612775802612,0.16577404737472534,-0.8475071787834167,-0.02345251850783825,-0.5302655696868896,0.024203956127166748,0.05830361694097519,0.02713751792907715,0.6951149517498737,0.30473019191997985,-0.3768378163109173,0.5309877209443575
1728328526806174200,4.00117431640625,-0.16945059597492218,0.1288413554430008,0.15397784113883972,-0.8468149304389954,-0.021163789555430412,-0.5314664244651794,0.02837926149368286,0.04605090618133545,0.021273553371429443,0.6952131907340625,0.3034551734931412,-0.3770699458834583,0.5314243339388722
1728328526816205300,4.011205322265625,-0.20269137620925903,0.09791645407676697,0.145289808511734,-0.8462460041046143,-0.01893150992691517,-0.5324557423591614,0.023507416248321533,0.03042140230536461,0.015640616416931152,0.6953049763875446,0.3022410439278493,-0.37738901992926827,0.531769437922989
1728328526826236200,4.021236083984375,-0.2705024182796478,0.07790546864271164,0.15507106482982635,-0.8458123803138733,-0.01639486290514469,-0.5332284569740295,0.01753479242324829,0.025016095489263535,0.011194825172424316,0.695423501321824,0.3009041188480666,-0.37794507812745737,0.5319777289273946
1728328526836267300,4.031267333984375,-0.3068162202835083,0.056877411901950836,0.16935600340366364,-0.8454901576042175,-0.013457925990223885,-0.5338213443756104,0.014206647872924805,0.02944917604327202,0.010689079761505127,0.6955579703920169,0.2994023305021276,-0.3787447217412865,0.5320805882450499
1728328526846298000,4.041298095703125,-0.2929922938346863,0.06481832265853882,0.17506341636180878,-0.8451851606369019,-0.010378952138125896,-0.5343729257583618,0.0020149946212768555,0.04176630824804306,0.0034433603286743164,0.6956674348055731,0.29785786062550623,-0.37959747258559906,0.5321967403109008
1728328526856329200,4.0513291015625,-0.25999918580055237,0.09928228706121445,0.18148882687091827,-0.8447678089141846,-0.007381198927760124,-0.535082221031189,-0.013142406940460205,0.05654504895210266,-0.0023781657218933105,0.6957604036082552,0.2963339291523272,-0.38032237041497435,0.5324083735380707
1728328526866360000,4.061360107421875,-0.1944463551044464,0.1269501894712448,0.19700200855731964,-0.8441705703735352,-0.004561802372336388,-0.5360553860664368,-0.023657798767089844,0.07377568632364273,-0.0030223727226257324,0.6958159309273453,0.2948734651630132,-0.3808174867843837,0.5327926385096806
1728328526876391200,4.07139111328125,-0.10249219834804535,0.15346461534500122,0.28978678584098816,-0.8433574438095093,-0.0016480303602293134,-0.537350594997406,-0.024623632431030273,0.08226023614406586,-0.00967705249786377,0.6956663183407163,0.2934645167683866,-0.3810554849071357,0.5335951660804988
1728328526886422300,4.08142236328125,-0.013325100764632225,0.13051514327526093,0.2289801836013794,-0.8426390290260315,0.0008818361675366759,-0.5384780764579773,-0.0047882795333862305,0.06589064002037048,-0.02518153190612793,0.6952926980271572,0.29241204910296464,-0.3811248424181357,0.5346092879805271
1728328526896453000,4.091453125,-0.054603300988674164,0.13866016268730164,0.18773554265499115,-0.8418740034103394,0.0027250582352280617,-0.5396671891212463,-0.039351582527160645,0.03293474391102791,-0.028661668300628662,0.6950562223822536,0.2915604253594699,-0.38099728067420624,0.5354721079219023
1728328526906484200,4.101484130859375,-0.1750030815601349,0.12401080131530762,0.20072217285633087,-0.8411550521850586,0.004961015656590462,-0.5407713055610657,-0.047089576721191406,0.026105890050530434,-0.010696589946746826,0.6949542841728807,0.29044674136109305,-0.3811233835074106,0.5361195975481652
