time,seconds_elapsed,rotationRateX,rotationRateY,rotationRateZ,gravityX,gravityY,gravityZ,accelerationX,accelerationY,accelerationZ,quaternionW,quaternionX,quaternionY,quaternionZ
1728328897510796000,0.079796142578125,-0.07323603332042694,0.0006830105558037758,0.015315830707550049,0.010711775161325932,-0.2555473744869232,-0.9667372107505798,-0.008697615936398506,0.015297740697860718,0.019166409969329834,0.9916495012860533,0.12884964502640833,0.005400988485640544,-2.503225550236548e-18
1728328897520827100,0.0898271484375,-0.045598551630973816,-0.002263776957988739,0.022270675748586655,0.01020768005400896,-0.25403550267219543,-0.9671410322189331,-0.0034632962197065353,0.017631083726882935,0.013848185539245605,0.9917512830185803,0.12807355430102246,0.005162259827217888,0.00012366099918498366
1728328897530858000,0.09985791015625,-0.024580618366599083,-0.007634840905666351,0.026744520291686058,0.009824979119002819,-0.2526301145553589,-0.9675130248069763,0.001191866584122181,0.014165759086608887,0.007246911525726318,0.9918450177137093,0.1273522722092149,0.004987331795167864,0.00026831736141077074
1728328897540889000,0.10988916015625,-0.007779267616569996,-0.006867317482829094,0.02927692048251629,0.009319085627794266,-0.2519558072090149,-0.9676938652992249,0.009479742497205734,0.012453854084014893,0.0035215020179748535,0.9918905123737926,0.12700583973694984,0.004751835242943671,0.00042326782785127355
1728328897550921000,0.1199208984375,-0.01692243292927742,-0.010354194790124893,0.02921167202293873,0.008630032651126385,-0.25181546807289124,-0.9677367806434631,0.01535678282380104,0.017471015453338623,0.006875574588775635,0.9919012398471487,0.126933154205245,0.004424996127459404,0.0005841079686100823
1728328897560952000,0.1299521484375,-0.0388687439262867,-0.012507893145084381,0.03799531236290932,0.007797929458320141,-0.2518342137336731,-0.9677389860153198,0.014373090118169785,0.017443984746932983,0.010860323905944824,0.9919016676855568,0.12694198678135807,0.004030642309829073,0.0007801683827446964
1728328897570983200,0.139983154296875,-0.06545188277959824,-0.01769258826971054,0.040140487253665924,0.006917810067534447,-0.2517090141773224,-0.967778205871582,0.013116979040205479,0.008606016635894775,0.010655462741851807,0.9919113019533229,0.12687714553109747,0.0036155913394739616,0.0010044438285536376
1728328897581014300,0.15001416015625,-0.0884738489985466,-0.025017665699124336,0.04167020693421364,0.006245777010917664,-0.2510383129119873,-0.9679570198059082,0.011515451595187187,-0.0033867359161376953,0.010651111602783203,0.9919562414839718,0.12653293321611275,0.003303312571988711,0.0012159120711316268
1728328897591045000,0.160045166015625,-0.0983286127448082,-0.017012203112244606,0.04645377770066261,0.0058029210194945335,-0.24995125830173492,-0.9682410359382629,0.008433528244495392,-0.010638341307640076,0.01456671953201294,0.9920275158389168,0.1259755192022584,0.003106464796167408,0.0014307384248640447
1728328897601076200,0.170076171875,-0.09673377126455307,-0.006572824902832508,0.050569161772727966,0.0055953036062419415,-0.24874211847782135,-0.9685536026954651,0.005925081204622984,-0.004141777753829956,0.015398085117340088,0.9921059267366267,0.125355580038226,0.003030400075956399,0.0016658706077274682
1728328897611107000,0.180107177734375,-0.11808939278125763,0.0028539663180708885,0.05972111597657204,0.005583973601460457,-0.2475140392780304,-0.9688681960105896,0.0068977149203419685,-0.0019518733024597168,0.024059295654296875,0.9921846358334206,0.12472589532841297,0.0030567915187892773,0.0019315543466663975
1728328897621138200,0.19013818359375,-0.13613757491111755,0.012066639959812164,0.056094419211149216,0.005783873610198498,-0.24610348045825958,-0.9692263007164001,0.0037986449897289276,-0.012243062257766724,0.027682721614837646,0.9922742652916904,0.12400270013424522,0.0031907811331856814,0.002211187958268738
1728328897631170000,0.200170166015625,-0.13658258318901062,0.0058417669497430325,0.03512735292315483,0.006134586408734322,-0.24456536769866943,-0.9696133732795715,0.0011896309442818165,-0.01928958296775818,0.03066384792327881,0.9923712835361446,0.12321440340810551,0.0033926960587679733,0.0024308930233190207
1728328897641201000,0.210200927734375,-0.09825989603996277,0.008188437670469284,0.03139439970254898,0.006484440062195063,-0.24325163662433624,-0.9699415564537048,-0.0016168872825801373,-0.017109066247940063,0.023118436336517334,0.9924535594470378,0.1225413157743143,0.003585558448049766,0.0025810082821076776
1728328897651232000,0.22023193359375,-0.04659457504749298,0.021238192915916443,0.032796554267406464,0.006849056109786034,-0.2426234632730484,-0.9700963497161865,-0.002515560481697321,-0.005148753523826599,0.011050939559936523,0.9924922194313909,0.12221900416077243,0.0037860557247799582,0.0027254576799242342
1728328897661263000,0.23026318359375,-0.017115777358412743,0.03274044021964073,0.03838013857603073,0.007315649650990963,-0.24272172152996063,-0.9700683951377869,0.001152976881712675,0.01380939781665802,0.009558141231536865,0.9924846162141471,0.12226801215845778,0.004043277778532729,0.002903998751160919
1728328897671294000,0.2402939453125,-0.03214586153626442,0.039495550096035004,0.027628688141703606,0.007777316030114889,-0.2430867701768875,-0.9699733853340149,0.0034684110432863235,0.025206536054611206,0.011309444904327393,0.9924602792676591,0.1224534186626519,0.004298109167136033,0.0030790862141080056
1728328897681325000,0.250324951171875,-0.08110714703798294,0.03891865164041519,0.008445406332612038,0.008218977600336075,-0.24291707575321198,-0.9700122475624084,-0.0046179043129086494,0.02114585041999817,0.010188639163970947,0.9924696517286327,0.122365554699034,0.004533333050496254,0.003184773308299676
1728328897691356200,0.260356201171875,-0.13202305138111115,0.04035409539937973,-0.005670411512255669,0.008713986724615097,-0.24217155575752258,-0.9701943397521973,-0.017625119537115097,0.009475022554397583,0.012918949127197266,0.9925153991434746,0.12198341009280377,0.00478447878335303,0.003210892883123294
1728328897701387300,0.27038720703125,-0.16244792938232422,0.04775102436542511,-0.003886093385517597,0.009167184121906757,-0.24125675857067108,-0.9704180359840393,-0.024700630456209183,-0.0025634169578552246,0.019856512546539307,0.9925718513936925,0.12151494076897,0.005010516266172873,0.003207058384324676
1728328897711419100,0.280419189453125,-0.16982436180114746,0.04846874624490738,-0.013630066998302937,0.009624432772397995,-0.2402934730052948,-0.9706525802612305,-0.022258710116147995,-0.008836761116981506,0.01824474334716797,0.9926308792129035,0.12102180467062468,0.005238000222467185,0.003199295030504186
1728328897721450000,0.290449951171875,-0.14295567572116852,0.04927770793437958,-0.01398053951561451,0.010051783174276352,-0.23937217891216278,-0.9708758592605591,-0.015056666918098927,-0.006706312298774719,0.011357426643371582,0.9926872252928797,0.12055036287754595,0.005448137465362859,0.003172156826244369
1728328897731481000,0.300481201171875,-0.12190790474414825,0.053061261773109436,-0.010716835036873817,0.010459204204380512,-0.23837263882160187,-0.9711174368858337,-0.010321876034140587,0.0070799291133880615,0.00587695837020874,0.9927481185637684,0.12003908032601347,0.005647787632676717,0.003142545035394763
1728328897741512000,0.310511962890625,-0.11575626581907272,0.05116088315844536,-0.010468628257513046,0.010946844704449177,-0.23707590997219086,-0.9714294672012329,-0.008841132745146751,0.01326000690460205,0.0017639398574829102,0.9928266965121019,0.11937582444409059,0.005889671513617759,0.003132968662768598
1728328897751543000,0.32054296875,-0.12753568589687347,0.03779234737157822,-0.01193150319159031,0.011416343040764332,-0.23549211025238037,-0.9718092083930969,-0.009753135964274406,0.010226622223854065,0.002052128314971924,0.9929224893243506,0.11856615527118092,0.00612059209970603,0.0031130475876432356
1728328897761574100,0.33057421875,-0.1500674933195114,0.023879781365394592,-0.004421388730406761,0.011557556688785553,-0.2338608205318451,-0.972201406955719,-0.009177185595035553,0.0009506791830062866,0.004382193088531494,0.9930212550956581,0.11773285957462186,0.0061869078610894464,0.0030998372880068105
1728328897771605000,0.34060498046875,-0.15884287655353546,0.011585565283894539,0.010879270732402802,0.011195719242095947,-0.23242077231407166,-0.9725508689880371,-0.004405559040606022,-0.011033177375793457,0.006272852420806885,0.993108998573884,0.11699761753361484,0.006009211537933695,0.003161965841295416
1728328897781636900,0.350636962890625,-0.15164175629615784,-0.005880669690668583,0.02247493900358677,0.010412868112325668,-0.23141250014305115,-0.9728000164031982,0.005181613378226757,-0.01802290976047516,0.009665250778198242,0.9931713420083524,0.11648316910601264,0.0056278999885681445,0.003288327761887874
1728328897791668200,0.360668212890625,-0.14416466653347015,-0.010095388628542423,0.032146476209163666,0.009503438137471676,-0.23076103627681732,-0.9729640483856201,0.013888285495340824,-0.017301097512245178,0.002672910690307617,0.9932119795126468,0.11615095426579534,0.005189723699673576,0.003467701228377376
1728328897801699000,0.370698974609375,-0.13041384518146515,-0.0138234943151474,0.026418281719088554,0.008857729844748974,-0.23005372285842896,-0.973137617111206,0.01720428094267845,-0.012713596224784851,-0.005896806716918945,0.9932550923168059,0.11579010748335268,0.004882725328541971,0.003635256432312521
1728328897811730200,0.380730224609375,-0.12097879499197006,-0.02502208575606346,0.01796114817261696,0.008354393765330315,-0.2289409637451172,-0.9734044671058655,0.01143625471740961,-0.0028552860021591187,-0.010558545589447021,0.9933218067030181,0.11522250132266093,0.00464166015565282,0.0037619861667607525
1728328897821761000,0.390760986328125,-0.11779791116714478,-0.03034350834786892,0.02543557621538639,0.007846249267458916,-0.22764335572719574,-0.9737129807472229,-0.00497759785503149,0.004742980003356934,-0.0161857008934021,0.993398981327684,0.11456085690372671,0.004396259894231839,0.003876677676950442
1728328897831792000,0.400792236328125,-0.12761272490024567,-0.036221906542778015,0.024332227185368538,0.007277627941220999,-0.22638489305973053,-0.9740107655525208,-0.015563150867819786,0.005086690187454224,-0.020053565502166748,0.9934734160493869,0.11391947650386278,0.004121049570239548,0.003997027773323732
1728328897841823000,0.410822998046875,-0.14148040115833282,-0.04621381685137749,0.02579457126557827,0.006668324116617441,-0.2253183126449585,-0.9742623567581177,-0.019668813794851303,-0.00128994882106781,-0.018016695976257324,0.9935362741814523,0.11337627778554574,0.003824586940583496,0.00410759507154097
1728328897851854000,0.42085400390625,-0.15676507353782654,-0.05891816318035126,0.02825959213078022,0.006106882356107235,-0.22447986900806427,-0.9744595885276794,-0.02054169774055481,-0.008979588747024536,-0.015759527683258057,0.9935855003719294,0.11294947517052571,0.0035524329666141714,0.004216085650674969
1728328897861886000,0.430885986328125,-0.18063539266586304,-0.05232635885477066,0.05231619253754616,0.005740832537412643,-0.22369340062141418,-0.9746426343917847,-0.015308093279600143,-0.013504460453987122,-0.007504582405090332,0.9936308006873313,0.11254870613233953,0.003385298847788337,0.004383177739154078
1728328897871917000,0.4409169921875,-0.1819419413805008,-0.0629345253109932,0.043096065521240234,0.005587182939052582,-0.2226639837026596,-0.974879264831543,-0.007891260087490082,-0.0159682035446167,0.0032300949096679688,0.9936894546984646,0.11202371678327631,0.003326630004028996,0.00457086789361509
1728328897881948000,0.450947998046875,-0.1425045281648636,-0.07801787555217743,0.04296903312206268,0.005386081524193287,-0.22163508832454681,-0.9751148223876953,0.0004580332897603512,-0.009184598922729492,0.019685745239257812,0.9937480653158736,0.11149939581122513,0.00323786306889426,0.004704773039468928
1728328897891979000,0.46097900390625,-0.1293889880180359,-0.09056615829467773,0.08307303488254547,0.004841410089284182,-0.22058524191379547,-0.9753556847572327,0.007396138273179531,0.008488088846206665,0.014418184757232666,0.9938076122210991,0.11096500035008366,0.0029874854658337026,0.004941025055429981
1728328897902009900,0.471009765625,-0.16406601667404175,-0.09175360202789307,0.11059920489788055,0.003673279657959938,-0.2191442996263504,-0.9756855368614197,0.018039975315332413,-0.004717379808425903,-0.005286753177642822,0.9938883234989556,0.1102326977653199,0.002444907243480592,0.0053824769712302505
1728328897912041200,0.481041259765625,-0.22876591980457306,-0.11405491828918457,0.11023275554180145,0.0021191558334976435,-0.2171848714351654,-0.9761281609535217,0.02386656031012535,-0.03247940540313721,-0.011741042137145996,0.99399664930614,0.10923812052046745,0.001714236501041475,0.005898741537606808
1728328897922072000,0.491072021484375,-0.3000669777393341,-0.1405699998140335,0.10071595013141632,0.00024715150357224047,-0.2147487998008728,-0.9766693115234375,0.011441079899668694,-0.03529694676399231,-0.007354736328125,0.9941298410152585,0.10800320999227217,0.000815473550177011,0.0063619483066766945
1728328897932103200,0.501103271484375,-0.3445202112197876,-0.15939854085445404,0.12073200196027756,-0.001840410754084587,-0.21201136708259583,-0.977265477180481,0.015786942094564438,-0.03292270004749298,0.003495335578918457,0.9942767339916702,0.10661719827781468,-0.00019279217623785057,0.006833012072006044
1728328897942135000,0.511135009765625,-0.38516417145729065,-0.1776459813117981,0.16835704445838928,-0.004000765271484852,-0.20911277830600739,-0.9778833389282227,0.03540335223078728,-0.04038366675376892,0.0027246475219726562,0.994427344322838,0.10515149092212762,-0.001221145639147673,0.007475329414670922
1728328897952166100,0.521166259765625,-0.4192342460155487,-0.1869926154613495,0.19726060330867767,-0.006110640242695808,-0.20599819719791412,-0.9785332679748535,0.05518290400505066,-0.04520723223686218,-0.006711423397064209,0.9945842680160684,0.1035783683857544,-0.002207789135592202,0.008297946567448384
1728328897962197000,0.531197021484375,-0.42034292221069336,-0.19060465693473816,0.20116426050662994,-0.008057612925767899,-0.20267799496650696,-0.9792122840881348,0.0606088787317276,-0.04134054481983185,0.009668827056884766,0.9947473048954206,0.10190277268507161,-0.00311128486028421,0.009164266521651544
1728328897972228000,0.54122802734375,-0.39894869923591614,-0.1961275190114975,0.23620720207691193,-0.009908661246299744,-0.19895543158054352,-0.9799584746360779,0.055166229605674744,-0.027607053518295288,0.01426023244857788,0.9949256229298901,0.10002537086766561,-0.003962353072046567,0.010118274743631138
1728328897982259000,0.551259033203125,-0.40736687183380127,-0.1948210746049881,0.2875015437602997,-0.012320248410105705,-0.19495610892772675,-0.9807345867156982,0.056418146938085556,-0.02533501386642456,0.004935026168823242,0.9951076654400435,0.09801503120064295,-0.005075416378645168,0.011320086985899595
1728328897992290000,0.5612900390625,-0.44358986616134644,-0.19598008692264557,0.3301541805267334,-0.014808712527155876,-0.19075219333171844,-0.9815264940261841,0.06687170267105103,-0.03208714723587036,0.013768315315246582,0.9952893753377715,0.09590703415022551,-0.00621144276007744,0.012743310353747853
1728328898002321000,0.57132080078125,-0.5501777529716492,-0.1842193603515625,0.3703618049621582,-0.01728459633886814,-0.185857892036438,-0.9824246168136597,0.07491704076528549,-0.04929529130458832,0.03241240978240967,0.995492607751629,0.0934556274248004,-0.007331184677300733,0.014382848479327193
1728328898012352000,0.58135205078125,-0.7138031721115112,-0.18663537502288818,0.400121808052063,-0.019778700545430183,-0.1795720010995865,-0.9835459589958191,0.08414027094841003,-0.07097728550434113,0.05828356742858887,0.9957464066796398,0.09030716155016803,-0.00846316355559083,0.016191243608860425
1728328898022384000,0.591384033203125,-0.8848608732223511,-0.19512100517749786,0.43474796414375305,-0.02236994355916977,-0.1716027706861496,-0.9849122166633606,0.09268244355916977,-0.08266967535018921,0.0800812840461731,0.9960556421519846,0.08631707740598007,-0.009656772287437823,0.018145761305472807
1728328898032415200,0.601415283203125,-1.0898361206054688,-0.19741585850715637,0.4838835597038269,-0.02503802813589573,-0.16176889836788177,-0.9865109920501709,0.10063006728887558,-0.09543323516845703,0.0825498104095459,0.9964152954405504,0.08139763795185385,-0.010905590334784963,0.020301783661747102
1728328898042446000,0.611446044921875,-1.3547556400299072,-0.19240282475948334,0.5329195857048035,-0.02773359790444374,-0.14956112205982208,-0.9883634448051453,0.10701826214790344,-0.11636903882026672,0.07959574460983276,0.9968283718302761,0.07529615471762667,-0.012196775003907895,0.02269316145863043
1728328898052477200,0.621477294921875,-1.678819179534912,-0.20710080862045288,0.5574177503585815,-0.030446989461779594,-0.13437312841415405,-0.9904629588127136,0.10993002355098724,-0.12623171508312225,0.09135407209396362,0.9972931722405397,0.06771207560207566,-0.01354998674092076,0.025256732219065867
1728328898062508000,0.631508056640625,-1.9945201873779297,-0.24596363306045532,0.5716456770896912,-0.03337007015943527,-0.11589733511209488,-0.992700457572937,0.11343294382095337,-0.12233810871839523,0.10572236776351929,0.9977841288720423,0.05849888667214847,-0.015087727027756157,0.02787644515370058
1728328898072539100,0.6415390625,-2.247117280960083,-0.278344988822937,0.5926880836486816,-0.03655262291431427,-0.09450824558734894,-0.9948527812957764,0.12180347740650177,-0.10815896093845367,0.11489373445510864,0.9982454397981577,0.04785245842613948,-0.01684461728465191,0.03053655338284893
1728328898082570000,0.651570068359375,-2.455122947692871,-0.29985642433166504,0.6331253051757812,-0.03989654406905174,-0.07073814421892166,-0.9966967105865479,0.13305145502090454,-0.11049046367406845,0.11006957292556763,0.9986178758813327,0.036044546960755965,-0.018772938407657116,0.033327628994745666
1728328898092601000,0.66160107421875,-2.582798480987549,-0.31056898832321167,0.6652432680130005,-0.04326635226607323,-0.04521327093243599,-0.998039960861206,0.13637548685073853,-0.11523286998271942,0.09832078218460083,0.9988509629336617,0.023388614230602928,-0.02080834761916826,0.03628850851593603
1728328898102633000,0.671633056640625,-2.6444764137268066,-0.32469630241394043,0.6816752552986145,-0.046623941510915756,-0.018698999658226967,-0.9987374544143677,0.13207316398620605,-0.1032949909567833,0.08780306577682495,0.9989095936635505,0.010263151629218852,-0.022933103502685678,0.03935189015103774
1728328898112664000,0.6816640625,-2.686901330947876,-0.3441115617752075,0.6867501735687256,-0.049964550882577896,0.008331595920026302,-0.9987162351608276,0.1266857385635376,-0.08753994107246399,0.06442058086395264,0.9987777224961308,-0.003102378088559191,-0.02514468379078627,0.04244284461093052
1728328898122695000,0.69169482421875,-2.7189223766326904,-0.38400426506996155,0.6882239580154419,-0.053424157202243805,0.035765428096055984,-0.997931182384491,0.1272461712360382,-0.0665728971362114,0.04178500175476074,0.9984440033036153,-0.01665523032668983,-0.027513627223102514,0.04555556520619873
1728328898132726000,0.70172607421875,-2.7574288845062256,-0.4218808114528656,0.6910708546638489,-0.05706935375928879,0.06351275742053986,-0.996347963809967,0.13362270593643188,-0.03320877254009247,0.01700836420059204,0.9979013270451711,-0.030356883512778838,-0.030074727635824878,0.0486523317744832
1728328898142757000,0.711757080078125,-2.8323192596435547,-0.46961596608161926,0.6905195713043213,-0.06095659360289574,0.09181767702102661,-0.9939083456993103,0.13978350162506104,-0.015462659299373627,-0.011508524417877197,0.9971334393203056,-0.04433465549912218,-0.03286734999835366,0.051761681230044654
1728328898152788200,0.721788330078125,-2.9301953315734863,-0.5076914429664612,0.6883895993232727,-0.06502029299736023,0.12094477564096451,-0.9905275106430054,0.14453384280204773,-0.018817663192749023,-0.01788008213043213,0.9961198890186015,-0.05873263177621392,-0.03587101071516421,0.05485334231972538
1728328898162819000,0.731819091796875,-2.981498956680298,-0.554350733757019,0.6870465874671936,-0.06932760775089264,0.1507416069507599,-0.9861392378807068,0.14762045443058014,-0.024749755859375,-0.011327743530273438,0.9948449167920792,-0.07348428936299677,-0.039120675494564376,0.057906268465342546
1728328898172850200,0.74185009765625,-2.9883384704589844,-0.5976853966712952,0.6954057216644287,-0.07380361109972,0.1806948184967041,-0.980766236782074,0.1369902491569519,-0.037628382444381714,-0.007698118686676025,0.993310288023701,-0.08834253697554607,-0.04257320912611504,0.06097405511310335
1728328898182882000,0.751882080078125,-2.9725379943847656,-0.6392495632171631,0.7085686326026917,-0.07843886315822601,0.2104925811290741,-0.9744435548782349,0.11953077465295792,-0.045377179980278015,-0.021390795707702637,0.9915199849389791,-0.10315763893284309,-0.04622476375302732,0.06410912860695289
1728328898192913000,0.761912841796875,-2.94026255607605,-0.6950814127922058,0.7049339413642883,-0.08330702036619186,0.23987630009651184,-0.9672224521636963,0.10918593406677246,-0.025276660919189453,-0.045152366161346436,0.9894866307817488,-0.11780510736167708,-0.05010709387724319,0.06728730656384196
1728328898202943700,0.77194384765625,-2.91914701461792,-0.7681929469108582,0.6979876160621643,-0.08853504806756973,0.2687667906284332,-0.9591277241706848,0.11542103439569473,0.00036776065826416016,-0.07082527875900269,0.9872181935645833,-0.1322494642888445,-0.05427915710484721,0.07045658892973432
1728328898212974800,0.781974853515625,-2.9143893718719482,-0.8481059074401855,0.6932544112205505,-0.09424752742052078,0.2973402142524719,-0.950108528137207,0.13628548383712769,0.01940178871154785,-0.08999156951904297,0.9846984856199587,-0.14658146291826954,-0.058818460469085176,0.07364289964456885
1728328898223005700,0.792005615234375,-2.9058966636657715,-0.913317859172821,0.6874068975448608,-0.10040730237960815,0.32561755180358887,-0.9401550889015198,0.15980976819992065,0.02052810788154602,-0.09223932027816772,0.9819237245700712,-0.160820541287627,-0.06371190145569591,0.07683457366991106
1728328898233036800,0.802036865234375,-2.91182541847229,-0.9639917016029358,0.6979665756225586,-0.10683447122573853,0.3536882996559143,-0.9292421340942383,0.17249304056167603,-0.008809119462966919,-0.09190648794174194,0.978882753235892,-0.17502525777123018,-0.0688845415083571,0.08006075673279776
1728328898243067600,0.812067626953125,-2.8962132930755615,-1.015228271484375,0.7360836267471313,-0.11331173777580261,0.381402850151062,-0.9174379110336304,0.1737670600414276,-0.045511066913604736,-0.08280622959136963,0.9755796174638299,-0.18912382972991557,-0.07425103374747186,0.08344757444183902
1728328898253100000,0.82210009765625,-2.816882848739624,-1.0723706483840942,0.7577827572822571,-0.11984523385763168,0.4084501266479492,-0.9048787951469421,0.17094692587852478,-0.04988378286361694,-0.06907445192337036,0.9720406910387246,-0.20295176105831292,-0.07981971970642301,0.08704234491672402
1728328898263131000,0.832130859375,-2.6036441326141357,-1.1240037679672241,0.735517680644989,-0.12654490768909454,0.4338708221912384,-0.8920440077781677,0.15559764206409454,-0.011782169342041016,-0.07479864358901978,0.9683979180067723,-0.21599986980708857,-0.08556902535682748,0.09070565079389355
1728328898273162000,0.842161865234375,-2.3058810234069824,-1.134172797203064,0.7263377904891968,-0.13331186771392822,0.4566494822502136,-0.8796017169952393,0.12893258035182953,0.025101065635681152,-0.10941189527511597,0.9648248136663146,-0.22770787810854087,-0.09136876133138877,0.0944144671623643
1728328898283192800,0.85219287109375,-2.0147414207458496,-1.1222800016403198,0.721759557723999,-0.1397126168012619,0.4765739142894745,-0.8679618239402771,0.1092866063117981,0.0311928391456604,-0.13019180297851562,0.9614216677203978,-0.23794076907760142,-0.09697051050731066,0.0982313344437155
1728328898293224000,0.862223876953125,-1.7708725929260254,-1.1775107383728027,0.7086368203163147,-0.1460949331521988,0.4940446615219116,-0.8570742011070251,0.09204830229282379,0.051457107067108154,-0.15121132135391235,0.9581809050838942,-0.24687559586561686,-0.10254436332671907,0.10211046116169792
1728328898303254800,0.8722548828125,-1.5074751377105713,-1.2507457733154297,0.6970112919807434,-0.15290090441703796,0.5090942978858948,-0.8470208644866943,0.08072681725025177,0.0811309814453125,-0.1567174792289734,0.9551132442006305,-0.2544698445874634,-0.10832661582092726,0.10615692474594171
1728328898313286000,0.882285888671875,-1.3053632974624634,-1.3210463523864746,0.7009080648422241,-0.1601414680480957,0.5220270752906799,-0.8377603888511658,0.1008152961730957,0.09816646575927734,-0.18392229080200195,0.9522051721482581,-0.26086051954724787,-0.11433106286975515,0.11038808494239372
1728328898323316700,0.892316650390625,-1.1863738298416138,-1.3548356294631958,0.7061861753463745,-0.16756831109523773,0.5335870981216431,-0.8289787173271179,0.12038812041282654,0.09977477788925171,-0.1954505443572998,0.9493745577961937,-0.266453719372066,-0.12047010731816389,0.11479330072258198
1728328898333348900,0.902348876953125,-1.0839036703109741,-1.3660680055618286,0.7329986095428467,-0.1748814433813095,0.544197142124176,-0.8205279111862183,0.1349339336156845,0.09938812255859375,-0.18720829486846924,0.9465824835152465,-0.2714895696864894,-0.12660754476766226,0.11935545110163429
1728328898343380000,0.9123798828125,-1.048047661781311,-1.3858553171157837,0.771609365940094,-0.18193615972995758,0.5541966557502747,-0.8122593760490417,0.13704480230808258,0.08482623100280762,-0.16363167762756348,0.9437792392175702,-0.2761490825292611,-0.13271015460108332,0.12413949306666365
1728328898353411000,0.9224111328125,-1.0803076028823853,-1.4028973579406738,0.7217323780059814,-0.18899352848529816,0.5642104148864746,-0.8037089109420776,0.12772949039936066,0.07592630386352539,-0.1451588273048401,0.9408677630070933,-0.28079972317178664,-0.13891385099298695,0.12892748338411472
1728328898363442000,0.93244189453125,-1.10927414894104,-1.4138644933700562,0.6427299380302429,-0.196305051445961,0.5742877721786499,-0.7947691082954407,0.1010749340057373,0.07628601789474487,-0.12521380186080933,0.9378680410871182,-0.2855099757749618,-0.14525670803950158,0.13337222451161831
1728328898373473000,0.94247314453125,-1.1333712339401245,-1.447575569152832,0.5879144072532654,-0.20398728549480438,0.5844431519508362,-0.7853759527206421,0.07495896518230438,0.0711660385131836,-0.12578731775283813,0.9347653994045891,-0.2902874907713075,-0.15180640906143347,0.13748348964415005
1728328898383504000,0.95250390625,-1.0784729719161987,-1.5077242851257324,0.5529332160949707,-0.2121131420135498,0.5943179726600647,-0.7757539749145508,0.07981942594051361,0.07452058792114258,-0.12749004364013672,0.9315932224794794,-0.29489269758250275,-0.15862319537695505,0.14146068877309434
1728328898393535000,0.962534912109375,-0.9028180241584778,-1.5757513046264648,0.5467251539230347,-0.22066159546375275,0.6032251119613647,-0.7664384841918945,0.09810300171375275,0.09686344861984253,-0.14283275604248047,0.9284636994886681,-0.29888570638866435,-0.1656746711099527,0.14551420970566106
1728328898403566800,0.97256689453125,-0.6264588236808777,-1.6262469291687012,0.5453224778175354,-0.22950536012649536,0.6103155612945557,-0.7581835389137268,0.11237889528274536,0.1264398694038391,-0.1686200499534607,0.9255509553653222,-0.30172770242462815,-0.17282545177319406,0.1498240975923513
1728328898413597700,0.98259765625,-0.3368075489997864,-1.6783751249313354,0.5517100691795349,-0.23855702579021454,0.6152392625808716,-0.7513794898986816,0.11822623014450073,0.14586913585662842,-0.1977323293685913,0.9229464510790958,-0.30318051081612574,-0.17997730753394753,0.1544654128475434
1728328898423628800,0.99262890625,-0.11262039840221405,-1.7218598127365112,0.5540746450424194,-0.24782975018024445,0.6182093024253845,-0.7459206581115723,0.11683304607868195,0.16642820835113525,-0.18195098638534546,0.9206204230805656,-0.3033495722994585,-0.18713283826637486,0.15943136506992567
1728328898433660000,1.002659912109375,0.025321494787931442,-1.7709743976593018,0.5182561874389648,-0.25743192434310913,0.6198770999908447,-0.7412700057029724,0.11268705129623413,0.19095975160598755,-0.1535358428955078,0.9184543409903203,-0.30263447679801686,-0.19436402504781564,0.16455005083831076
1728328898443690800,1.012690673828125,0.135585218667984,-1.8264179229736328,0.5017065405845642,-0.26751357316970825,0.6205963492393494,-0.7370866537094116,0.10311535000801086,0.1961303949356079,-0.1225019097328186,0.9163731318004908,-0.3012493043871069,-0.20175608291939567,0.16971681558611973
1728328898453721900,1.022721923828125,0.1821143627166748,-1.8776048421859741,0.5019009709358215,-0.2779252529144287,0.6207568645477295,-0.7330883741378784,0.0946519672870636,0.16316348314285278,-0.0949297547340393,0.9142857551315587,-0.2994143002989371,-0.20930095273895427,0.17500249333743537
1728328898463752700,1.032752685546875,0.2045363187789917,-1.9180876016616821,0.4696689546108246,-0.28871047496795654,0.6207134127616882,-0.7289451956748962,0.09017837047576904,0.12567031383514404,-0.08837652206420898,0.9121185506629387,-0.2973526138707108,-0.21704568050420303,0.18031170556989756
1728328898473784000,1.0427841796875,0.22148840129375458,-1.9315791130065918,0.45909246802330017,-0.29973718523979187,0.6205291748046875,-0.7246386408805847,0.07949182391166687,0.10194402933120728,-0.07905697822570801,0.9098874001324257,-0.29513376484861953,-0.2248927342581313,0.18553779965137504
1728328898483816000,1.05281591796875,0.2511582672595978,-1.9755789041519165,0.45890283584594727,-0.31090033054351807,0.620215892791748,-0.7201897501945496,0.06724795699119568,0.09194236993789673,-0.07288575172424316,0.9075702014210328,-0.29273754863405826,-0.23283008054186974,0.19081761472097644
1728328898493846800,1.0628466796875,0.3113723397254944,-2.017742872238159,0.39666691422462463,-0.3224742114543915,0.6195645332336426,-0.7156467437744141,0.08507797122001648,0.1066165566444397,-0.07166093587875366,0.9052038334649967,-0.29004567891877514,-0.2409359283933978,0.19603470688326236
1728328898503878000,1.0728779296875,0.3872486352920532,-2.060519218444824,0.3382238447666168,-0.334703266620636,0.6182529926300049,-0.7111518979072571,0.09765797853469849,0.1326778531074524,-0.056334614753723145,0.9028528846405688,-0.28687675558146414,-0.24925043561703691,0.20107882479697906
1728328898513908700,1.08290869140625,0.4692196547985077,-2.095101833343506,0.3582787811756134,-0.3472333252429962,0.6163577437400818,-0.7067758440971375,0.10339787602424622,0.150365948677063,-0.03898215293884277,0.9004905704025044,-0.2832453850493187,-0.25765114981985304,0.20616668416207135
1728328898523939800,1.09293994140625,0.5207927227020264,-2.12701678276062,0.3975449502468109,-0.35965847969055176,0.6141949892044067,-0.7024316787719727,0.11063504219055176,0.15466487407684326,-0.003821253776550293,0.8980326428517245,-0.27929555889606217,-0.2660416205080898,0.21154946161902416
1728328898533971000,1.102970947265625,0.5995815396308899,-2.151325225830078,0.32767876982688904,-0.3723006248474121,0.6116036176681519,-0.6980925798416138,0.1080489456653595,0.16747963428497314,0.011416614055633545,0.8955306888186387,-0.2749767334886867,-0.27448406630800964,0.21695868026850845
1728328898544001800,1.113001708984375,0.6945734620094299,-2.1762855052948,0.29458606243133545,-0.3853837251663208,0.6082220077514648,-0.6939347982406616,0.07875832915306091,0.17037302255630493,0.01728379726409912,0.8930750815478786,-0.2701081209976821,-0.28297387400990376,0.2222260360160859
1728328898554033000,1.123032958984375,0.7768028378486633,-2.218383312225342,0.30180084705352783,-0.3986901342868805,0.6042677164077759,-0.6898600459098816,0.066216379404068,0.1534685492515564,0.019663512706756592,0.8905791647361898,-0.26476079865990115,-0.2914990712109408,0.22759386001956744
1728328898564064800,1.133064697265625,0.8251943588256836,-2.23244571685791,0.3320591449737549,-0.4120599329471588,0.5999653935432434,-0.6857464909553528,0.08321774005889893,0.14536547660827637,0.04080331325531006,0.8879841238266512,-0.25904790641583836,-0.30003490124057247,0.2331470985537981
1728328898574096000,1.143095947265625,0.814179003238678,-2.2048118114471436,0.31133177876472473,-0.42515382170677185,0.5956608653068542,-0.681492805480957,0.08981138467788696,0.14056050777435303,0.0787249207496643,0.8853039744019896,-0.2532579965477692,-0.3084055311525334,0.23871204716669303
1728328898584127000,1.153126953125,0.8075814843177795,-2.1989424228668213,0.25981077551841736,-0.43830859661102295,0.591359555721283,-0.6768895387649536,0.07858264446258545,0.12612396478652954,0.08136957883834839,0.8825419457093411,-0.24743832889546974,-0.3167483254887861,0.24405834067982685
1728328898594157800,1.16315771484375,0.8009465336799622,-2.206040859222412,0.18257060647010803,-0.45177510380744934,0.5869015455245972,-0.6718972325325012,0.06432390213012695,0.12243384122848511,0.077170729637146,0.8797333901404029,-0.2415276745647361,-0.3251395941064016,0.2490339988976919
1728328898604189000,1.17318896484375,0.8823250532150269,-2.217651844024658,0.16336070001125336,-0.46552029252052307,0.5820245742797852,-0.6667370796203613,0.06313076615333557,0.14403444528579712,0.0663037896156311,0.8768910243526161,-0.23531483106784326,-0.33355416507289015,0.2538322798114102
1728328898614219800,1.1832197265625,0.9980809688568115,-2.2511932849884033,0.16412794589996338,-0.47931185364723206,0.5765594840049744,-0.661694347858429,0.07489290833473206,0.1678100824356079,0.05077826976776123,0.8740036031427936,-0.22861036160538067,-0.341891983363791,0.25877609688146047
1728328898624251000,1.1932509765625,1.1524221897125244,-2.2576234340667725,0.130363330245018,-0.49326491355895996,0.5701419115066528,-0.6569840312004089,0.09340834617614746,0.20436376333236694,0.04313826560974121,0.871128059446913,-0.22118983841283069,-0.35011860133479705,0.26387141642797723
1728328898634282000,1.203281982421875,1.2770024538040161,-2.2601709365844727,0.10746865719556808,-0.5073105096817017,0.5627150535583496,-0.6526774168014526,0.09555214643478394,0.2337174415588379,0.06228440999984741,0.8683111017627894,-0.21306788807769383,-0.3581387705164993,0.26902507208415916
1728328898644313900,1.21331396484375,1.360305905342102,-2.2819857597351074,0.08194679021835327,-0.5214553475379944,0.5545573830604553,-0.6484985947608948,0.09529262781143188,0.24071550369262695,0.06484997272491455,0.8654689130458207,-0.2043939856859785,-0.3660243134486463,0.2742496730074408
1728328898654344700,1.2233447265625,1.4133189916610718,-2.2791969776153564,0.03909546509385109,-0.5357778668403625,0.5458517074584961,-0.6441956162452698,0.09901028871536255,0.2332162857055664,0.06961077451705933,0.8625734057430828,-0.1953175571378547,-0.3738358387781949,0.279401065108233
1728328898664375800,1.233375732421875,1.440112829208374,-2.2727019786834717,0.008725838735699654,-0.5501744151115417,0.536761999130249,-0.6396833062171936,0.09671372175216675,0.21502333879470825,0.0907941460609436,0.859624521592736,-0.18597509771882081,-0.38153848846258626,0.28440706275255395
1728328898674406700,1.24340673828125,1.4582891464233398,-2.236335515975952,-0.006395856384187937,-0.5644744038581848,0.5274603366851807,-0.6349444389343262,0.08991080522537231,0.2014978528022766,0.10399961471557617,0.8566111837254973,-0.17647728567167056,-0.38908040679490313,0.2892917371503929
1728328898684437800,1.253437744140625,1.4260764122009277,-2.196889877319336,-0.02252609096467495,-0.5784777402877808,0.5182028412818909,-0.6299439072608948,0.08691585063934326,0.1917123794555664,0.11715710163116455,0.8535374121815053,-0.16701393994880395,-0.39640180426648897,0.29401673345595536
1728328898694468900,1.26346875,1.376213550567627,-2.1708550453186035,-0.07556667178869247,-0.5923349857330322,0.5090853571891785,-0.624476969242096,0.08484286069869995,0.1943601369857788,0.13109928369522095,0.8503991414156041,-0.15768505774804506,-0.40360493734439995,0.2984290800795599
1728328898704500000,1.2735,1.3399723768234253,-2.159562110900879,-0.13591895997524261,-0.6062610149383545,0.49997007846832275,-0.6184476613998413,0.08335757255554199,0.20484870672225952,0.1301053762435913,0.8472073216813092,-0.1484305316304152,-0.4107852781067992,0.302429540133899
1728328898714531000,1.283531005859375,1.3671481609344482,-2.1523048877716064,-0.17445144057273865,-0.6202508807182312,0.4906342327594757,-0.6120186448097229,0.0852777361869812,0.20956110954284668,0.11534512042999268,0.8439736563177551,-0.1390819637075605,-0.4179077319739049,0.30613361899926694
1728328898724563000,1.29356298828125,1.461743950843811,-2.132852792739868,-0.18496479094028473,-0.6341185569763184,0.48084136843681335,-0.6055454015731812,0.09369802474975586,0.20542269945144653,0.09561198949813843,0.8407017478351076,-0.12941179621100374,-0.4248292262729141,0.30982794569688715
1728328898734593800,1.30359375,1.5373485088348389,-2.1098697185516357,-0.18729479610919952,-0.6477175354957581,0.4705107808113098,-0.5992341637611389,0.10181909799575806,0.19648149609565735,0.07919943332672119,0.8374144187690066,-0.11935636797521798,-0.4314359506536204,0.3136146614779076
1728328898744625000,1.313625,1.531106948852539,-2.0914387702941895,-0.18555788695812225,-0.6610769033432007,0.46003901958465576,-0.5927406549453735,0.10924279689788818,0.18063178658485413,0.09147417545318604,0.8340421136705904,-0.10916063295015274,-0.4378511394156184,0.3174022832555949
1728328898754655700,1.32365576171875,1.5180689096450806,-2.0435521602630615,-0.2023022472858429,-0.6740937829017639,0.44972941279411316,-0.5859531760215759,0.11542367935180664,0.17446193099021912,0.1401524543762207,0.8305997050323133,-0.09906923784869572,-0.4440818529538476,0.32106205312084274
1728328898764686800,1.333686767578125,1.5759263038635254,-1.961638331413269,-0.2069515883922577,-0.6866376399993896,0.439249724149704,-0.579300045967102,0.10062378644943237,0.1676381528377533,0.16307085752487183,0.827206419867674,-0.08893320921950826,-0.4499342730929966,0.3246223781042664
1728328898774717700,1.3437177734375,1.6592330932617188,-1.8811229467391968,-0.1959596574306488,-0.6985158324241638,0.4284951984882355,-0.5731208920478821,0.06858724355697632,0.1546500027179718,0.14286881685256958,0.8238841555488049,-0.0786420790336294,-0.45525266087055427,0.32829163331659483
1728328898784748800,1.353748779296875,1.7440913915634155,-1.8074983358383179,-0.20946002006530762,-0.7098420858383179,0.41727617383003235,-0.5674546957015991,0.04754960536956787,0.16335132718086243,0.1130022406578064,0.8206512100800735,-0.06809330582743635,-0.46003906463705746,0.33205274564965737
1728328898794780000,1.36377978515625,1.8034350872039795,-1.7390782833099365,-0.23982352018356323,-0.7207368016242981,0.40560615062713623,-0.5621584057807922,0.030719101428985596,0.18808281421661377,0.10201442241668701,0.8174971391249437,-0.05731902688959522,-0.46436551502049517,0.3358236843450155
1728328898804812000,1.37381201171875,1.9096624851226807,-1.6857882738113403,-0.29862239956855774,-0.7313410043716431,0.39321479201316833,-0.5572455525398254,0.02630859613418579,0.21420711278915405,0.11748731136322021,0.8144649512774982,-0.04620923449545062,-0.4682327702932692,0.3395140371685754
1728328898814843000,1.3838427734375,2.0152781009674072,-1.6359424591064453,-0.32768335938453674,-0.7417434453964233,0.3798869848251343,-0.5527231097221375,0.014433145523071289,0.22489523887634277,0.10330593585968018,0.8115239529601924,-0.03459485325139063,-0.47163720559775596,0.34320646852118186
1728328898824874000,1.3938740234375,2.050126314163208,-1.601683497428894,-0.2972623109817505,-0.751792848110199,0.3662531077861786,-0.5483303666114807,0.006965577602386475,0.2120245099067688,0.06835001707077026,0.8085501288824496,-0.022772111452083243,-0.4746748850734673,0.3470041475379524
1728328898834904800,1.40390478515625,2.049621343612671,-1.5526692867279053,-0.26893001794815063,-0.7613876461982727,0.3528618812561035,-0.5438542366027832,0.01561427116394043,0.19004589319229126,0.0649266242980957,0.8054735470470095,-0.01103767982466237,-0.4774422118133295,0.35091237520536844
1728328898844936000,1.41393603515625,2.0489792823791504,-1.4337496757507324,-0.27190637588500977,-0.7704063057899475,0.3395930230617523,-0.5395838618278503,0.017079830169677734,0.16512197256088257,0.08610796928405762,0.8024454788353186,0.0005355823756620378,-0.47979973375818474,0.35478612368045986
1728328898854966800,1.423966796875,2.0706405639648438,-1.3260670900344849,-0.2600747346878052,-0.7786591053009033,0.32638514041900635,-0.535875678062439,-0.0018737316131591797,0.15237465500831604,0.12025690078735352,0.7995715279010623,0.011908955242648048,-0.4815810674035837,0.35864081265405906
1728328898864998000,1.433997802734375,2.131455421447754,-1.2558825016021729,-0.21592724323272705,-0.7862775325775146,0.31318429112434387,-0.5326191782951355,-0.02448296546936035,0.15364313125610352,0.11333823204040527,0.7967370074958041,0.02324331355333414,-0.4828562433684539,0.36265649956576435
1728328898875028700,1.44402880859375,2.204291582107544,-1.198014497756958,-0.20662374794483185,-0.7933878302574158,0.29997339844703674,-0.529671311378479,-0.03290611505508423,0.15635594725608826,0.10071629285812378,0.7938539600777245,0.03463232017595973,-0.4836992360565259,0.36692161983181715
1728328898885060900,1.454060791015625,2.327953338623047,-1.136082649230957,-0.26435232162475586,-0.8002009391784668,0.28603461384773254,-0.5271269679069519,-0.03337150812149048,0.17465877532958984,0.11533808708190918,0.7910360988716006,0.046368022565564423,-0.48403152063796473,0.37124873021075144
1728328898895091700,1.464091796875,2.4526116847991943,-1.1114931106567383,-0.24778956174850464,-0.8068047165870667,0.27126550674438477,-0.5248630046844482,-0.049701571464538574,0.18573525547981262,0.09976845979690552,0.7882031164227745,0.05857726360145718,-0.4838772492298154,0.3757224175736371
1728328898905122800,1.474122802734375,2.5493414402008057,-1.1078604459762573,-0.1763063222169876,-0.8131278157234192,0.25635525584220886,-0.522594690322876,-0.03666466474533081,0.16823583841323853,0.07775527238845825,0.7851327542650783,0.0710706198398665,-0.48337522634278696,0.38061010824013475
1728328898915153700,1.484153564453125,2.5796921253204346,-1.0909459590911865,-0.15614859759807587,-0.8192230463027954,0.2415449172258377,-0.5201247930526733,-0.004660129547119141,0.14740169048309326,0.07731467485427856,0.7818136541591681,0.08367782574396665,-0.48263405646476243,0.3857848870196348
1728328898925185000,1.49418505859375,2.491548776626587,-1.0495765209197998,-0.1595907360315323,-0.8251071572303772,0.22693583369255066,-0.5173956751823425,-0.0034756064414978027,0.12955527007579803,0.0839240550994873,0.7784222735884708,0.09610788294698065,-0.48173171290399364,0.39084085634425175
1728328898935215900,1.5042158203125,2.322484254837036,-1.0198338031768799,-0.14861904084682465,-0.8307470083236694,0.2131580263376236,-0.5142208337783813,-0.019716858863830566,0.1077343076467514,0.10171478986740112,0.7750263233779615,0.10789898888496245,-0.4808818954387017,0.39553074175202896
1728328898945247000,1.5142470703125,2.1480374336242676,-0.9459202289581299,-0.1735811084508896,-0.8360745310783386,0.2002505213022232,-0.5107632279396057,-0.028091728687286377,0.09483921527862549,0.11508756875991821,0.7717502810454272,0.11891981443230042,-0.48007964861080554,0.39972880291746304
1728328898955277800,1.52427783203125,1.9613268375396729,-0.9059765338897705,-0.17225272953510284,-0.8410739302635193,0.18823720514774323,-0.5071107745170593,-0.04540067911148071,0.08054637908935547,0.0988161563873291,0.7686291217359549,0.12914715711296323,-0.47933874145949235,0.4034409351951308
1728328898965310000,1.53431005859375,1.8223509788513184,-0.8805660009384155,-0.2126467525959015,-0.8458915948867798,0.17701095342636108,-0.5031247138977051,-0.062296271324157715,0.0701204240322113,0.06478554010391235,0.7656325423402731,0.13868552887721763,-0.4787524967059467,0.406656120615592
1728328898975340800,1.5443408203125,1.7312513589859009,-0.8646214008331299,-0.24124164879322052,-0.8506330847740173,0.16606789827346802,-0.49884355068206787,-0.06095755100250244,0.08814355731010437,0.06262528896331787,0.7627669011265211,0.14783277046136242,-0.4782506625994434,0.4094001572966275
1728328898985372000,1.554371826171875,1.7190332412719727,-0.8669913411140442,-0.2324042171239853,-0.8552572727203369,0.15540753304958344,-0.49435171484947205,-0.051557302474975586,0.12536945939064026,0.062299132347106934,0.759912676512848,0.15674569702350066,-0.47776032990461176,0.4119572075896054
1728328898995402800,1.56440283203125,1.8406182527542114,-0.8997407555580139,-0.2523166835308075,-0.8599357008934021,0.14452408254146576,-0.4895135760307312,-0.030170559883117676,0.17690235376358032,0.0581628680229187,0.7568887839463018,0.16590860506785915,-0.4771976000641926,0.4145796249970051
1728328899005433900,1.574433837890625,1.9468048810958862,-0.900588870048523,-0.28736868500709534,-0.8646615147590637,0.13284355401992798,-0.4844718873500824,-0.023796677589416504,0.2030024230480194,0.03308644890785217,0.7537116736853487,0.17562707342421002,-0.4763603480243676,0.41731842774520783
1728328899015464700,1.584464599609375,2.0267937183380127,-0.9005529284477234,-0.29196715354919434,-0.8693445920944214,0.12064114958047867,-0.4792554974555969,-0.02768915891647339,0.19309481978416443,0.024574100971221924,0.7504037013781032,0.18571609259185887,-0.47527021744547354,0.42014545071066833
1728328899025495800,1.594495849609375,2.071645498275757,-0.9304166436195374,-0.2554363012313843,-0.8739830851554871,0.1083209365606308,-0.473730206489563,-0.027078986167907715,0.17164736986160278,0.03504002094268799,0.7468930569321413,0.19601993264122045,-0.47403700398987836,0.42310282588197273
1728328899035528000,1.60452783203125,2.064971685409546,-0.9428467154502869,-0.2573558986186981,-0.8786390423774719,0.09626433253288269,-0.4676821827888489,-0.025505244731903076,0.1435886025428772,0.029785484075546265,0.7431339623547604,0.20636865686632064,-0.4728328339319736,0.4261373346152131
1728328899045559000,1.61455908203125,2.0000851154327393,-0.9263498783111572,-0.33574873208999634,-0.8831983804702759,0.08406119048595428,-0.46140486001968384,-0.03557908535003662,0.118010975420475,0.030420392751693726,0.7394399573948177,0.21665502664177463,-0.4715486962657447,0.42887188272224214
1728328899055590000,1.62458984375,1.8755648136138916,-0.9512014389038086,-0.3742886781692505,-0.887742817401886,0.07189156115055084,-0.45469146966934204,-0.06266611814498901,0.09871696680784225,0.02195224165916443,0.7358751138997873,0.22670696116613767,-0.47038093645726287,0.4310842002922161
1728328899065621000,1.63462109375,1.7228543758392334,-0.968367874622345,-0.39420992136001587,-0.8923131823539734,0.060235071927309036,-0.4473802149295807,-0.06030833721160889,0.09635064005851746,0.014274775981903076,0.7323805927243987,0.2363380017562755,-0.46952555080232045,0.4327919982712722
1728328899075651800,1.64465185546875,1.5701014995574951,-0.9346333742141724,-0.42268070578575134,-0.8967308402061462,0.0491197407245636,-0.43984225392341614,-0.041547417640686035,0.09461807459592819,0.039421141147613525,0.7290850559346393,0.24542195326807725,-0.4688783816319661,0.4340002796042746
1728328899085683000,1.654682861328125,1.4118393659591675,-0.9094251990318298,-0.40231895446777344,-0.9008740782737732,0.038788918405771255,-0.4323439598083496,-0.04756647348403931,0.09008683264255524,0.058503657579422,0.726002781668531,0.253836748094597,-0.46839612241324124,0.434846990399696
1728328899095713800,1.6647138671875,1.2707668542861938,-0.910459041595459,-0.444600373506546,-0.904880166053772,0.02916136011481285,-0.4246664345264435,-0.0534023642539978,0.09983646124601364,0.05673128366470337,0.7230864704777095,0.2616759712553064,-0.46817994899270776,0.4352921024862665
1728328899105745000,1.674744873046875,1.1460793018341064,-0.8677560687065125,-0.5144745111465454,-0.9087125658988953,0.019579803571105003,-0.416963130235672,-0.05956447124481201,0.12824735045433044,0.07074123620986938,0.720477240014086,0.26913884691433443,-0.46806272193515314,0.4351944844556113
1728328899115776800,1.68477685546875,1.0805224180221558,-0.8868091106414795,-0.5434384942054749,-0.9123668074607849,0.010073518380522728,-0.4092499613761902,-0.07441914081573486,0.1463748663663864,0.08315443992614746,0.7181105403976702,0.2762810536582356,-0.46802114957600827,0.43467500540757387
1728328899125807900,1.694807861328125,1.1140652894973755,-0.8891171216964722,-0.5821595191955566,-0.9159660935401917,0.0003886038321070373,-0.4012555480003357,-0.058902740478515625,0.15955403447151184,0.06678295135498047,0.71575105948627,0.2834756511025165,-0.4679890764262874,0.4339680342164837
1728328899135838700,1.704838623046875,1.2216793298721313,-0.9014806151390076,-0.6026906371116638,-0.9194421172142029,-0.009807421825826168,-0.39310312271118164,-0.02408510446548462,0.17022307217121124,0.05873730778694153,0.7133182690009504,0.2909824537027964,-0.46773672805072436,0.4332766214048607
1728328899145870000,1.7148701171875,1.4059780836105347,-0.940300703048706,-0.5914846062660217,-0.922892689704895,-0.0205311831086874,-0.3845095932483673,-0.0014390349388122559,0.18561601638793945,0.0495944619178772,0.7105578498800982,0.29907061696373877,-0.4672279687776651,0.4328537607289525
1728328899155901000,1.72490087890625,1.5644114017486572,-0.9559745192527771,-0.5944942235946655,-0.9263318777084351,-0.03179546445608139,-0.37536418437957764,0.01799142360687256,0.192012757062912,0.030668169260025024,0.7073829999376019,0.30783252617119594,-0.46643010639467974,0.432771729876067
1728328899165932000,1.73493212890625,1.6611779928207397,-0.9204939603805542,-0.6270290017127991,-0.9295532703399658,-0.0435405969619751,-0.3661077916622162,0.01794743537902832,0.19142881035804749,0.05365362763404846,0.7040188979586965,0.3170075966447415,-0.4652443367405996,0.4329102468411033
1728328899175963000,1.744962890625,1.7511425018310547,-0.8922306299209595,-0.6809678673744202,-0.932488739490509,-0.05589628964662552,-0.3568478226661682,-0.018225431442260742,0.1871218979358673,0.08269321918487549,0.7005904040982627,0.3265246807442989,-0.463635327653977,0.43312470242230366
1728328899185994000,1.754993896484375,1.7507818937301636,-0.8153218626976013,-0.7216106653213501,-0.9350388050079346,-0.06874027103185654,-0.347817987203598,-0.0654495358467102,0.17114199697971344,0.08165895938873291,0.6972436110921167,0.33616813429530157,-0.4616080444619525,0.43331339531219276
1728328899196025900,1.76502587890625,1.7567282915115356,-0.8206838965415955,-0.7317711114883423,-0.9372313022613525,-0.08168065547943115,-0.3390072286128998,-0.09205037355422974,0.14122045040130615,0.10493743419647217,0.6940079654608285,0.34570822796546036,-0.459327988054859,0.4334243498954314
1728328899206057000,1.775056884765625,1.7649974822998047,-0.9096149206161499,-0.7150675058364868,-0.9394492506980896,-0.09449784457683563,-0.3294016718864441,-0.10779201984405518,0.10528580844402313,0.08671069145202637,0.6905278961322912,0.35538568447874,-0.45716536603983016,0.43344229482944685
1728328899216087800,1.785087890625,1.6346410512924194,-0.9552500247955322,-0.6782690286636353,-0.9417535662651062,-0.10673031955957413,-0.31891822814941406,-0.09627127647399902,0.08223997056484222,0.04866984486579895,0.6868450718184683,0.3649347679241519,-0.45537183219892363,0.43324701580276476
1728328899226119000,1.795118896484375,1.3675329685211182,-0.9152014255523682,-0.601701021194458,-0.9439527988433838,-0.11762644350528717,-0.3084108531475067,-0.07660084962844849,0.05093027651309967,0.0948488712310791,0.6833318524430272,0.3736311817849022,-0.4540862429538716,0.4327390832630157
1728328899236149800,1.805149658203125,1.0033057928085327,-0.7932672500610352,-0.5699625015258789,-0.9457998871803284,-0.1268254816532135,-0.29896166920661926,-0.0857858657836914,-0.014684543013572693,0.16950613260269165,0.6804432591741075,0.38086041415116473,-0.4532819320614067,0.4318309387621131
1728328899246180900,1.815180908203125,0.6195074319839478,-0.7604708075523376,-0.5932199358940125,-0.9472866654396057,-0.1348257064819336,-0.2906372547149658,-0.1288546919822693,-0.10209749639034271,0.2037995159626007,0.6784085502929182,0.38662986708499797,-0.4529886595195957,0.4302097824489495
1728328899256211700,1.825211669921875,0.26993903517723083,-0.6806209683418274,-0.6068222522735596,-0.9485030770301819,-0.14190590381622314,-0.28320446610450745,-0.1761307716369629,-0.16377343237400055,0.20031875371932983,0.67723863067936,0.391055525647169,-0.4532916797505297,0.4277267127544436
1728328899266242800,1.835242919921875,0.18620045483112335,-0.608543336391449,-0.5958343148231506,-0.9493757486343384,-0.148313969373703,-0.2769271731376648,-0.18288743495941162,-0.1352553516626358,0.23502656817436218,0.6767120401169716,0.3944924692450945,-0.4537753842509528,0.4248816152265383
1728328899276275000,1.84527490234375,0.3128020763397217,-0.6251332759857178,-0.5737961530685425,-0.950127363204956,-0.15467464923858643,-0.27080222964286804,-0.19620448350906372,-0.055652499198913574,0.17682337760925293,0.6761060645249304,0.39797909844731116,-0.4541051833810469,0.4222342392349615
1728328899286305800,1.855305908203125,0.30231186747550964,-0.6269093155860901,-0.5999132394790649,-0.9508523941040039,-0.16121770441532135,-0.2643646001815796,-0.1995534896850586,-0.00430963933467865,0.06468817591667175,0.6753040662221008,0.4017371051293316,-0.45434017756922274,0.41969840549749227
1728328899296337000,1.8653369140625,0.2559739351272583,-0.5503857731819153,-0.6557677388191223,-0.9512899518013,-0.16806690394878387,-0.2584592401981354,-0.18898415565490723,0.039313241839408875,0.10150736570358276,0.6748066249283812,0.40531624647794195,-0.4544107325447235,0.4169721804280093
1728328899306368000,1.875367919921875,0.3070080280303955,-0.5907573699951172,-0.6381183862686157,-0.9515517950057983,-0.1752045601606369,-0.25269073247909546,-0.22650307416915894,0.019747987389564514,0.13384008407592773,0.674358806640076,0.4089684627937325,-0.4543120401621189,0.4142289684410591
1728328899316398800,1.88539892578125,0.20413784682750702,-0.5791699290275574,-0.5877295136451721,-0.9518436193466187,-0.18193714320659637,-0.24676460027694702,-0.2521206736564636,-0.04679208993911743,0.04125922918319702,0.6738266904805197,0.412496963642645,-0.45438304478112285,0.4115093934672137
1728328899326430000,1.895429931640625,0.10080713033676147,-0.6245046257972717,-0.49198493361473083,-0.9521577954292297,-0.1877811849117279,-0.24110989272594452,-0.21768784523010254,-0.0791255533695221,0.04088407754898071,0.6734110793887275,0.41546981341265404,-0.454785542633257,0.40874514010825586
1728328899336460800,1.905460693359375,-0.04133962467312813,-0.7289790511131287,-0.38578659296035767,-0.9527534246444702,-0.19258345663547516,-0.23488828539848328,-0.19066393375396729,-0.14671096205711365,0.06443239748477936,0.6728520920235616,0.4180581874514578,-0.4558324336778364,0.4058500076769762
1728328899346492000,1.915491943359375,-0.3096389174461365,-0.6597400903701782,-0.2932044565677643,-0.9534220695495605,-0.1961592435836792,-0.22914591431617737,-0.17505687475204468,-0.2199021428823471,0.08417221903800964,0.6726053797865787,0.4197141049460267,-0.4574572232130327,0.40270944450497986
1728328899356523800,1.925523681640625,-0.3750176727771759,-0.5872136950492859,-0.19663210213184357,-0.9540886282920837,-0.19834955036640167,-0.22443798184394836,-0.20651012659072876,-0.23092594742774963,0.19070084393024445,0.6726788753112145,0.42038019405103433,-0.4594143039268212,0.3996525502271597
1728328899366554600,1.9355546875,-0.30450400710105896,-0.6507488489151001,-0.09034828096628189,-0.9550623893737793,-0.19923044741153717,-0.2194611132144928,-0.2531896233558655,-0.24806571006774902,0.13720101118087769,0.6723753283347045,0.4208064385944069,-0.461726526539058,0.397041610732704
1728328899376585700,1.945585693359375,-0.1916365921497345,-0.6860945820808411,-0.019128428772091866,-0.956365704536438,-0.1993570476770401,-0.21359208226203918,-0.2015780806541443,-0.2531575560569763,0.054366663098335266,0.6715031320042023,0.4214408440551911,-0.46431839668806857,0.39481597990814804
1728328899386616800,1.955616943359375,-0.01881127990782261,-0.6968467235565186,0.08214226365089417,-0.9578410387039185,-0.19898243248462677,-0.20723608136177063,-0.11250203847885132,-0.19478587806224823,0.08882790803909302,0.670096898211676,0.42240178833002445,-0.4668604582665987,0.39317725225035716
1728328899396648000,1.96564794921875,0.08981773257255554,-0.6609273552894592,0.21043738722801208,-0.9594986438751221,-0.19776403903961182,-0.2006286382675171,-0.0749557614326477,-0.13870751857757568,0.12433476746082306,0.6681388919817773,0.4235712955597283,-0.46933254946390707,0.3923069880738306
1728328899406679000,1.975678955078125,0.04416435584425926,-0.5116776823997498,0.32585611939430237,-0.9611665606498718,-0.19540655612945557,-0.19487234950065613,-0.06645190715789795,-0.12522636353969574,0.15960931777954102,0.6660980887488287,0.42434832489754926,-0.471690923470936,0.3921091544231726
1728328899416710000,1.9857099609375,0.04059678688645363,-0.4135953187942505,0.4648030698299408,-0.9627926349639893,-0.1917729526758194,-0.1904039978981018,-0.07767373323440552,-0.1529230773448944,0.2286272794008255,0.6641739847534274,0.4244690366264254,-0.47394518697046634,0.3925239040364553
1728328899426741000,1.995740966796875,0.07989551872015,-0.3707963824272156,0.5936734676361084,-0.9645049571990967,-0.18684546649456024,-0.18659818172454834,-0.059313952922821045,-0.21740561723709106,0.21328581869602203,0.6621088461664107,0.4241780661503341,-0.4762078071246237,0.39358724618650986
1728328899436772900,2.00577294921875,0.1232837438583374,-0.3170223534107208,0.740899384021759,-0.966362476348877,-0.18066854774951935,-0.18303686380386353,0.023811817169189453,-0.24517372250556946,0.1892320066690445,0.6597642607602158,0.4236232861321792,-0.47856543798913315,0.3952588606585901
1728328899446803700,2.0158037109375,0.3284183144569397,-0.20994217693805695,0.8734819293022156,-0.9682589769363403,-0.1732773631811142,-0.1801374852657318,0.10455048084259033,-0.19099567830562592,0.2314528375864029,0.6570887899442003,0.42291927211892527,-0.4806979758249418,0.3978731716868437
1728328899456834800,2.025834716796875,0.4875485599040985,0.016406793147325516,0.9887233376502991,-0.970003068447113,-0.16506341099739075,-0.1784607470035553,0.12272822856903076,-0.09857793152332306,0.2734314799308777,0.6541034808791351,0.4222781893874348,-0.48213147076128354,0.4017201455964199
1728328899466865700,2.03586572265625,0.4965668320655823,0.2798832356929779,1.056268334388733,-0.9713521599769592,-0.15610285103321075,-0.17918355762958527,0.0949941873550415,-0.017404824495315552,0.29373133182525635,0.6513805824402671,0.4211389697292361,-0.48275271918542717,0.4065649297956833
1728328899476896800,2.045896728515625,0.4556660056114197,0.45511096715927124,1.1166120767593384,-0.9723100662231445,-0.1464681774377823,-0.18209926784038544,0.0721026062965393,0.007445350289344788,0.35899442434310913,0.6490652451128982,0.4193240745119321,-0.4828226224556962,0.41202418057745827
1728328899486928000,2.055927978515625,0.26060158014297485,0.5765559077262878,1.1901094913482666,-0.9729593992233276,-0.13605231046676636,-0.1866542100906372,0.08353984355926514,-0.04040031135082245,0.346627414226532,0.6471765372606803,0.4166960038431401,-0.48273940819519484,0.4177196124272283
1728328899496958700,2.065958740234375,-0.013231556862592697,0.720984697341919,1.216009497642517,-0.9732633233070374,-0.12469306588172913,-0.19289906322956085,0.14475691318511963,-0.11235221475362778,0.3250555098056793,0.6460010033469139,0.41283959897086026,-0.4828187395648691,0.4232401214631198
1728328899506989800,2.07598974609375,-0.19318313896656036,0.8235687613487244,1.2554585933685303,-0.9731519222259521,-0.11271532624959946,-0.20067527890205383,0.21686536073684692,-0.15423715114593506,0.3547585904598236,0.645552184396195,0.4078915555099013,-0.48299776076327505,0.4284856734175883
1728328899517022000,2.08602197265625,-0.1202375739812851,0.9267215132713318,1.2473697662353516,-0.9726042151451111,-0.10069320350885391,-0.20952865481376648,0.26221585273742676,-0.15182451903820038,0.336405485868454,0.645450208233317,0.4025379751633574,-0.4829066728828816,0.43377246563492416
1728328899527052800,2.096052734375,0.2528809905052185,1.0450401306152344,1.3200865983963013,-0.9716548919677734,-0.0887107253074646,-0.21912845969200134,0.29858964681625366,-0.0811195820569992,0.27528083324432373,0.6450109827066833,0.3975502442770862,-0.48206801576286396,0.43991491593125015
1728328899537084000,2.106083984375,0.7409955859184265,1.2165641784667969,1.3537726402282715,-0.9702181220054626,-0.07682875543832779,-0.2297263741493225,0.31242692470550537,0.04632643610239029,0.20953905582427979,0.6437842189434609,0.3934168199095045,-0.4799583483606537,0.4476662702710383
1728328899547114800,2.11611474609375,1.2045543193817139,1.388435959815979,1.2820640802383423,-0.968081533908844,-0.06638693064451218,-0.24168366193771362,0.319186270236969,0.19846703112125397,0.17248506844043732,0.6420115052577386,0.3904677935199542,-0.476122955763128,0.45679660327589083
1728328899557145900,2.126145751953125,1.491386890411377,1.5304712057113647,1.2099132537841797,-0.9652085304260254,-0.057807423174381256,-0.2550116777420044,0.2672562003135681,0.26932474970817566,0.1802436113357544,0.6399557753549917,0.3885348727836815,-0.47067485254894553,0.4668645935067111
1728328899567176700,2.1361767578125,1.4926385879516602,1.7104933261871338,1.1674696207046509,-0.9615839719772339,-0.05033697560429573,-0.26985645294189453,0.2555292248725891,0.21360601484775543,0.1875963807106018,0.6380013646148199,0.38677347864703027,-0.4641961298099926,0.4773704582332428
1728328899577207800,2.146207763671875,1.1327593326568604,1.7457424402236938,1.1043647527694702,-0.957245945930481,-0.043127238750457764,-0.2860427498817444,0.3106546998023987,0.06679363548755646,0.21263271570205688,0.6367190857949433,0.3841801725404094,-0.45758520077977793,0.48745289110519213
1728328899587239700,2.15623974609375,0.7968507409095764,1.542337417602539,1.0390807390213013,-0.952802300453186,-0.03570672497153282,-0.301484614610672,0.38636547327041626,-0.09574773907661438,0.20916897058486938,0.6360193733358788,0.38071723794202444,-0.45200893852148133,0.4962073921411703
1728328899597270800,2.166270751953125,0.5645943284034729,1.3225922584533691,1.0004066228866577,-0.9487144947052002,-0.028160858899354935,-0.314877450466156,0.4889214038848877,-0.16879957914352417,0.1179933249950409,0.6354049220053327,0.37702943143352863,-0.44767184131402254,0.5036857506428232
1728328899607301600,2.176301513671875,0.3812270760536194,1.2948116064071655,1.0411643981933594,-0.9447595477104187,-0.0200368482619524,-0.32715117931365967,0.5748102068901062,-0.10529883205890656,0.056307703256607056,0.6348660945800441,0.37293228943192563,-0.44423633587977174,0.5104121920282642
1728328899617333000,2.1863330078125,0.23351803421974182,1.2091443538665771,1.022045373916626,-0.9407423734664917,-0.011235016398131847,-0.33893585205078125,0.5284346342086792,-0.007212858647108078,0.07146456837654114,0.6343829368792046,0.36839103337349477,-0.4413843146349308,0.5167457698090583
1728328899627363800,2.19636376953125,-0.2843012809753418,1.3585963249206543,0.8730233311653137,-0.9363474249839783,-0.002278895117342472,-0.3510676920413971,0.3903268575668335,0.02783738076686859,0.05497092008590698,0.6346775296258392,0.3629942504821798,-0.43897759197630876,0.522224484269068
1728328899637395000,2.20639501953125,-0.5823739767074585,1.0818380117416382,0.6220545172691345,-0.9319813251495361,0.006375121884047985,-0.36245042085647583,0.27476996183395386,0.09050292521715164,0.0893791913986206,0.6363091444018992,0.3566105821026094,-0.43772557544164653,0.5256766982317458
1728328899647425800,2.21642578125,-0.18701320886611938,0.9405649900436401,0.5578960180282593,-0.9281793832778931,0.013224703259766102,-0.3718983829021454,0.2408776879310608,0.16306009888648987,0.03908896446228027,0.6377312095859947,0.3513763804557254,-0.4365609400873836,0.5284394787515352
1728328899657457000,2.226456787109375,0.23959164321422577,0.7565365433692932,0.6353961825370789,-0.9248864054679871,0.018602702766656876,-0.37978819012641907,0.27652519941329956,0.07359089702367783,-0.12425532937049866,0.6379193003895884,0.347959853124549,-0.4347756238555098,0.5319333586837128
1728328899667487700,2.23648779296875,0.3020365834236145,0.4983064830303192,0.5229098200798035,-0.9223242402076721,0.022942395880818367,-0.38573548197746277,0.38425350189208984,0.012107042595744133,-0.23491573333740234,0.6372375280118954,0.3458926622052325,-0.4330017668084343,0.5355335721142648
1728328899677520000,2.246519775390625,0.4480544924736023,0.20661842823028564,0.5935355424880981,-0.9208636283874512,0.026527786627411842,-0.3889814019203186,0.4511675238609314,0.0645214170217514,-0.1073870062828064,0.635909915983892,0.3449465816154843,-0.43188095850114977,0.5386179703204325
1728328899687550700,2.25655078125,0.8090923428535461,0.32114043831825256,0.3687279522418976,-0.9197306036949158,0.028859611600637436,-0.3914877474308014,0.39400434494018555,0.07636498659849167,-0.016532212495803833,0.6339348199990353,0.3451624015285593,-0.43025463127352914,0.5420982228630459
1728328899697581800,2.266581787109375,0.7502069473266602,0.005280212499201298,-0.044582389295101166,-0.9189388155937195,0.027076389640569687,-0.39346981048583984,0.2300654649734497,-0.005347855389118195,-0.09740543365478516,0.6325361251220497,0.34687816451639114,-0.42771560254408325,0.544640326025198
1728328899707612700,2.27661279296875,0.17757189273834229,-0.37093386054039,-0.10681886970996857,-0.9197505712509155,0.024222558364272118,-0.3917553722858429,0.06397658586502075,-0.14884109795093536,-0.2997729182243347,0.6315100155035357,0.34920475885132835,-0.4268235564891235,0.5450439137713539
1728328899717643800,2.286643798828125,-0.17979475855827332,-0.41518041491508484,-0.13814802467823029,-0.9213818311691284,0.023313701152801514,-0.3879591226577759,0.1436716914176941,-0.17289559543132782,-0.2009691596031189,0.6310143492703038,0.35044666866229535,-0.4280275308015082,0.5438755935208684
1728328899727674600,2.296674560546875,-0.07882847636938095,-0.253695011138916,-0.11960417032241821,-0.9227399826049805,0.022579524666070938,-0.38476139307022095,0.1557568907737732,-0.10526689887046814,0.05887943506240845,0.6309045263771015,0.3512300454353187,-0.4292513919279449,0.5425314669625344
1728328899737705700,2.306705810546875,0.06431430578231812,-0.15814371407032013,-0.003103923052549362,-0.9234845042228699,0.022037765011191368,-0.383002370595932,0.029502570629119873,-0.04732157289981842,0.04009160399436951,0.630692584291403,0.3518424320119499,-0.4297740365940868,0.5419668845584293
1728328899747736800,2.31673681640625,0.36037716269493103,-0.15953467786312103,0.10537541657686234,-0.9241266250610352,0.021780552342534065,-0.3814651370048523,-0.01254945993423462,0.017510825768113136,0.0693160891532898,0.6298328468678158,0.35281127686829356,-0.42987397283016937,0.5422575489149225
1728328899757769000,2.32676904296875,0.674303412437439,-0.04998208209872246,0.132065087556839,-0.9244508147239685,0.020803041756153107,-0.38073357939720154,0.00835883617401123,0.04184955731034279,0.06902706623077393,0.6283514586460323,0.3545174014334589,-0.4288946588802626,0.5436370975157494
1728328899767799800,2.3367998046875,0.4050089120864868,-0.04932018369436264,0.18759332597255707,-0.9246276617050171,0.02005281113088131,-0.3803442120552063,0.0037444233894348145,-0.08525360375642776,0.006183505058288574,0.6267844325655482,0.35614151422221707,-0.4277746048035494,0.5452646310163419
1728328899777831000,2.346830810546875,0.07655937969684601,0.054981719702482224,0.25785550475120544,-0.924580991268158,0.021261515095829964,-0.38039204478263855,0.013295531272888184,-0.1406920701265335,0.11275291442871094,0.6257964131086557,0.3563511189513924,-0.4275720558405143,0.546420202795695
1728328899787861800,2.35686181640625,0.1963035613298416,0.15854385495185852,0.2859758138656616,-0.9240843057632446,0.02338973619043827,-0.3814724385738373,0.011273026466369629,-0.11480514705181122,0.23817721009254456,0.625068485007354,0.35581111451645375,-0.4273900149557233,0.5477460266443066
1728328899797892900,2.366892822265625,0.06162723898887634,0.11186610162258148,0.1883067935705185,-0.9234631061553955,0.025018926709890366,-0.38287079334259033,-0.03207284212112427,-0.10489867627620697,0.10160553455352783,0.6244021190910032,0.3554134791055067,-0.4269026368313766,0.5491425276120053
1728328899807923700,2.376923828125,-0.40887871384620667,-0.015615482814610004,0.04112612456083298,-0.9233036637306213,0.026746243238449097,-0.383138507604599,-0.04161643981933594,-0.0196356363594532,0.023778796195983887,0.6244807138415545,0.35452176474969277,-0.42748690911283865,0.5491750068297419
1728328899817954800,2.386954833984375,-0.5042981505393982,0.02656472846865654,-0.029417285695672035,-0.9233164191246033,0.028608324006199837,-0.38297325372695923,-0.015144944190979004,0.1282825469970703,0.18412071466445923,0.6253574544308688,0.35299323638968483,-0.4288463070989829,0.5481010568914413
1728328899827986700,2.396986572265625,-0.2708825170993805,0.12703604996204376,0.02091406099498272,-0.9230029582977295,0.02999921701848507,-0.38362184166908264,-0.03744632005691528,0.15020710229873657,0.13328617811203003,0.6262485936561208,0.3515739199428281,-0.4296333985478873,0.5473789574336749
1728328899838017800,2.407017822265625,-0.14172428846359253,0.09811225533485413,0.032269783318042755,-0.9225456714630127,0.031092481687664986,-0.3846333622932434,-0.04879838228225708,0.06488531082868576,-0.04686993360519409,0.626759492145569,0.3505485549004388,-0.4298825786449525,0.5472561262008969
1728328899848049000,2.417048828125,0.09900210797786713,0.045892298221588135,-0.04038950800895691,-0.9222632050514221,0.03118623048067093,-0.3853028118610382,0.0035009384155273438,0.07588469982147217,-0.012325942516326904,0.6269834875357598,0.35025290151097366,-0.429734212202951,0.54730550732056
1728328899858080000,2.427080078125,0.33692651987075806,0.04269464313983917,-0.060772012919187546,-0.9221182465553284,0.02977774664759636,-0.3857608139514923,0.009795188903808594,0.11768320947885513,0.0419498085975647,0.6268379500723239,0.35097033351500606,-0.4288815915416238,0.5476812312128264
1728328899868110800,2.43711083984375,0.4369516372680664,0.025108564645051956,-0.00576868187636137,-0.9219930171966553,0.02790478989481926,-0.3861999213695526,0.004848182201385498,0.09004565328359604,0.017578125,0.6263048349595995,0.352205944080229,-0.4276108231395093,0.548490983069839
1728328899878142000,2.447141845703125,0.3912794888019562,0.021080002188682556,0.016131822019815445,-0.9219145774841309,0.026342613622546196,-0.3864966332912445,0.02156972885131836,0.020227225497364998,0.021140247583389282,0.6255759521492179,0.3534614864499616,-0.42639964584418694,0.5494571004299912
1728328899888172800,2.4571728515625,0.03673287481069565,0.05482001602649689,-0.007801206316798925,-0.9217722415924072,0.025453783571720123,-0.3868957459926605,0.0159340500831604,-0.041933268308639526,0.07157284021377563,0.6252075841222552,0.35411019831710194,-0.42562670171645833,0.5500577677401749
1728328899898204000,2.467203857421875,-0.5736729502677917,0.085651695728302,-0.07537625730037689,-0.9215067625045776,0.02609281800687313,-0.3874850571155548,-0.02702552080154419,-0.08345059305429459,0.08574247360229492,0.6259391060304661,0.3531779979121893,-0.4260548954071795,0.5494933445189335
1728328899908234800,2.47723486328125,-0.9779013395309448,0.20381562411785126,-0.11852079629898071,-0.920982301235199,0.028315726667642593,-0.3885743319988251,-0.0571824312210083,-0.0879470705986023,0.21091628074645996,0.6279341124423704,0.35046777558139947,-0.42765076223802717,0.5477098510651798
1728328899918267000,2.487266845703125,-1.0155717134475708,0.29572051763534546,-0.13481640815734863,-0.9200264811515808,0.03103305958211422,-0.39062580466270447,-0.08214044570922852,-0.08762790262699127,0.21366959810256958,0.6305970421876569,0.34688053696329296,-0.4293727801237758,0.5455827223082944
1728328899928297700,2.497297607421875,-0.9159979224205017,0.24056994915008545,-0.15011067688465118,-0.9189792275428772,0.03360241279006004,-0.39287155866622925,-0.0916408896446228,-0.07853955030441284,0.07895252108573914,0.6332729131561806,0.34331470746803894,-0.43092834263266805,0.5435082540070496
1728328899938328800,2.507328857421875,-0.6060720086097717,0.10092151910066605,-0.22724807262420654,-0.9183737635612488,0.03491074591875076,-0.3941711187362671,-0.05107814073562622,0.011002957820892334,-0.0039611756801605225,0.6354734840529013,0.3408087561170963,-0.4321618120928521,0.5415339682211795
1728328899948359700,2.517359619140625,-0.171013742685318,0.004330475814640522,-0.22922226786613464,-0.9182739853858948,0.03425018489360809,-0.39446142315864563,-0.023391664028167725,0.1236477792263031,-0.036904484033584595,0.6368777021085462,0.3399661385254242,-0.43265727220647965,0.5400162220266407
1728328899958390800,2.527390869140625,0.008948047645390034,0.05015761777758598,-0.12764452397823334,-0.9182488322257996,0.03277090564370155,-0.3946457803249359,-0.021479010581970215,0.14865610003471375,-0.0621718168258667,0.6375134397253295,0.34013406780259875,-0.4324186883855511,0.5393510914863603
1728328899968422000,2.537421875,-0.22987625002861023,0.11090373992919922,-0.08027300983667374,-0.9179242849349976,0.032207146286964417,-0.39544641971588135,-0.002318084239959717,0.06227528303861618,-0.020538687705993652,0.6381251461577497,0.3398251159790676,-0.4321986662514857,0.538998714757509
1728328899978453000,2.547452880859375,-0.6514371037483215,0.11011091619729996,-0.12128303200006485,-0.9175360202789307,0.033034663647413254,-0.3962782919406891,-0.0023096203804016113,-0.044799186289310455,0.07678979635238647,0.6393793007237806,0.3383410536219935,-0.4328812567498282,0.5378971571350527
1728328899988483800,2.55748388671875,-0.9374285340309143,0.17701442539691925,-0.1398732215166092,-0.9170151352882385,0.03499399125576019,-0.3973143696784973,-0.035072267055511475,-0.09776864945888519,0.1428588330745697,0.6414144982821157,0.33566570622360237,-0.43436315052818697,0.5359521090634429
1728328899998516000,2.567515869140625,-1.0432673692703247,0.1846044361591339,-0.1281135082244873,-0.9163042306900024,0.037752579897642136,-0.39869970083236694,-0.058549344539642334,-0.11914294958114624,0.11365032196044922,0.6438619025865808,0.33222740626629477,-0.4362053373086247,0.5336588990877117
1728328900008546800,2.577546875,-1.0385674238204956,0.12246286869049072,-0.1192566305398941,-0.9157099723815918,0.04082381725311279,-0.39976081252098083,-0.04418998956680298,-0.0802677795290947,0.03487741947174072,0.6462747104851221,0.32867954810363104,-0.4382799945712247,0.5312338956999811
1728328900018578000,2.587577880859375,-0.9506669044494629,-0.005959285423159599,-0.12763386964797974,-0.9155356884002686,0.04367128387093544,-0.3998589813709259,-0.025367021560668945,0.005065310746431351,-0.04040279984474182,0.6483620001599718,0.325573564974267,-0.44053644468970216,0.5287307612535393
1728328900028608800,2.59760888671875,-0.998233437538147,-0.04886286333203316,-0.11561103165149689,-0.915743887424469,0.04633903130888939,-0.3990813195705414,-0.01615619659423828,0.05810737982392311,-0.08672797679901123,0.6501765605647781,0.3228334991729122,-0.442987443333009,0.526128435297947
1728328900038639900,2.607639892578125,-1.2390903234481812,0.019876785576343536,-0.11883292347192764,-0.9158642292022705,0.04980479180812836,-0.3983871638774872,-0.019087612628936768,0.04362477734684944,-0.06049036979675293,0.6522307691021105,0.31946807843111724,-0.4458100151658425,0.5232482413278114
1728328900048670700,2.617670654296875,-1.282596230506897,0.056394848972558975,-0.18137405812740326,-0.9158040285110474,0.05348401144146919,-0.39804837107658386,-0.03606981039047241,0.0080089271068573,0.03995513916015625,0.6547457916385019,0.31553981571034434,-0.4487877456370969,0.519934810887568
1728328900058701800,2.627701904296875,-1.2049988508224487,0.09555236995220184,-0.10780530422925949,-0.9155600070953369,0.05700494721531868,-0.39812132716178894,-0.07948106527328491,-0.020399082452058792,0.07481807470321655,0.6572840888741397,0.3115996163152143,-0.4514919907632975,0.5167576574029474
1728328900068732700,2.637732666015625,-1.12160062789917,0.04602902755141258,-0.020981723442673683,-0.9153106212615967,0.06109479069709778,-0.3980879783630371,-0.07986760139465332,-0.057676807045936584,-0.0014634132385253906,0.6594054188529428,0.3077148166524064,-0.45416693644962036,0.5140317235039115
1728328900078764800,2.647764892578125,-1.0867657661437988,-0.07630354166030884,-0.03280588984489441,-0.915391743183136,0.06526117026805878,-0.3972393274307251,-0.02294754981994629,-0.06100396811962128,-0.053642600774765015,0.661117953126532,0.3041693871040929,-0.45701348467107883,0.5114125414971218
1728328900088796000,2.6577958984375,-1.1875256299972534,-0.08252522349357605,-0.0734044536948204,-0.9157565236091614,0.06924005597829819,-0.3957219421863556,-0.008880317211151123,-0.060328930616378784,-0.061782270669937134,0.6627734554068679,0.3007689551373513,-0.4600837507342419,0.5085198240480039
1728328900098827000,2.667826904296875,-1.1936415433883667,-0.07476689666509628,-0.11279153823852539,-0.9161416292190552,0.0731637105345726,-0.3941212296485901,-0.02914029359817505,-0.05941552668809891,0.017442822456359863,0.6646466153592412,0.2971605574854435,-0.46328716253369306,0.5052775774791055
1728328900108857900,2.67785791015625,-0.8864858746528625,-0.0508304089307785,-0.09969224780797958,-0.9164689779281616,0.07624822109937668,-0.3927733302116394,-0.057652175426483154,-0.01379396766424179,0.06676936149597168,0.6663622316857695,0.2940697331030983,-0.4659788841436589,0.5023426637021626
1728328900118889000,2.687888916015625,-0.5150273442268372,-0.07275647670030594,-0.026834553107619286,-0.9167347550392151,0.07837289571762085,-0.3917335271835327,-0.06425285339355469,0.03829583525657654,0.01688617467880249,0.6674176598980287,0.2920424011306611,-0.46780815182466073,0.500420314513366
1728328900128919800,2.697919921875,-0.2975143492221832,-0.15333318710327148,0.006165208760648966,-0.9171697497367859,0.07985875010490417,-0.39041322469711304,-0.016012132167816162,0.06410794705152512,-0.07851988077163696,0.6677507009362905,0.29101496191364484,-0.46915208628841315,0.4993153108736586
1728328900138951000,2.707950927734375,-0.2904979884624481,-0.2225218564271927,-0.04282470420002937,-0.9179081916809082,0.08086509257555008,-0.38846561312675476,0.03660625219345093,0.07587321102619171,-0.09832021594047546,0.667778630614507,0.2905330627323307,-0.47048670255179964,0.49830168741386144
1728328900148981800,2.717981689453125,-0.06758388131856918,-0.23780450224876404,-0.07754114270210266,-0.9189056754112244,0.08097202330827713,-0.3860777020454407,0.03490293025970459,0.07689542323350906,-0.06687945127487183,0.6676481852081618,0.29066926710786484,-0.47166993607284363,0.497277446711816
1728328900159013600,2.728013671875,-0.09376461803913116,-0.1031513437628746,0.011896064504981041,-0.9195885062217712,0.08084066212177277,-0.3844762146472931,-0.009656548500061035,0.054535336792469025,-0.008742749691009521,0.6674188978053274,0.2909969847421973,-0.4723162567335293,0.4967798912512393
1728328900169044700,2.738044677734375,-0.2334786355495453,-0.06607413291931152,-0.024349557235836983,-0.9198733568191528,0.08154071122407913,-0.3836461305618286,-0.03567790985107422,0.027986913919448853,0.006677687168121338,0.6674769434838788,0.29060304323917807,-0.47299767971663725,0.49628401274476447
1728328900179075800,2.748075927734375,-0.17918504774570465,-0.15411637723445892,-0.08787953108549118,-0.9203534722328186,0.08182132244110107,-0.3824327886104584,-0.03573179244995117,-0.0053747594356536865,0.03325068950653076,0.6676866537689777,0.2902872738598095,-0.4738321467474455,0.49538977477552876
1728328900189106700,2.758106689453125,-0.1253240704536438,-0.12614934146404266,-0.10705375671386719,-0.9209728240966797,0.0814097449183464,-0.381026953458786,-0.03790479898452759,-0.08624677360057831,0.0282285213470459,0.6678331384857074,0.29038992167612404,-0.4745105010930201,0.49448196572946795
1728328900199138000,2.768137939453125,-0.21312503516674042,-0.1582641303539276,-0.043677181005477905,-0.9215731620788574,0.08134917169809341,-0.3795856237411499,-0.006908893585205078,-0.07761076837778091,0.02899971604347229,0.6679133093912576,0.29037348089943626,-0.4752793144181044,0.4936442417351795
1728328900209169000,2.7781689453125,0.0005949093028903008,-0.23644329607486725,-0.07438396662473679,-0.9223726391792297,0.08131818473339081,-0.37764549255371094,0.012613117694854736,0.010127753019332886,0.012792587280273438,0.6677668323816184,0.2905669835209014,-0.47618073124099825,0.49285926851064144
1728328900219200000,2.788199951171875,0.08209003508090973,-0.06027360260486603,-0.05642280355095863,-0.9230430126190186,0.0804094672203064,-0.37619924545288086,0.01340562105178833,0.1087995320558548,0.07000118494033813,0.6674783771058901,0.29134014205325326,-0.4764675272542416,0.49251620778163374
1728328900229230800,2.79823095703125,0.23333455622196198,0.02787543088197708,-0.04159698635339737,-0.9230920672416687,0.07952661067247391,-0.3762665092945099,-0.0250433087348938,0.1629660725593567,0.11309823393821716,0.667386851840402,0.29188299988454586,-0.47609983783517995,0.4926743595650898
1728328900239262000,2.808261962890625,0.5622681975364685,0.029096756130456924,-0.0700286254286766,-0.9230242371559143,0.0774148628115654,-0.3768729567527771,-0.04191106557846069,0.1313406229019165,0.06866070628166199,0.6669982303156213,0.29333422697031436,-0.4748879387092014,0.4935076745164573
1728328900249293800,2.8182939453125,0.5897269248962402,0.0002339482307434082,-0.07638239860534668,-0.9230191111564636,0.07452474534511566,-0.37746766209602356,-0.007660269737243652,-0.011475399136543274,0.031016886234283447,0.6663628006637373,0.29541577857909085,-0.47328183023975506,0.49466605751480314
1728328900259324700,2.82832470703125,0.6176406145095825,0.06395646929740906,-0.0962197557091713,-0.922977864742279,0.07140615582466125,-0.3781708776950836,0.07431447505950928,-0.03884388506412506,0.069912850856781,0.6657445114669734,0.2975847729292886,-0.47154837606712247,0.49585263911775895
1728328900269355800,2.838355712890625,0.7267488837242126,0.0814611092209816,-0.06663256883621216,-0.9227277636528015,0.06812834739685059,-0.37938392162323,0.10381901264190674,0.01613069325685501,0.15031901001930237,0.6651549893078005,0.2997812933141506,-0.4695095433959188,0.49725335617802646
1728328900279387000,2.848386962890625,0.9753230214118958,0.08794963359832764,-0.05168770253658295,-0.9224552512168884,0.0643194317817688,-0.38070905208587646,0.06500279903411865,0.03200933337211609,0.11668628454208374,0.6642116487465062,0.30255940098089906,-0.4670152850776851,0.49917679667695947
1728328900289417700,2.858417724609375,1.0211836099624634,0.10691288858652115,-0.05388747528195381,-0.9221062064170837,0.0599384531378746,-0.3822663128376007,0.03142017126083374,0.027204494923353195,0.0996125340461731,0.6630314237666147,0.30581213301837445,-0.46405363831272445,0.5015202149932182
1728328900299449000,2.868448974609375,0.9226431846618652,0.0637797936797142,-0.054262448102235794,-0.9217995405197144,0.05567096173763275,-0.3836488723754883,-0.01272505521774292,0.02343061938881874,0.07667258381843567,0.6618716278779659,0.30896347935065244,-0.46121268284910555,0.5037364563239086
1728328900309480000,2.87847998046875,0.7485448718070984,-0.022063208743929863,-0.03607252612709999,-0.9217355251312256,0.05201805755496025,-0.38431495428085327,-0.043825507164001465,-0.00396810844540596,0.02941077947616577,0.6607291842326233,0.31179753729314996,-0.4589387944144237,0.505563627811882
1728328900319511000,2.888510986328125,0.41968846321105957,-0.08489330112934113,-0.03351216018199921,-0.9219710826873779,0.0493948869407177,-0.38409581780433655,-0.047129929065704346,-0.06953646242618561,0.013292014598846436,0.659745623602561,0.31400277393207815,-0.45755256493127894,0.5067382780943004
1728328900329543000,2.89854296875,0.10688932240009308,-0.05929819121956825,-0.029946455731987953,-0.9222856163978577,0.04815007373690605,-0.38349828124046326,-0.04538106918334961,-0.09853456914424896,0.06919777393341064,0.6592662536262696,0.3150832313510311,-0.45713610933169385,0.5070673107510066
1728328900339573800,2.90857373046875,0.0979195311665535,-0.015775218605995178,-0.048977937549352646,-0.9224263429641724,0.04748278483748436,-0.3832429349422455,-0.07130229473114014,-0.09745530784130096,0.11322343349456787,0.659149481262348,0.31553232031989564,-0.4569659518713456,0.5070932675009272
1728328900349604900,2.91860498046875,0.23811686038970947,0.04613235592842102,-0.06272890418767929,-0.9223946332931519,0.046302955597639084,-0.38346365094184875,-0.0940849781036377,-0.09438338875770569,0.09171557426452637,0.6590653657613889,0.3161807251302872,-0.45639667249005106,0.5073114168505889
1728328900359635700,2.9286357421875,0.3768504858016968,0.007479237392544746,-0.06740807741880417,-0.9223113059997559,0.04450962692499161,-0.3838759660720825,-0.09215402603149414,-0.014510851353406906,0.07888332009315491,0.6588176953825422,0.3172676023458219,-0.45541551609590036,0.5078358447091237
1728328900369666800,2.938666748046875,0.6378796100616455,-0.017570190131664276,-0.09045986831188202,-0.9223546981811523,0.0418463759124279,-0.3840712904930115,-0.06150156259536743,0.124504953622818,0.043998658657073975,0.658220293596062,0.3191043281586538,-0.45402288260418505,0.5087059296776086
1728328900379698000,2.948697998046875,0.9104493260383606,-0.0640985444188118,-0.09550949186086655,-0.9225652813911438,0.037955328822135925,-0.38396984338760376,-0.0326043963432312,0.20700927078723907,0.02874523401260376,0.6571072781096721,0.32201098169892983,-0.4520221321118001,0.5100932195136597
1728328900389728800,2.958728759765625,0.9236197471618652,-0.10337686538696289,-0.04419170320034027,-0.9229024052619934,0.03369543328881264,-0.3835570514202118,-0.015360713005065918,0.18505458533763885,0.021313369274139404,0.6555894464090036,0.3254573310171812,-0.4497766043231306,0.5118410016165303
1728328900399760000,2.968759765625,0.7207342982292175,-0.10385835915803909,-0.031207462772727013,-0.9233431816101074,0.030144792050123215,-0.38279086351394653,-0.007427811622619629,0.10997667908668518,0.03725552558898926,0.6540704013522347,0.3285635184072255,-0.447940375502424,0.5134077689107365
1728328900409792000,2.9787919921875,0.47302010655403137,-0.009183840826153755,-0.024227317422628403,-0.9235741496086121,0.02757710963487625,-0.3824272155761719,-0.02363055944442749,0.03136760741472244,0.09937667846679688,0.6530358912495398,0.3307318408804876,-0.4465454607921915,0.5145463063712612
1728328900419822800,2.98882275390625,0.17488054931163788,0.06935464590787888,0.006635523866862059,-0.9234583973884583,0.026173479855060577,-0.3828049600124359,-0.06143546104431152,-0.07378088682889938,0.1492387056350708,0.6525945802023813,0.33176575970967753,-0.44556593715000364,0.5152891140214835
1728328900429854000,2.99885400390625,-0.11424945294857025,0.117756687104702,0.055612388998270035,-0.9230856895446777,0.026345962658524513,-0.3836909532546997,-0.07030725479125977,-0.13840650022029877,0.1711513102054596,0.6526823597955648,0.33154401644733666,-0.44523374261585624,0.5156076244906158
1728328900439884800,3.008884765625,-0.28446727991104126,0.17049767076969147,0.08356891572475433,-0.9225082397460938,0.027765663340687752,-0.38497743010520935,-0.05916595458984375,-0.1357215940952301,0.19479194283485413,0.6531727031296932,0.3303440788095913,-0.44540326523628965,0.5156104245089723
1728328900449916000,3.018916015625,-0.4038406014442444,0.17134322226047516,0.09301648288965225,-0.9218013882637024,0.029885631054639816,-0.38650891184806824,-0.04893231391906738,-0.11667761206626892,0.18017959594726562,0.6539143231149462,0.32857036455880695,-0.4458554168170501,0.5154130110795373
1728328900459946800,3.02894677734375,-0.46848297119140625,0.12969963252544403,0.10382811725139618,-0.9211787581443787,0.032525163143873215,-0.38777822256088257,-0.03223621845245361,-0.07233532518148422,0.14250844717025757,0.6547304195205168,0.32649660033955297,-0.44666638830368355,0.5149924930014111
1728328900469977900,3.038977783203125,-0.4139552116394043,0.09362035244703293,0.08438624441623688,-0.9207168817520142,0.035131294280290604,-0.38864666223526,-0.00970304012298584,0.007440738379955292,0.1106468141078949,0.6554585317468585,0.3245392022357281,-0.4476058241429016,0.5144875775752541
1728328900480009000,3.049009033203125,-0.27949485182762146,0.08219512552022934,0.050310567021369934,-0.9203576445579529,0.03711330145597458,-0.38931289315223694,-0.0040808916091918945,0.08811560273170471,0.08978292346000671,0.6560531748526041,0.3230118170007468,-0.44833795035673063,0.5140532456240086
1728328900490040800,3.059040771484375,-0.12252674996852875,0.11821624636650085,0.02783614955842495,-0.9199638366699219,0.03824160248041153,-0.3901335597038269,-0.018756866455078125,0.14541317522525787,0.07410880923271179,0.6564989830378193,0.3220182096012889,-0.4485950274052056,0.5138831560772237
1728328900500071700,3.06907177734375,0.004029321484267712,0.11357781291007996,0.02627367340028286,-0.9194865822792053,0.03868573158979416,-0.3912133574485779,-0.04047441482543945,0.16474443674087524,0.03179258108139038,0.6567921209805773,0.3214738583874536,-0.44838362625951605,0.5140338520276856
1728328900510102800,3.079102783203125,0.07508578151464462,0.07359013706445694,0.018196038901805878,-0.9191170930862427,0.03870147466659546,-0.39207908511161804,-0.057689547538757324,0.15250642597675323,-0.010646075010299683,0.6568694388606745,0.3213406336098863,-0.44799626071000964,0.5143560335224819
1728328900520134000,3.0891337890625,0.08615627884864807,0.051595352590084076,0.008420107886195183,-0.9188705086708069,0.03849150612950325,-0.3926771283149719,-0.05593717098236084,0.12982819974422455,-0.0047685205936431885,0.6568330815514792,0.32143394852686946,-0.44759541910450407,0.5146929420341203
1728328900530165000,3.0991650390625,0.07277703285217285,0.0628504604101181,-0.0047838445752859116,-0.918645977973938,0.03816023841500282,-0.39323458075523376,-0.05713838338851929,0.10128983110189438,0.011902213096618652,0.6568322903454471,0.32155776405865494,-0.4471949331703518,0.5149647852300964
1728328900540195800,3.10919580078125,-0.061651889234781265,0.05114772915840149,0.00978231430053711,-0.918414831161499,0.03808819130063057,-0.39378124475479126,-0.06448012590408325,0.06030050665140152,-0.00653308629989624,0.656947905667222,0.3214547168229833,-0.44696335254687125,0.5150827175141114
1728328900550227000,3.11922705078125,-0.18806681036949158,-0.0040192799642682076,0.03854498639702797,-0.9182612895965576,0.0388924703001976,-0.39406052231788635,-0.06828045845031738,0.020983029156923294,-0.03004223108291626,0.6572024025270415,0.3208229025706879,-0.4472609984638372,0.5148935817428851
1728328900560257800,3.1292578125,-0.19943958520889282,-0.11529786884784698,0.06937506794929504,-0.9185078144073486,0.04009286314249039,-0.39336511492729187,-0.04932671785354614,-0.007728952914476395,-0.04665255546569824,0.6571921555375773,0.3202942138718715,-0.4480279719408648,0.5145689366849978
1728328900570289000,3.139288818359375,-0.46960556507110596,-0.15591475367546082,0.08003410696983337,-0.9190183877944946,0.04207789525389671,-0.3919627368450165,-0.023181378841400146,-0.0035646893084049225,-0.05280041694641113,0.6572168144563186,0.31939671437676814,-0.4494489604800402,0.5138555416004599
1728328900580320800,3.14932080078125,-0.6801745295524597,-0.11988671123981476,0.06308042258024216,-0.9195579886436462,0.044994957745075226,-0.3903699815273285,-0.016049981117248535,-0.011700283735990524,0.004093766212463379,0.6576387390800217,0.3176988980011345,-0.45153340810563397,0.5125392236241257
1728328900590352000,3.159351806640625,-0.7812421917915344,-0.008984583429992199,0.05962790176272392,-0.9197911620140076,0.04848262667655945,-0.38940176367759705,-0.023202061653137207,-0.028066348284482956,0.056348204612731934,0.658484943902829,0.31529249243620383,-0.45375076468208353,0.5109780328304692
1728328900600382700,3.1693828125,-0.8670660257339478,0.026267413049936295,0.014253228902816772,-0.9197070598602295,0.05201840400695801,-0.38914379477500916,-0.03802603483200073,-0.015214186161756516,0.07491964101791382,0.6597186508963109,0.3124587945440474,-0.4558482252660647,0.5092574305223552
1728328900610413800,3.179413818359375,-0.946898877620697,-0.025536824017763138,-0.010691801086068153,-0.9197050929069519,0.05552227795124054,-0.3886644244194031,-0.03164994716644287,0.013127032667398453,0.06285876035690308,0.6611470670782865,0.3094586793465582,-0.45815184997535013,0.5071655545866472
1728328900620444700,3.189444580078125,-0.9258772134780884,-0.06012702360749245,0.0006985380314290524,-0.9198853969573975,0.05914812162518501,-0.3877013623714447,-0.002325296401977539,0.04320783168077469,0.06636658310890198,0.6625103205837266,0.30645646512437485,-0.4606883553212906,0.5049066865983833
1728328900630475800,3.199475830078125,-0.7877268195152283,-0.08092839270830154,-0.01675022579729557,-0.9201687574386597,0.06243708357214928,-0.38651156425476074,0.028170406818389893,0.06817816197872162,0.05737948417663574,0.6636807155801511,0.3037843300558066,-0.4630974975363409,0.502776078779955
1728328900640506600,3.209506591796875,-0.5823049545288086,-0.07396342605352402,-0.050407521426677704,-0.9204960465431213,0.06477909535169601,-0.3853450417518616,0.027536392211914062,0.09290525317192078,0.028747200965881348,0.6646258985892682,0.3017754880085944,-0.4650365874427078,0.5009441366391951
1728328900650538000,3.2195380859375,-0.43308597803115845,-0.03921785578131676,-0.06957296282052994,-0.9207574725151062,0.06614262610673904,-0.38448792695999146,0.008510708808898926,0.12508055567741394,0.026699841022491455,0.6653948789994875,0.30040082722768763,-0.4663854430309921,0.4994934715186492
1728328900660569900,3.22956982421875,-0.3200102746486664,-0.023997623473405838,-0.09351558238267899,-0.9209145903587341,0.06685473769903183,-0.38398826122283936,-0.0019370317459106445,0.16338515281677246,0.031769633293151855,0.6661049744377354,0.2993921792999353,-0.46730096360796286,0.4982955483644506
1728328900670601000,3.23960107421875,-0.19661089777946472,-0.060116901993751526,-0.12670069932937622,-0.921149492263794,0.0668022632598877,-0.3834334909915924,-0.01114732027053833,0.1821601539850235,0.011271655559539795,0.6666719124381313,0.2989038651130862,-0.46790996268221396,0.4972579353139901
1728328900680631800,3.2496318359375,-0.15936259925365448,-0.08945508301258087,-0.13074523210525513,-0.9215267300605774,0.06625419855117798,-0.3826211988925934,-0.010876834392547607,0.16438241302967072,0.0012583136558532715,0.6670776842725132,0.29882446844596333,-0.4683944185437647,0.4963044450706831
1728328900690663000,3.259662841796875,-0.2033357173204422,-0.08159646391868591,-0.1253720372915268,-0.9219560027122498,0.06576354056596756,-0.3816704750061035,0.0061997175216674805,0.13977238535881042,0.027697086334228516,0.6674467472331089,0.29875229215094784,-0.4689475843237709,0.4953283099383531
1728328900700693800,3.26969384765625,-0.279918909072876,-0.05030246451497078,-0.13494157791137695,-0.9222941994667053,0.06545158475637436,-0.38090625405311584,0.016013622283935547,0.10849863290786743,0.04457205533981323,0.6679771533938993,0.2984285809383037,-0.46956070114834275,0.49422634232124696
1728328900710724900,3.279724853515625,-0.40535807609558105,-0.02592116966843605,-0.13988013565540314,-0.9225316047668457,0.06544758379459381,-0.3803316652774811,0.005447804927825928,0.05714155733585358,0.05547207593917847,0.668735998853668,0.2977225048060848,-0.47031423774103265,0.49290778133733143
1728328900720755700,3.289755615234375,-0.592019259929657,-0.007269188761711121,-0.1361735612154007,-0.9226915836334229,0.06606593728065491,-0.37983620166778564,0.0053331851959228516,0.010548442602157593,0.07520976662635803,0.6697656859597749,0.29643279332767125,-0.47139102560752355,0.4912556027785556
1728328900730786800,3.299786865234375,-0.7611145377159119,0.03342689573764801,-0.1485588550567627,-0.9227421283721924,0.067351795732975,-0.37948763370513916,0.015927493572235107,-0.0008539706468582153,0.09608614444732666,0.6711581298396416,0.29444063648663216,-0.4728222638676206,0.48917350513234004
1728328900740819000,3.30981884765625,-0.8011085391044617,0.07035695016384125,-0.1713232845067978,-0.9226628541946411,0.0688597783446312,-0.3794099688529968,0.017648637294769287,0.00825817883014679,0.08862316608428955,0.6728293948733161,0.2920460090601509,-0.47434601660352477,0.4868324392682244
1728328900750850000,3.31985009765625,-0.7368680834770203,0.09023845940828323,-0.1629151552915573,-0.9224615693092346,0.07023336738348007,-0.37964728474617004,0.012579917907714844,0.029269203543663025,0.05950266122817993,0.6745782062153377,0.2896255208535555,-0.47570307316363075,0.48452861076049003
1728328900760881000,3.329880859375,-0.5575504899024963,0.0874120444059372,-0.14647039771080017,-0.9222429990768433,0.071261465549469,-0.37998655438423157,0.011583089828491211,0.0650910884141922,0.02863764762878418,0.6761117066555115,0.287581726581503,-0.47676354593569903,0.4825622786362328
1728328900770912000,3.339912109375,-0.37923702597618103,0.09097754210233688,-0.12116771191358566,-0.9219995737075806,0.07178527116775513,-0.3804784119129181,0.008486330509185791,0.09494752436876297,-0.012862622737884521,0.6773127292134281,0.28611907257699387,-0.47738524872090715,0.48113075901602925
1728328900780942800,3.34994287109375,-0.3424382507801056,0.09668842703104019,-0.1121039092540741,-0.9217261075973511,0.07205546647310257,-0.381089448928833,0.009555637836456299,0.10180319845676422,-0.03143191337585449,0.6783187790325059,0.28497735336744173,-0.47774803388827847,0.480029657506915
1728328900790974000,3.359973876953125,-0.38285714387893677,0.11584635078907013,-0.12082283198833466,-0.9214094281196594,0.07235272228717804,-0.38179829716682434,0.013969182968139648,0.10240619629621506,-0.009864270687103271,0.6793679858021815,0.28377621834642547,-0.4780919498075098,0.4789138156139008
1728328900801004800,3.3700048828125,-0.47123706340789795,0.15748408436775208,-0.12332513928413391,-0.9209693670272827,0.07281249761581421,-0.38277140259742737,0.01864081621170044,0.08587892353534698,0.030018746852874756,0.6806025466850028,0.28230295200536765,-0.4784551688709505,0.4776672319162833
1728328900811036000,3.380035888671875,-0.5880760550498962,0.19155587255954742,-0.11995358020067215,-0.9203891754150391,0.07374073565006256,-0.38398727774620056,0.024881303310394287,0.055424921214580536,0.05963122844696045,0.6820566439196749,0.2803631718026396,-0.47896017446822287,0.476227346591183
1728328900821066800,3.390066650390625,-0.646820068359375,0.2255902737379074,-0.13064776360988617,-0.9196749329566956,0.07498282939195633,-0.3854551911354065,0.03487873077392578,0.03439219295978546,0.07004082202911377,0.6837297561948321,0.27803564250125445,-0.4795503922067124,0.4745959121609286
1728328900831099000,3.400098876953125,-0.6995562314987183,0.23448534309864044,-0.142580047249794,-0.9188777804374695,0.07631251960992813,-0.3870916962623596,0.03374594449996948,0.024212390184402466,0.05951604247093201,0.6855479818992938,0.27551071470885935,-0.48015414463817035,0.47283164634203073
1728328900841129700,3.410129638671875,-0.7270805239677429,0.20915095508098602,-0.1382412314414978,-0.9181205034255981,0.07780096679925919,-0.38858968019485474,0.02867037057876587,0.027942456305027008,0.040338337421417236,0.6874086782385048,0.27285157633821727,-0.4808920633774922,0.47091861446501104
1728328900851160800,3.420160888671875,-0.6882911920547485,0.21499770879745483,-0.13575677573680878,-0.9174122214317322,0.07930406928062439,-0.38995614647865295,0.0382617712020874,0.04725233465433121,0.04287976026535034,0.6892026700515881,0.270243192148072,-0.48165396796934506,0.46901796374404403
1728328900861191700,3.430191650390625,-0.6332143545150757,0.25401514768600464,-0.11239579319953918,-0.9166069626808167,0.08073172718286514,-0.39155369997024536,0.044551730155944824,0.05316416174173355,0.03527623414993286,0.6909516528473766,0.267716782103752,-0.48223528437039076,0.4672930946096616
1728328900871223000,3.44022314453125,-0.5974019765853882,0.282936155796051,-0.08760122954845428,-0.9156259298324585,0.08223894238471985,-0.39353013038635254,0.04502040147781372,0.04512619972229004,0.031118690967559814,0.692652127788841,0.2651995561898688,-0.4826014152686245,0.4658306041463823
1728328900881254000,3.45025390625,-0.5993226170539856,0.2819926142692566,-0.09676570445299149,-0.914591372013092,0.08375942707061768,-0.3956100046634674,0.05427020788192749,0.037303827702999115,0.022502124309539795,0.6943343549221453,0.26269239125460564,-0.48289513396649647,0.4644405189285536
1728328900891285000,3.460284912109375,-0.6221736669540405,0.25791266560554504,-0.10275568068027496,-0.9135990142822266,0.08526958525180817,-0.3975754678249359,0.06525593996047974,0.02616535872220993,0.029060423374176025,0.6960233654972408,0.2601773105052257,-0.48323910397834735,0.4629680805103687
1728328900901315800,3.47031591796875,-0.625586211681366,0.24473455548286438,-0.10791369527578354,-0.91270512342453,0.08679107576608658,-0.399295449256897,0.07545530796051025,0.02240081876516342,0.04187363386154175,0.6976807411611778,0.25767903408506493,-0.4836876930825508,0.46139945757108247
1728328900911348000,3.480347900390625,-0.6302189230918884,0.2636271119117737,-0.11477719247341156,-0.9117926955223083,0.0882941260933876,-0.401046484708786,0.07455813884735107,0.016259104013442993,0.038665562868118286,0.6993542993247701,0.2551693200181617,-0.4841129710531819,0.45981173448312845
1728328900921378800,3.49037890625,-0.6444905400276184,0.3125600516796112,-0.12385617196559906,-0.9107489585876465,0.08975245803594589,-0.40308913588523865,0.058515071868896484,0.005645520985126495,0.043500542640686035,0.7011361970885616,0.2525725803886813,-0.48441978519764334,0.4582059041724129
1728328900931410000,3.500409912109375,-0.6724303364753723,0.3388192653656006,-0.11358116567134857,-0.909518837928772,0.09133528918027878,-0.40550392866134644,0.0387149453163147,0.01034931093454361,0.055619895458221436,0.7030416870987797,0.24978557149158875,-0.4846186153483106,0.45660093944021146
1728328900941440800,3.510440673828125,-0.6842600703239441,0.3227238953113556,-0.10484679788351059,-0.9082703590393066,0.09313662350177765,-0.40788546204566956,0.03452157974243164,0.03068844974040985,0.05011269450187683,0.7049361567451078,0.24688829965407597,-0.4848746654120391,0.4549810857625424
1728328900951471900,3.520471923828125,-0.6238653659820557,0.31209495663642883,-0.1303255259990692,-0.9070826768875122,0.09476001560688019,-0.41014835238456726,0.04261118173599243,0.0488862469792366,0.03925299644470215,0.7067881349221519,0.2441226801960175,-0.48510818173872555,0.45334841096793793
1728328900961502700,3.530502685546875,-0.5806416869163513,0.3003682792186737,-0.15466947853565216,-0.9059554934501648,0.09591183811426163,-0.41236594319343567,0.04114830493927002,0.042805835604667664,0.03989893198013306,0.708591049878171,0.24165606130056666,-0.48520035204464834,0.4517540870126887
1728328900971533800,3.540533935546875,-0.5855000019073486,0.30763736367225647,-0.14787974953651428,-0.9048527479171753,0.09692706912755966,-0.4145439863204956,0.023886561393737793,0.041546449065208435,0.03673639893531799,0.7103788737652931,0.23927382045298684,-0.4852587404247964,0.4501487180439003
1728328900981564700,3.550564697265625,-0.5149491429328918,0.30740272998809814,-0.10199162364006042,-0.9036838412284851,0.09810105711221695,-0.4168114960193634,0.007763981819152832,0.056378938257694244,0.03654724359512329,0.7120784933376559,0.2369021892014153,-0.48525416638959606,0.4487204791101496
1728328900991597000,3.56059716796875,-0.4154834747314453,0.30015191435813904,-0.0534358024597168,-0.9024877548217773,0.09933601319789886,-0.41910427808761597,-0.013405859470367432,0.07122675329446793,-0.005502045154571533,0.7135469132430884,0.2347468870395364,-0.4851203556343071,0.4476640074647063
1728328901001628000,3.5706279296875,-0.3244195878505707,0.2867617905139923,0.0039744931273162365,-0.9012823104858398,0.10062744468450546,-0.42138391733169556,-0.02037912607192993,0.08456849306821823,-0.03410619497299194,0.7147520369610342,0.23284499568945305,-0.4848620928788184,0.44701403161345654
1728328901011659000,3.580658935546875,-0.2631690204143524,0.26076433062553406,0.01147049106657505,-0.9000966548919678,0.10198819637298584,-0.42358508706092834,-0.004612147808074951,0.09675753861665726,-0.03668093681335449,0.7157296169699048,0.23114868590573381,-0.484538683424525,0.44668065983476735
1728328901021689900,3.59068994140625,-0.2799687683582306,0.22055140137672424,-0.03600354865193367,-0.8990793824195862,0.10300438106060028,-0.4254956543445587,0.023957252502441406,0.0927811712026596,-0.028911054134368896,0.7166593852789127,0.2296768464641008,-0.48425274782394045,0.4462592260678524
1728328901031721000,3.600720947265625,-0.31528928875923157,0.19189824163913727,-0.051611535251140594,-0.8982691168785095,0.10383143275976181,-0.4270031750202179,0.026137709617614746,0.07028663903474808,-0.029509246349334717,0.7176027871682814,0.22827378376064128,-0.48413788748991426,0.44558714335846306
1728328901041751800,3.610751708984375,-0.3408689498901367,0.18925799429416656,-0.000988041516393423,-0.8974778056144714,0.10497002303600311,-0.4283864200115204,0.021974265575408936,0.033396705985069275,-0.03700661659240723,0.7185028742424244,0.22674366814110142,-0.4841426456909792,0.4449122380584834
1728328901051783000,3.620782958984375,-0.4168538749217987,0.18618890643119812,0.021308476105332375,-0.8966578841209412,0.10672923177480698,-0.4296668767929077,0.027990221977233887,0.0021269768476486206,-0.022115349769592285,0.7193541168573,0.22492602574258866,-0.4843292743974928,0.4442557777220487
1728328901061813800,3.630813720703125,-0.4529825747013092,0.22264623641967773,-0.02559378556907177,-0.8957982063293457,0.10859943181276321,-0.430989146232605,0.02092033624649048,-0.0003993511199951172,-0.019816458225250244,0.7203306122507881,0.22291179584126783,-0.48457791624419894,0.44341662848359115
1728328901071846000,3.640845947265625,-0.4906946122646332,0.2385755181312561,-0.0636327788233757,-0.8948336839675903,0.11020337790250778,-0.4325830340385437,-0.006258904933929443,0.009425558149814606,0.009227931499481201,0.721530189882098,0.22080885961036198,-0.48471840283965,0.44236394983195754
1728328901081876700,3.650876708984375,-0.5184566974639893,0.2139332890510559,-0.06061568483710289,-0.8939089179039001,0.11182613670825958,-0.43407580256462097,-0.014385759830474854,0.02661687135696411,0.018319636583328247,0.7227955526943903,0.21861573422216085,-0.4849425358118063,0.4411399962996483
1728328901091908000,3.660908203125,-0.47697678208351135,0.16446907818317413,-0.03888535499572754,-0.8931455016136169,0.11353141814470291,-0.4352033734321594,0.002871394157409668,0.04750987887382507,0.00006848573684692383,0.7239181490551444,0.21651291834228503,-0.48530451390587526,0.43993685189733583
1728328901101939000,3.67093896484375,-0.4280822277069092,0.12491979449987411,-0.024371927604079247,-0.8925502896308899,0.11523543298244476,-0.4359758794307709,0.023531675338745117,0.05224505066871643,-0.005872845649719238,0.7248210196927526,0.21463060632956146,-0.4857424847223772,0.4388878805515986
1728328901111970000,3.680969970703125,-0.3871506154537201,0.11919613182544708,-0.02535569854080677,-0.8920687437057495,0.11677601933479309,-0.43655121326446533,0.020562946796417236,0.0612330362200737,-0.018587946891784668,0.7256039754951464,0.21295606010754883,-0.4861832058261331,0.4379208721809377
1728328901122001000,3.6910009765625,-0.3787485957145691,0.11838892847299576,0.012521108612418175,-0.8915477991104126,0.11839011311531067,-0.4371801018714905,-0.006111562252044678,0.08098124712705612,-0.03375190496444702,0.7263200772756452,0.21131601435558084,-0.4865752650674151,0.4370919243696333
1728328901132032000,3.701031982421875,-0.35848110914230347,0.11457650363445282,-0.002049843780696392,-0.8910466432571411,0.12008796632289886,-0.4377383887767792,-0.03233903646469116,0.11140314489603043,-0.04823875427246094,0.7269702009495014,0.20969721901761174,-0.4869885810975134,0.43632976590944106
1728328901142062800,3.711062744140625,-0.33321863412857056,0.12512847781181335,-0.018395794555544853,-0.8905104398727417,0.12147243320941925,-0.438446968793869,-0.045189082622528076,0.12814611196517944,-0.054274559020996094,0.7276715072593234,0.20819958647108142,-0.48726731947320284,0.4355660948649206
1728328901152094700,3.7210947265625,-0.3238023519515991,0.050852276384830475,0.0004945402033627033,-0.8901278376579285,0.12282900512218475,-0.43884575366973877,-0.05672585964202881,0.11507081240415573,-0.09273993968963623,0.7282530371501951,0.20683025035414804,-0.48764574182240483,0.43482233484945265
1728328901162125800,3.731125732421875,-0.33948755264282227,-0.0009741680696606636,0.0071513778530061245,-0.890020489692688,0.12433496862649918,-0.4386391341686249,-0.015146136283874512,0.08281837403774261,-0.11337801814079285,0.7286307036314619,0.20556719505813714,-0.4882853257203749,0.43407009063160606
1728328901172157000,3.741156982421875,-0.43260619044303894,-0.04133351892232895,-0.023633433505892754,-0.8901297450065613,0.1259525865316391,-0.4379555881023407,0.023522019386291504,0.0386287122964859,-0.07470917701721191,0.7289795961403494,0.2042407115575552,-0.4891911006384931,0.433089661414048
1728328901182187800,3.751187744140625,-0.5566216111183167,-0.046001508831977844,-0.04967807978391647,-0.8903810977935791,0.12780585885047913,-0.4369065463542938,0.013488948345184326,0.028459444642066956,-0.03913712501525879,0.7294583017032417,0.2026066675032342,-0.490405199093377,0.43167577701081655
1728328901192218400,3.76121826171875,-0.5770438313484192,-0.0020204177126288414,-0.06316912174224854,-0.890579104423523,0.12979528307914734,-0.43591538071632385,-0.018219172954559326,0.06425075232982635,-0.00713878870010376,0.7300984593017372,0.2007083472218021,-0.49168941016332246,0.4300163782567333
1728328901202249200,3.771249267578125,-0.43303847312927246,0.08138685673475266,-0.04166622832417488,-0.8904843330383301,0.1315496414899826,-0.4355829060077667,-0.0533481240272522,0.10047551989555359,0.0007379651069641113,0.7308204580415943,0.19888590478436852,-0.4925981614916686,0.4285941903755419
1728328901212280300,3.7812802734375,-0.2722180485725403,0.10758166015148163,-0.01591133140027523,-0.8900827169418335,0.13282683491706848,-0.43601593375205994,-0.07329624891281128,0.1178140789270401,-0.019413113594055176,0.7314811677381183,0.1974523487220888,-0.4929549726880343,0.42771876083275767
1728328901222311200,3.791311279296875,-0.1818961501121521,0.05607718601822853,-0.02518339268863201,-0.8897536993026733,0.13363617658615112,-0.436440110206604,-0.054414451122283936,0.14262421429157257,-0.051673293113708496,0.7319510231744477,0.1964957329861131,-0.4931220612926282,0.4271626846034314
1728328901232342300,3.80134228515625,-0.08458290249109268,0.018081389367580414,-0.023388423025608063,-0.8896234035491943,0.13399149477481842,-0.43659651279449463,-0.026026010513305664,0.15761923789978027,-0.07722792029380798,0.7322265109376571,0.19599298335756965,-0.49324284220315046,0.42678167668445877
1728328901242374100,3.8113740234375,-0.10169690102338791,-0.01901058480143547,0.003207236062735319,-0.8896356225013733,0.13425035774707794,-0.4364921748638153,-0.015027523040771484,0.10769301652908325,-0.0816199779510498,0.7323272499459632,0.1957245871261842,-0.4934022672586065,0.4265477491752915
1728328901252405200,3.8214052734375,-0.2861725687980652,-0.050862524658441544,0.011799657717347145,-0.8897824883460999,0.13515634834766388,-0.43591296672821045,-0.008304119110107422,0.040136635303497314,-0.09152227640151978,0.7324015075813383,0.1950886489778061,-0.49394729360686035,0.4260806759250356
1728328901262436000,3.83143603515625,-0.4797758460044861,-0.04380355030298233,-0.022445129230618477,-0.8900066018104553,0.13683202862739563,-0.43493157625198364,-0.006020069122314453,0.006707414984703064,-0.06355780363082886,0.7326575937029107,0.19377791735025207,-0.49495892508750805,0.42506330692443883
1728328901272467200,3.84146728515625,-0.5746715664863586,-0.002902456559240818,-0.06251239031553268,-0.8901863694190979,0.13876181840896606,-0.43395110964775085,-0.010326385498046875,-0.004118219017982483,-0.0006496906280517578,0.7332035940870727,0.19198074236691687,-0.49615303991194337,0.42354245551525
1728328901282498000,3.851498046875,-0.5860903859138489,0.05886077508330345,-0.08997171372175217,-0.8901641964912415,0.1405964195728302,-0.43340563774108887,-0.01318669319152832,0.006986603140830994,0.04105639457702637,0.7340030104886873,0.18996840404742477,-0.49720135103940033,0.42183230595063237
1728328901292529200,3.861529052734375,-0.5772417187690735,0.0627981573343277,-0.09500055760145187,-0.8900229930877686,0.14229927957057953,-0.4331398904323578,-0.01389247179031372,0.03789179027080536,0.054584622383117676,0.734906296720538,0.18792353209850315,-0.49811122647084605,0.4200986033385552
1728328901302560000,3.87156005859375,-0.5222336053848267,0.04473526403307915,-0.08691973239183426,-0.8899237513542175,0.1438966542482376,-0.4328159689903259,-0.013411879539489746,0.08156724274158478,0.05157512426376343,0.7357490855626061,0.18599494752482537,-0.4989968939114997,0.41842733812669586
1728328901312591000,3.881591064453125,-0.40836456418037415,0.03493642807006836,-0.08929713070392609,-0.8898820281028748,0.1451309621334076,-0.43248939514160156,-0.010706961154937744,0.1130172461271286,0.04479408264160156,0.7364630487132106,0.184415822285726,-0.4997460377547073,0.41697363719560065
1728328901322623200,3.891623291015625,-0.32270798087120056,0.03547731786966324,-0.09959877282381058,-0.8898730278015137,0.14583761990070343,-0.4322701096534729,-0.009083271026611328,0.11385171115398407,0.03160485625267029,0.7370807118096506,0.1832542525711028,-0.5002827430459338,0.415748870488471
1728328901332654300,3.901654296875,-0.32925015687942505,0.03538373112678528,-0.11602994054555893,-0.8898743391036987,0.1462807059288025,-0.43211764097213745,-0.00886833667755127,0.1030631810426712,0.03262731432914734,0.7376888326286581,0.18225579815448253,-0.5007234828320775,0.4145769544937591
1728328901342685200,3.911685302734375,-0.3555414080619812,0.028557252138853073,-0.1369924694299698,-0.8899245262145996,0.1466328650712967,-0.4318949580192566,-0.006102144718170166,0.10733446478843689,0.04523724317550659,0.7383478404684358,0.18123590595823735,-0.5012046159954123,0.41326748486011194
1728328901352716300,3.92171630859375,-0.3466681241989136,0.05863983929157257,-0.14275076985359192,-0.8899428844451904,0.14691098034381866,-0.4317623972892761,-0.00663304328918457,0.10377566516399384,0.030730992555618286,0.7390678078795812,0.18018948335585475,-0.5016478293312107,0.4118980040157032
1728328901362747100,3.9317470703125,-0.3468513488769531,0.05833704024553299,-0.12583036720752716,-0.889875590801239,0.14721952378749847,-0.431796133518219,-0.007020771503448486,0.07870210707187653,0.005908101797103882,0.7398107431767821,0.17911271898147937,-0.5020165070860814,0.41058266201744203
1728328901372778200,3.9417783203125,-0.35192519426345825,0.032474976032972336,-0.11516734957695007,-0.8898516297340393,0.14766839146614075,-0.43169233202934265,0.013890266418457031,0.06203317642211914,-0.01732802391052246,0.7404839605943067,0.17802267769196042,-0.50245572876284,0.40930399276608015
1728328901382809000,3.95180908203125,-0.34469151496887207,-0.01919594407081604,-0.13167627155780792,-0.8900102972984314,0.14809489250183105,-0.4312189519405365,0.03925645351409912,0.05972985923290253,-0.03910267353057861,0.7410595701637618,0.17701780245509843,-0.5030459383677239,0.40797105006293044
1728328901392840200,3.961840087890625,-0.28762149810791016,-0.07612590491771698,-0.13859383761882782,-0.8904194235801697,0.14825978875160217,-0.4303167462348938,0.0415424108505249,0.053140997886657715,-0.06374752521514893,0.7414938992525894,0.17627888402485276,-0.5037532896014183,0.4066268452720879
1728328901402872000,3.9718720703125,-0.23910190165042877,-0.10240384936332703,-0.11683502048254013,-0.8910070657730103,0.14820866286754608,-0.4291163384914398,0.02842766046524048,0.030014023184776306,-0.07907760143280029,0.7417568751057602,0.1758331087904945,-0.5045042564760742,0.40540738165145
1728328901412903400,3.9819033203125,-0.24551425874233246,-0.1058388501405716,-0.10076896846294403,-0.8916237950325012,0.14827972650527954,-0.4278089106082916,0.020423054695129395,0.01285313069820404,-0.07052791118621826,0.7419195691279193,0.1754250916445516,-0.5052935658288478,0.40430193990374264
1728328901422934300,3.991934326171875,-0.2684142589569092,-0.05780554562807083,-0.10174288600683212,-0.8921492099761963,0.1484745740890503,-0.4266442358493805,0.021864116191864014,0.024361759424209595,-0.03790956735610962,0.7421283974118683,0.17490312717216594,-0.5060501789300469,0.40319690273645803
1728328901432965400,4.00196533203125,-0.26001298427581787,-0.01772449165582657,-0.09835028648376465,-0.8924505710601807,0.14868851006031036,-0.42593881487846375,0.015619456768035889,0.03563767671585083,-0.019465208053588867,0.7424797460462351,0.17424735849200632,-0.5066245710167838,0.40211115827271315
1728328901442996200,4.011996337890625,-0.19261370599269867,-0.03237933665513992,-0.0931539237499237,-0.8926812410354614,0.14883093535900116,-0.42540550231933594,0.0204581618309021,0.027316570281982422,-0.009363174438476562,0.7428145711252101,0.17367288908254067,-0.5070847769055967,0.40116017877345855
1728328901453027300,4.02202734375,-0.08528151363134384,-0.04339214414358139,-0.06773778051137924,-0.8929786086082458,0.1486724466085434,-0.42483633756637573,0.040241122245788574,0.0032593607902526855,-0.020354092121124268,0.7430004268593173,0.17345079452659684,-0.5074412779092161,0.40046059081070806
1728328901463058200,4.03205810546875,-0.04628591239452362,-0.05152757465839386,-0.0013869828544557095,-0.8932350277900696,0.14859725534915924,-0.4243233799934387,0.042526841163635254,-0.04303692281246185,-0.02695530652999878,0.7429938179179202,0.17343208992462486,-0.5077003218742991,0.4001525836477507
1728328901473089300,4.04208935546875,-0.1730772852897644,-0.024401623755693436,0.0345984511077404,-0.8933752775192261,0.14922256767749786,-0.42380818724632263,0.0402258038520813,-0.08621901273727417,-0.02608191967010498,0.7429350896884679,0.17308047287872724,-0.5080738699282084,0.39993955626424704
1728328901483121200,4.05212109375,-0.33935973048210144,0.028955873101949692,0.025514138862490654,-0.8933265209197998,0.15061689913272858,-0.42341741919517517,0.036499738693237305,-0.09170268476009369,0.0010236501693725586,0.7430945321439967,0.1720302208840322,-0.5086225461026683,0.3993986639939184
1728328901493152300,4.06215234375,-0.4386413097381592,0.078194260597229,-0.0033036600798368454,-0.8930767178535461,0.1523977667093277,-0.4233071506023407,0.03980523347854614,-0.07982693612575531,0.045850545167922974,0.7435525817258041,0.17041575047038632,-0.5092198890304424,0.3984760987858564
1728328901503183000,4.07218310546875,-0.4242197871208191,0.07924514263868332,-0.02119584195315838,-0.8927353620529175,0.15415383875370026,-0.42339128255844116,0.05447852611541748,-0.060586944222450256,0.05260273814201355,0.7441647489026765,0.16864184448916636,-0.5097688599449618,0.39738448979385205
1728328901513214200,4.082214111328125,-0.3103746175765991,0.018966570496559143,-0.01909966766834259,-0.8925573825836182,0.15555691719055176,-0.42325344681739807,0.06540894508361816,-0.026864275336265564,0.01881927251815796,0.7446510290536289,0.16719539503105496,-0.5103126274522674,0.3963858092273744
1728328901523245000,4.0922451171875,-0.12671664357185364,-0.021802697330713272,0.04361831024289131,-0.8925604224205017,0.15655802190303802,-0.42287755012512207,0.054776668548583984,0.003689795732498169,-0.028431594371795654,0.74481011974759,0.16636242975751497,-0.5107687987134992,0.3958492275591608
