time,seconds_elapsed,rotationRateX,rotationRateY,rotationRateZ,gravityX,gravityY,gravityZ,accelerationX,accelerationY,accelerationZ,quaternionW,quaternionX,quaternionY,quaternionZ
1728065404493656800,0.13665673828125,-0.05312156304717064,0.012406151741743088,-0.06515742838382721,0.05808272957801819,-0.15541985630989075,-0.9861394762992859,-0.0028001777827739716,-0.002493247389793396,0.0032445788383483887,0.9965288701532578,0.07798061130489048,0.029142522271553884,4.8815256521539076e-17
1728065404503687000,0.14668701171875,-0.03661661967635155,0.00720073701813817,-0.057193778455257416,0.05851070210337639,-0.15445828437805176,-0.986265242099762,-0.012200314551591873,-0.005026474595069885,0.002821028232574463,0.9965603778089858,0.07750524944549472,0.029331092433897133,-0.0003244590624173109
1728065404513718000,0.156718017578125,-0.03284372016787529,0.005640923976898193,-0.0423104353249073,0.05870091915130615,-0.15369915962219238,-0.9863725304603577,-0.008102811872959137,-0.0007044374942779541,0.004972994327545166,0.9965872226057751,0.07712950272793212,0.029407022622738522,-0.0005678248394337731
1728065404523748900,0.166748779296875,-0.039805956184864044,-0.00410107895731926,-0.03722646087408066,0.05840938910841942,-0.15332141518592834,-0.9864486455917358,0.004136350005865097,0.0059063732624053955,0.00845181941986084,0.9966061237324743,0.07694383207080834,0.029246114132616817,-0.0007516908511921321
1728065404533779000,0.176779052734375,-0.04193495586514473,-0.018739037215709686,-0.02136094495654106,0.05773499608039856,-0.15318042039871216,-0.9865102171897888,0.012073922902345657,0.008756071329116821,0.007903039455413818,0.9966214324556605,0.07687566303366135,0.028896687259940736,-0.0008902804837135995
1728065404543809800,0.186809814453125,-0.05109429731965065,-0.02076820656657219,-0.003554251044988632,0.057029563933610916,-0.15298821032047272,-0.9865810871124268,0.015403874218463898,0.00918947160243988,0.003457307815551758,0.9966391325221942,0.07677870720989179,0.028539237595585163,-0.0009307391564427337
1728065404553841000,0.1968408203125,-0.055408887565135956,-0.006730151828378439,0.005388111341744661,0.05687128007411957,-0.15263690054416656,-0.9866446256637573,0.017408467829227448,0.007602199912071228,-0.0013772249221801758,0.9966552124432763,0.0766011278397332,0.028459594399370156,-0.0009299720141140482
1728065404563871000,0.20687109375,-0.05152033641934395,0.006662298925220966,0.02516980655491352,0.05710139125585556,-0.1522456258535385,-0.9866917729377747,0.014050297439098358,0.003548845648765564,-0.0013452768325805664,0.996667105958202,0.07640173058494211,0.028581058687197514,-0.0008493873433023841
1728065404573901800,0.21690185546875,-0.06348299235105515,0.003897138638421893,0.013951506465673447,0.057083968073129654,-0.1519094705581665,-0.9867446422576904,0.00601109117269516,0.0012137740850448608,0.0021407008171081543,0.9966804224969639,0.07622851738552894,0.02858156525273626,-0.0007254126940728593
1728065404583933000,0.226932861328125,-0.06305988132953644,-0.009175732731819153,0.012895829975605011,0.056658513844013214,-0.15158213675022125,-0.9868194460868835,0.0013095848262310028,0.0035262107849121094,0.006869494915008545,0.9966992988859271,0.07606012629867964,0.02837465083185413,-0.0006345339694312089
1728065404593963000,0.236962890625,-0.06073973700404167,-0.0013902471400797367,0.005213408265262842,0.056388527154922485,-0.1510792076587677,-0.9869120717048645,-0.0001446753740310669,0.005266338586807251,0.011066734790802002,0.99672251222031,0.07580434210014131,0.028243108496835017,-0.0005767651187098648
1728065404603993900,0.246993896484375,-0.03859328478574753,0.006011954974383116,-0.011171956546604633,0.05666214972734451,-0.1504836529493332,-0.9869873523712158,-0.0022340863943099976,0.008653298020362854,0.0017883777618408203,0.9967414106132406,0.07550489253793688,0.02837824359565433,-0.0006000088257356044
1728065404614025000,0.25702490234375,-0.01453801803290844,0.013373464345932007,-0.028102204203605652,0.0572533905506134,-0.15005619823932648,-0.987018346786499,-0.004961561411619186,0.013856366276741028,-0.0072138309478759766,0.9967490419915691,0.07529326805328661,0.028666324757155585,-0.0007113979743374579
1728065404624054800,0.2670546875,-0.006579094100743532,0.015509160235524178,-0.02477937750518322,0.05796230584383011,-0.14975044131278992,-0.9870234131813049,-0.007211614400148392,0.015763133764266968,-0.010428369045257568,0.9967501862939606,0.07514456274704799,0.029010326921994286,-0.0008663974821048405
1728065404634086000,0.2770859375,-0.018788622692227364,0.016410373151302338,-0.02050047740340233,0.05869457125663757,-0.14946407079696655,-0.9870235323905945,-0.006356958299875259,0.017338305711746216,-0.005377590656280518,0.9967500669505036,0.07500487984776236,0.02936845327793945,-0.0009902973254157258
1728065404644117000,0.287116943359375,-0.0499059297144413,0.008473195135593414,-0.031235946342349052,0.059260886162519455,-0.14908865094184875,-0.987046480178833,-0.0062518976628780365,0.008723154664039612,0.008698701858520508,0.9967557081785374,0.07482021758671827,0.02964292746174308,-0.0011185037692092753
1728065404654146800,0.297146728515625,-0.07995251566171646,0.002976164687424898,-0.03198189660906792,0.05948326736688614,-0.14848798513412476,-0.9871236085891724,-0.008503690361976624,-0.006098717451095581,0.014726758003234863,0.9967749360972504,0.0745223169559441,0.029742370296523227,-0.0012772511270519103
1728065404664178000,0.307177978515625,-0.07555630058050156,-0.007956431247293949,-0.026633471250534058,0.05947982519865036,-0.14770345389842987,-0.9872415065765381,-0.008134037256240845,-0.008988946676254272,0.013547658920288086,0.9968043090570019,0.07413052648284597,0.029730453696540877,-0.0014092514628702348
1728065404674208000,0.3172080078125,-0.06753512471914291,-0.006959876976907253,-0.03273051232099533,0.05937490239739418,-0.1469855159521103,-0.9873549938201904,-0.0012084394693374634,-0.0005973875522613525,0.00485682487487793,0.9968325585898721,0.07377240680497336,0.02966709255465733,-0.001549741797418564
1728065404684238800,0.32723876953125,-0.05964670702815056,-0.0015957900322973728,-0.03500219061970711,0.059240683913230896,-0.14617332816123962,-0.9874836206436157,0.007501218467950821,0.008951127529144287,-0.0017741918563842773,0.996864554179801,0.07336785532903878,0.02958626668274681,-0.0017288510702426804
1728065404694270000,0.33727001953125,-0.0677323266863823,0.004915372468531132,-0.013574394397437572,0.05907239764928818,-0.14520759880542755,-0.987636148929596,0.008997023105621338,0.019444763660430908,-0.0011944174766540527,0.9969025928209779,0.07288435199899859,0.029492126962864133,-0.0018580160272558053
1728065404704300000,0.347300048828125,-0.08170587569475174,-0.0038363607600331306,0.010324813425540924,0.058833856135606766,-0.14407363533973694,-0.9878164529800415,0.012775599956512451,0.0175325870513916,0.003883957862854004,0.9969477780959124,0.07231184345728557,0.029372858762293404,-0.0018492360820915826
1728065404714331000,0.357330810546875,-0.09805368632078171,-0.017540188506245613,0.026865439489483833,0.05849733203649521,-0.14278870820999146,-0.9880229830741882,0.022511545568704605,0.004971414804458618,0.006714999675750732,0.9969997763528409,0.07166030589929415,0.02921130404372146,-0.0017443664996277487
1728065404724362000,0.367362060546875,-0.10658837854862213,-0.026850229129195213,0.040720801800489426,0.0580558218061924,-0.14176662266254425,-0.9881961941719055,0.026767753064632416,-0.006762340664863586,0.010977566242218018,0.9970434300930373,0.07113864000244388,0.029003275050547003,-0.001551699843973708
1728065404734390000,0.37739013671875,-0.11241937428712845,-0.019167007878422737,0.04394695535302162,0.0575740784406662,-0.14114686846733093,-0.9883130788803101,0.023663677275180817,-0.005001723766326904,0.011063933372497559,0.9970731182582738,0.07081883638711382,0.028777445599221664,-0.0013248157657765266
1728065404744421000,0.387421142578125,-0.11388717591762543,-0.014880383387207985,0.033491384238004684,0.057202018797397614,-0.14059892296791077,-0.9884127974510193,0.018618863075971603,0.0031173378229141235,0.018686234951019287,0.9970983762985988,0.07053601488922248,0.028605398142189018,-0.0011145240388087988
1728065404754452200,0.3974521484375,-0.11618255078792572,-0.024582812562584877,0.012689433991909027,0.05702143535017967,-0.13969942927360535,-0.9885507822036743,0.007019668817520142,0.0024314522743225098,0.026072144508361816,0.9971331106639524,0.07007908044531276,0.028522564100263582,-0.0009977890082602278
1728065404764482000,0.40748193359375,-0.10391909629106522,-0.022897297516465187,-0.012600742280483246,0.05705661699175835,-0.1385400891304016,-0.9887118935585022,-0.0026132985949516296,0.0016535818576812744,0.020495951175689697,0.9971735193562085,0.06949491733569187,0.028539698575800167,-0.0009968667020336713
1728065404775767000,0.41876708984375,-0.08868607878684998,-0.007161211688071489,-0.03109453245997429,0.05725020915269852,-0.1370716243982315,-0.9889053702354431,-0.011245004832744598,0.008333340287208557,0.015547215938568115,0.9972218306301256,0.06875929922994982,0.028626665683790277,-0.0011339415358479774
1728065404794587100,0.437587158203125,-0.08032781630754471,0.005485714413225651,-0.0012639323249459267,0.05851433053612709,-0.13543248176574707,-0.989057183265686,-0.009167447686195374,0.016795501112937927,-0.006136298179626465,0.9972597177740223,0.0679405713569235,0.02924869513830053,-0.0013043757925618685
1728065404804618200,0.4476181640625,-0.11313176900148392,0.002002033405005932,-0.0033547799102962017,0.059370096772909164,-0.1348995417356491,-0.9890789985656738,0.005128767341375351,0.014812961220741272,-0.004985332489013672,0.997265199892811,0.06767398686225451,0.029676951685031646,-0.0013189204082184947
1728065404814648000,0.45764794921875,-0.1504642367362976,-0.005494232755154371,-0.0037928700912743807,0.060037754476070404,-0.133972629904747,-0.9891647100448608,0.00340825691819191,0.004730790853500366,0.01223599910736084,0.9972866893299971,0.06720865546822223,0.030010771282390904,-0.001332190308696086
1728065404824679200,0.46767919921875,-0.18469269573688507,-0.015161825343966484,0.0023987130261957645,0.06046108528971672,-0.13248483836650848,-0.989339292049408,0.008798524737358093,0.0015950500965118408,0.02834075689315796,0.9973304591777329,0.06645975920904561,0.03022344536481893,-0.0013208060730940914
1728065404834709200,0.477709228515625,-0.21604023873806,-0.03281405568122864,0.009741315618157387,0.060336899012327194,-0.13068541884422302,-0.9895861744880676,0.02360166236758232,0.00815744698047638,0.03929930925369263,0.9973923409642536,0.06555206417775968,0.030163620174657037,-0.0012735839093607456
1728065404844740000,0.487739990234375,-0.2378143072128296,-0.053655315190553665,0.028010865673422813,0.05980008840560913,-0.12861469388008118,-0.9898899793624878,0.036910079419612885,0.01421964168548584,0.03995406627655029,0.9974686258707223,0.06450541108695972,0.02990070952455721,-0.0011630776312102674
1728065404854771200,0.497771240234375,-0.263408899307251,-0.0759531632065773,0.05784386396408081,0.058879416435956955,-0.12618371844291687,-0.990257978439331,0.05160943791270256,0.016518890857696533,0.035942792892456055,0.9975610931711921,0.06327363355085328,0.029452551267271827,-0.0009322884332961505
1728065404864801300,0.50780126953125,-0.3183358609676361,-0.081365667283535,0.10155432671308517,0.057746823877096176,-0.12335564941167831,-0.9906809329986572,0.06356051564216614,0.020328402519226074,0.03125405311584473,0.9976673504488288,0.06183669209693582,0.028909566660228495,-0.0005058667846907256
1728065404874832100,0.51783203125,-0.4184240996837616,-0.08338247239589691,0.12109261006116867,0.05668022856116295,-0.11969166249036789,-0.9911918640136719,0.06928104162216187,0.01809874176979065,0.0283011794090271,0.9977954905667901,0.059975526694442394,0.028408061564366566,0.00008872424596692029
1728065404884863200,0.52786328125,-0.5418292284011841,-0.0796736553311348,0.10657518357038498,0.055875204503536224,-0.11501249670982361,-0.9917913675308228,0.06979614496231079,0.006888814270496368,0.035950303077697754,0.9979454640601142,0.05760534606453714,0.028034762306875564,0.000686774202402543
1728065404894893000,0.53789306640625,-0.6801589131355286,-0.08800216019153595,0.18864741921424866,0.054958682507276535,-0.1092025637626648,-0.992499053478241,0.08179055154323578,0.005732811987400055,0.03385037183761597,0.9981219225572329,0.05466391839999391,0.027610438105893198,0.00144964115248858
1728065404904924200,0.547924072265625,-0.8493261337280273,-0.09988198429346085,0.30580466985702515,0.05394566059112549,-0.10200555622577667,-0.9933200478553772,0.10885033011436462,0.024201087653636932,0.0473361611366272,0.9983247295915594,0.05101256918211671,0.027160455525630334,0.002786050761046907
1728065404914955300,0.557955322265625,-1.0132884979248047,-0.1382618546485901,0.33969658613204956,0.052460864186286926,-0.09283128380775452,-0.9942988753318787,0.12350344657897949,0.025799527764320374,0.06477922201156616,0.9985635083472257,0.0463627248161309,0.026477740674410177,0.004513826684725516
1728065404924985000,0.567985107421875,-1.0980231761932373,-0.19971612095832825,0.29293227195739746,0.05040368065237999,-0.08237764239311218,-0.9953257441520691,0.11672580242156982,0.012294121086597443,0.07154339551925659,0.998811328986577,0.041079055308703046,0.025487746710689915,0.006222380632095009
1728065404935016200,0.57801611328125,-0.9810435771942139,-0.04549991711974144,-0.2068072259426117,0.04879814386367798,-0.07199625670909882,-0.9962104558944702,0.11721744388341904,-0.019998885691165924,0.062479376792907715,0.9990285648967308,0.03586342757050698,0.02466950729835361,0.0068724610402892666
1728065404945047000,0.588047119140625,-0.907670259475708,-0.43784019351005554,-0.9619380235671997,0.047905292361974716,-0.06262866407632828,-0.9968864917755127,0.0737835168838501,-0.11437319219112396,0.029937028884887695,0.9992149875352478,0.03125288927148129,0.024083123264854813,0.0035699636277351852
1728065404955077000,0.5980771484375,-1.0066980123519897,-0.5191941857337952,-0.4841808080673218,0.042946573346853256,-0.05263688415288925,-0.9976897835731506,-0.01120832934975624,-0.2453519105911255,0.006753504276275635,0.9994222492818977,0.026342144048547393,0.021475287476321284,-0.00039502288160831215
1728065404965108200,0.608108154296875,-1.0556046962738037,-0.7402705550193787,0.9989830851554871,0.03760170191526413,-0.04242845997214317,-0.9983916878700256,0.18329975008964539,-0.11739199608564377,0.06597286462783813,0.9995970442047499,0.021198657308115362,0.018835581698740403,0.0012803097058860988
1728065404975139000,0.61813916015625,-0.9347097277641296,-0.6854387521743774,1.1336650848388672,0.029460279271006584,-0.03268764913082123,-0.9990313649177551,0.5509535074234009,0.028857793658971786,-0.023994147777557373,0.9997334160256377,0.016244507952941127,0.014847495834994905,0.006980728046599282
1728065404985169200,0.628169189453125,-0.6734165549278259,-0.5857364535331726,0.27632027864456177,0.023060347884893417,-0.024757781997323036,-0.9994274973869324,0.3148760199546814,0.033546946942806244,-0.029182732105255127,0.9997998617176773,0.012256802388467177,0.01166338617336936,0.010677975257089392
1728065404995200300,0.6382001953125,-0.4043086767196655,-0.5642034411430359,-0.854240894317627,0.017314299941062927,-0.019292127341032028,-0.9996639490127563,-0.12026538699865341,-0.015711434185504913,-0.12944066524505615,0.9998740971074405,0.00956718940061045,0.008745850281923212,0.009156210501506954
1728065405005231000,0.648231201171875,-0.2126264125108719,-0.26241791248321533,-0.9262455701828003,0.013368360698223114,-0.016123216599225998,-0.9997806549072266,-0.3132036030292511,-0.021474339067935944,-0.10698509216308594,0.9999365498966793,0.008034126140756125,0.006718082228492427,0.004166668096508269
1728065405015261200,0.65826123046875,-0.10628903657197952,-0.17425502836704254,-0.202487051486969,0.011199181899428368,-0.014479449018836021,-0.9998324513435364,-0.216231569647789,0.04864397644996643,-0.10217255353927612,0.9999572887138841,0.007232696748715461,0.005609290175405125,0.001307914279082883
1728065405025292000,0.6682919921875,-0.25830256938934326,0.6516614556312561,2.2874386310577393,0.015827719122171402,-0.013056180439889431,-0.9997894763946533,0.14361132681369781,0.17171716690063477,-0.07520747184753418,0.999924354344964,0.006474563572074198,0.007958406704654754,0.006787326672120952
1728065405035323100,0.6783232421875,-0.26598870754241943,0.07272003591060638,2.6137542724609375,0.018564697355031967,-0.010761146433651447,-0.9997697472572327,0.7174734473228455,0.2810401916503906,-0.048722684383392334,0.9997471504647208,0.005196364461082501,0.009387417912062641,0.01976290751182529
1728065405045353200,0.688353271484375,-0.39626121520996094,-0.6861720085144043,1.1502318382263184,0.015549474395811558,-0.008029010146856308,-0.999846875667572,0.7688133120536804,0.07219231873750687,0.11610358953475952,0.9995273007825755,0.003783749718451385,0.007889986456905678,0.029473318202955723
1728065405055384000,0.698384033203125,-0.7884002327919006,-1.0782368183135986,-0.1545107364654541,0.006143033970147371,-0.0021591829136013985,-0.99997878074646,0.19609692692756653,-0.2601240277290344,0.036020100116729736,0.9994952028505795,0.000981977982859256,0.00310412041009962,0.03160611944001421
1728065405065415200,0.708415283203125,-1.0548200607299805,-0.9354121685028076,-0.2768731415271759,-0.004052850417792797,0.007261158432811499,-0.9999654293060303,-0.06336051225662231,-0.330060750246048,0.028514623641967773,0.9995372006116939,-0.003567895961231342,-0.0021349292556395883,0.03013425512181207
1728065405075445200,0.7184453125,-1.0393351316452026,-0.6323640942573547,0.38385364413261414,-0.011987239122390747,0.01795477606356144,-0.9997669458389282,-0.004126075655221939,-0.23839840292930603,-0.026966452598571777,0.9994832752126901,-0.008792307248849827,-0.0062630563574096925,0.030276518576140634
1728065405085476000,0.72847607421875,-0.8623838424682617,-0.2981807589530945,0.995974600315094,-0.016385642811655998,0.027681387960910797,-0.9994825124740601,0.13798290491104126,-0.08526795357465744,-0.08698904514312744,0.9992973112209789,-0.01355711158829722,-0.008657876451056557,0.033854634838828696
1728065405095507200,0.738507080078125,-0.525227963924408,-0.17426332831382751,1.1089807748794556,-0.01827532984316349,0.03496013209223747,-0.9992216229438782,0.14531996846199036,0.06706023216247559,-0.11907976865768433,0.999033359782376,-0.017110870566054176,-0.009819328404156443,0.039283309004454425
1728065405105537300,0.748537353515625,-0.1448502093553543,-0.12736068665981293,0.902953028678894,-0.01942783035337925,0.03843928128480911,-0.9990720748901367,0.09279205650091171,0.11274490505456924,-0.10888385772705078,0.9987830680523886,-0.01877398801018317,-0.010559706616272311,0.04436677272469228
1728065405115568000,0.758568115234375,0.041688237339258194,-0.07415047287940979,0.7527965307235718,-0.02009532041847706,0.038985028862953186,-0.9990376830101013,0.07026618719100952,0.05996832251548767,-0.1075143814086914,0.9985839761891651,-0.018987071161193088,-0.010983450730893202,0.04846656086708825
1728065405125598200,0.76859814453125,-0.004125390667468309,-0.038007382303476334,0.7817080616950989,-0.020340651273727417,0.03884312883019447,-0.9990382790565491,0.09565800428390503,0.00046361610293388367,-0.04850810766220093,0.998392240614933,-0.018867813985936663,-0.011174503354256432,0.05226951286020254
1728065405135629000,0.778629150390625,-0.15615060925483704,-0.0901680514216423,0.88726407289505,-0.020607268437743187,0.03980109468102455,-0.9989951252937317,0.14038872718811035,-0.042486533522605896,0.01182776689529419,0.9981538056621309,-0.019291867315812856,-0.011413717344308455,0.0564492554179834
1728065405145660200,0.78866015625,-0.30384400486946106,-0.11397085338830948,0.9490001201629639,-0.021292908117175102,0.04231768101453781,-0.9988772869110107,0.15480728447437286,-0.07382697612047195,0.05518221855163574,0.9978517220023679,-0.02047460569301802,-0.011922631233305172,0.06107877594088067
1728065405155690200,0.798690185546875,-0.432807058095932,-0.1125846803188324,0.9300664067268372,-0.021999217569828033,0.046272359788417816,-0.9986866116523743,0.13463957607746124,-0.08786771446466446,0.04832345247268677,0.9975045414375697,-0.022369499939253586,-0.012502438290465817,0.06578737188624023
1728065405165721000,0.80872119140625,-0.4781976044178009,-0.09231264144182205,0.8902379870414734,-0.022606026381254196,0.05112055689096451,-0.9984366297721863,0.0886765569448471,-0.08285873383283615,0.03102940320968628,0.997131714321064,-0.024711308109585082,-0.013078541457462593,0.07033277563243015
1728065405175752200,0.818752197265625,-0.4925275444984436,-0.009772758930921555,0.8610132932662964,-0.02267543040215969,0.05617640167474747,-0.9981633424758911,0.05909813195466995,-0.06856643408536911,0.0026341676712036133,0.9967471754572489,-0.027175117841879478,-0.013410710339576023,0.0746776086114898
1728065405185782300,0.8287822265625,-0.45339858531951904,0.04559691622853279,0.8947829604148865,-0.021957216784358025,0.061152610927820206,-0.9978868961334229,0.043411049991846085,-0.01925186812877655,-0.03778815269470215,0.9963435047282395,-0.029628345085376626,-0.013368533835845986,0.07901365051914522
1728065405195813000,0.838813232421875,-0.4156096577644348,0.0924333930015564,0.9471742510795593,-0.020689021795988083,0.06563728302717209,-0.9976290464401245,0.03921317309141159,0.02586977183818817,-0.022634565830230713,0.9959054981132902,-0.03185737666830529,-0.0130608288578871,0.08358631715462025
1728065405205844200,0.84884423828125,-0.36558836698532104,0.09355448186397552,0.9818739295005798,-0.01904914528131485,0.06980355083942413,-0.9973788857460022,0.04096074402332306,0.048894673585891724,-0.026333272457122803,0.9954285974623923,-0.03394490220629183,-0.012582229569295795,0.0883826025626361
1728065405215874300,0.858874267578125,-0.26219886541366577,0.11215373128652573,0.94928377866745,-0.0173560231924057,0.07312207669019699,-0.997171938419342,0.02907475456595421,0.06727414578199387,-0.031361937522888184,0.9949393488135604,-0.03561780306344382,-0.012057735637796878,0.09317542090130308
1728065405225905200,0.8689052734375,-0.14694757759571075,0.13448812067508698,0.9295633435249329,-0.015428120270371437,0.07533786445856094,-0.997038722038269,0.0036177989095449448,0.07059729844331741,-0.05851852893829346,0.9944613327187014,-0.03676023729385926,-0.01137243723643937,0.09780647241643162
1728065405235936300,0.878936279296875,-0.06583063304424286,0.1991366147994995,0.9460442662239075,-0.013072372414171696,0.07649900019168854,-0.9969839453697205,-0.03795303404331207,0.06324109435081482,-0.02976471185684204,0.9939813806783326,-0.03740615798064232,-0.010430695711093374,0.10243584012990302
1728065405245966000,0.888966064453125,-0.053091734647750854,0.2790161073207855,0.9623116850852966,-0.00988841149955988,0.07718445360660553,-0.9969677925109863,-0.07260061800479889,0.04705271124839783,-0.0072740912437438965,0.9934808644481559,-0.03786830029920582,-0.009060639478954607,0.10714413862323542
1728065405255997200,0.8989970703125,-0.06768160313367844,0.3303237557411194,0.9519423842430115,-0.006083071697503328,0.07783128321170807,-0.9969480037689209,-0.10577912628650665,0.029300786554813385,0.0299832820892334,0.9929556139894459,-0.03835980953670254,-0.007384565070485568,0.11186211411257388
1728065405266028300,0.9090283203125,-0.14823229610919952,0.35623058676719666,0.9178592562675476,-0.001878980896435678,0.07893671840429306,-0.9968778491020203,-0.11814666539430618,0.006131134927272797,0.06610697507858276,0.992409731252152,-0.03912044785399872,-0.0055372974792218775,0.11645514551483645
1728065405276058000,0.91905810546875,-0.21012495458126068,0.3122676610946655,0.8785435557365417,0.0021905694156885147,0.08076667785644531,-0.996730625629425,-0.11138247698545456,0.00041018426418304443,0.08308017253875732,0.9918473430114245,-0.04025226618535195,-0.0038001077067632656,0.1208481383834381
1728065405286089200,0.929089111328125,-0.259452760219574,0.2621963322162628,0.8294795751571655,0.005763406399637461,0.0831226333975792,-0.9965226650238037,-0.09833849221467972,0.007484167814254761,0.07415938377380371,0.9912756191170178,-0.04163141948821382,-0.0023441636273288493,0.12503574180575225
1728065405296120000,0.9391201171875,-0.29873865842819214,0.2634885013103485,0.7935929894447327,0.009023943915963173,0.08586202561855316,-0.9962661862373352,-0.10457449406385422,0.023543603718280792,0.049595654010772705,0.9907028547242696,-0.04319456292877432,-0.0010700429769870214,0.12899925693115047
1728065405306150100,0.949150146484375,-0.29945775866508484,0.3011888861656189,0.7907724380493164,0.012523230165243149,0.08879077434539795,-0.9959715604782104,-0.13372381031513214,0.05200216919183731,0.009796082973480225,0.9901179750415782,-0.044878994109686494,0.00030190261407025016,0.1328616193470251
1728065405316181200,0.95918115234375,-0.2879513204097748,0.35834166407585144,0.7934880256652832,0.016550567001104355,0.09162896126508713,-0.9956556558609009,-0.16660550236701965,0.07312029600143433,-0.012355208396911621,0.9895135187945353,-0.04656655080487629,0.0019292059193330745,0.13671418916707423
1728065405326212000,0.969212158203125,-0.22097627818584442,0.37640416622161865,0.7975211143493652,0.020983165130019188,0.09410550445318222,-0.9953410625457764,-0.19473500549793243,0.09321149438619614,-0.013524234294891357,0.9888905715761896,-0.048117137698833176,0.0037686031210220805,0.14059121585427092
1728065405336242200,0.9792421875,-0.07394102215766907,0.3886062502861023,0.7713600993156433,0.0255422443151474,0.09541286528110504,-0.995110034942627,-0.2052450180053711,0.10604903846979141,-0.010856151580810547,0.9882837582190013,-0.04911166825317399,0.005746903936979951,0.14439645439932242
1728065405346273300,0.989273193359375,0.07143168896436691,0.42695048451423645,0.7337144613265991,0.03031352162361145,0.09518587589263916,-0.9949978590011597,-0.20940592885017395,0.1126236841082573,-0.024823307991027832,0.9877178859275618,-0.049375515068426676,0.00794536768103225,0.1480284058223151
1728065405356304100,0.99930419921875,0.16500318050384521,0.4845450818538666,0.6842113733291626,0.035556647926568985,0.09374572336673737,-0.9949610233306885,-0.21088014543056488,0.11247691512107849,-0.013736426830291748,0.9871940263554643,-0.04908830840532726,0.010479470480448413,0.1514220797891623
1728065405366334200,1.009334228515625,0.22742335498332977,0.496321439743042,0.6753861904144287,0.04111754894256592,0.09154095500707626,-0.9949520826339722,-0.20675170421600342,0.10786101222038269,0.006747126579284668,0.9866908419179827,-0.04846308360429587,0.01324007054585664,0.15465212482479337
1728065405376365300,1.019365234375,0.24692301452159882,0.48044553399086,0.6583592295646667,0.046601857990026474,0.08883090317249298,-0.9949559569358826,-0.18646392226219177,0.08545509725809097,0.04353994131088257,0.9861879581212022,-0.04759968914678164,0.016009243890215765,0.15783309092897962
1728065405386396200,1.029396240234375,0.12164798378944397,0.4905160665512085,0.5850117802619934,0.052000321447849274,0.08659230917692184,-0.9948858022689819,-0.17030172049999237,0.03811788558959961,0.060880064964294434,0.9856939716457558,-0.0469771964325729,0.018714886760342712,0.16078033811315257
1728065405396426200,1.03942626953125,-0.0452192984521389,0.46848824620246887,0.4989967346191406,0.057275425642728806,0.08592703193426132,-0.9946537613868713,-0.1746918112039566,0.006846517324447632,0.06493574380874634,0.985214467857485,-0.047131890938853026,0.021253544720945962,0.16333766827374957
1728065405406457000,1.04945703125,-0.18068650364875793,0.4127306044101715,0.4458962380886078,0.06208338961005211,0.08679947257041931,-0.9942894577980042,-0.1696883738040924,-0.006095625460147858,0.07984548807144165,0.9847497179185903,-0.04801448168405525,0.023449648472601295,0.1655679750072529
1728065405416488200,1.05948828125,-0.28002774715423584,0.3944924771785736,0.4058942496776581,0.06644437462091446,0.08885535597801208,-0.9938258528709412,-0.15702055394649506,-0.005343891680240631,0.08438682556152344,0.9842862648091645,-0.04945062500270614,0.02533175048984598,0.16761153370790838
1728065405426518300,1.069518310546875,-0.30114656686782837,0.3899920582771301,0.3654509484767914,0.07072585821151733,0.09157951176166534,-0.9932829737663269,-0.15475600957870483,0.00661090761423111,0.0688750147819519,0.9838340583189029,-0.051213642253395766,0.027123435903860092,0.16944644547771595
1728065405436549000,1.079549072265625,-0.23080766201019287,0.40265753865242004,0.3385125398635864,0.07498020678758621,0.09400122612714767,-0.9927445650100708,-0.17108005285263062,0.02446812391281128,0.0727158784866333,0.983406729513868,-0.052827832456326156,0.028930011956307174,0.17112446093554418
1728065405446579200,1.0895791015625,-0.20251737534999847,0.4670025706291199,0.3023800849914551,0.07957248389720917,0.09592965245246887,-0.9922024607658386,-0.18020421266555786,0.03375490754842758,0.06388825178146362,0.9830088231102139,-0.05422886174056404,0.030951576593481384,0.17261233893483235
1728065405456610300,1.0996103515625,-0.12245183438062668,0.5027413964271545,0.28126949071884155,0.08469603210687637,0.09733662009239197,-0.9916411638259888,-0.19370481371879578,0.04270865023136139,0.06039726734161377,0.9826305060696149,-0.05542094427251945,0.03328580984576099,0.1739479957353789
1728065405466641200,1.10964111328125,-0.13285847008228302,0.5268355011940002,0.24067147076129913,0.09005127847194672,0.098334401845932,-0.9910706877708435,-0.18551026284694672,0.03611090034246445,0.058728158473968506,0.9822811246132305,-0.05643185011789442,0.035778488917273345,0.17509799507107207
1728065405476671200,1.119671142578125,-0.13929852843284607,0.5571997761726379,0.24223820865154266,0.09568151831626892,0.0994984358549118,-0.9904267191886902,-0.17730078101158142,0.03120846301317215,0.06592720746994019,0.9819283379719707,-0.05755297156362802,0.03839649386387261,0.17615342811593074
1728065405486702000,1.1297021484375,-0.1710747629404068,0.582571804523468,0.24257509410381317,0.10157715529203415,0.10077579319477081,-0.9897102117538452,-0.15470826625823975,0.022591620683670044,0.06820148229598999,0.9815537072847266,-0.05876156991467318,0.041133532128915073,0.17722138036629342
1728065405496733200,1.139733154296875,-0.2533150613307953,0.581226110458374,0.18981894850730896,0.10761317610740662,0.10263093560934067,-0.9888813495635986,-0.12474879622459412,-0.008667200803756714,0.05475354194641113,0.9811702818613832,-0.06027116035047567,0.043894405571369755,0.1781731371524464
1728065405506763300,1.14976318359375,-0.3406638503074646,0.5131832957267761,0.12224362045526505,0.1132068932056427,0.10545545816421509,-0.9879592061042786,-0.1098194345831871,-0.030687279999256134,0.06919699907302856,0.9808159426740626,-0.062213068142008006,0.04636746875824439,0.17882886317061109
1728065405516794000,1.159794189453125,-0.3533940315246582,0.4426678419113159,0.06042526662349701,0.11796262860298157,0.10881568491458893,-0.9870379567146301,-0.09074094146490097,-0.027303121984004974,0.0839313268661499,0.9805127328710926,-0.0643341606262388,0.048395539130107294,0.17920293147600938
1728065405526825200,1.1698251953125,-0.3132539987564087,0.41045525670051575,0.025367146357893944,0.12220383435487747,0.11213646829128265,-0.9861499071121216,-0.06592942774295807,0.003860950469970703,0.04021185636520386,0.9802591963728854,-0.06637977898299553,0.05018737775040007,0.17935098216848225
1728065405536855300,1.179855224609375,-0.19480672478675842,0.4374924600124359,0.01066516526043415,0.12639230489730835,0.11469068378210068,-0.9853278994560242,-0.06457895040512085,0.055582255125045776,0.00191420316696167,0.9800476822984998,-0.0680352368853452,0.05203138871981661,0.1793616394606778
1728065405546886100,1.18988623046875,-0.060473885387182236,0.487976610660553,0.007303190883249044,0.1309456080198288,0.11592590808868408,-0.9845884442329407,-0.07027667760848999,0.10200022161006927,-0.02801525592803955,0.9798777454010834,-0.06906542258243481,0.054182445393771796,0.179259449619709
1728065405556917200,1.199917236328125,0.008740873076021671,0.5431618690490723,0.07277700304985046,0.13605698943138123,0.11608841270208359,-0.9838759899139404,-0.08121690154075623,0.12945613265037537,-0.02277684211730957,0.9796959927287707,-0.06962168809438225,0.056699401797283215,0.17925904911962176
1728065405566947300,1.209947265625,0.034133315086364746,0.598207414150238,0.11710372567176819,0.14184345304965973,0.1157192662358284,-0.9831019639968872,-0.08784259855747223,0.10768477618694305,-0.006384730339050293,0.9794461734564331,-0.06999538741374449,0.05957902388776363,0.17954440715925893
1728065405576978200,1.219978271484375,-0.0731060579419136,0.5826969146728516,0.02413410134613514,0.14770014584064484,0.11569632589817047,-0.9822418093681335,-0.08939631283283234,0.024471022188663483,-0.01028132438659668,0.9791941783366299,-0.07054334939888987,0.062471733272882086,0.17972087895230715
1728065405587009300,1.23000927734375,-0.2398594170808792,0.5467570424079895,-0.03272625058889389,0.1533605009317398,0.11726652085781097,-0.9811875820159912,-0.10186207294464111,-0.03532671183347702,0.012376606464385986,0.9789672360603809,-0.07183915758074566,0.0651562162537587,0.17949049516738175
1728065405597039000,1.2400390625,-0.38671624660491943,0.5172745585441589,-0.04916248470544815,0.1584198921918869,0.12040925025939941,-0.9800024032592773,-0.0827210396528244,-0.03418172150850296,0.04050356149673462,0.978707238330361,-0.07386023345623133,0.06740514229250104,0.17925813403693033
1728065405607070200,1.2500703125,-0.7866952419281006,0.458961546421051,-0.2402232438325882,0.1631542444229126,0.12630169093608856,-0.9784827828407288,-0.007804512977600098,-0.06255035102367401,-0.04881519079208374,0.97844944950682,-0.07718544578334097,0.06928932558210125,0.17854427672024797
1728065405617101300,1.260101318359375,-1.0107927322387695,0.28270527720451355,-0.3311385214328766,0.1665063351392746,0.13585777580738068,-0.9766362309455872,-0.0030999481678009033,-0.056161001324653625,-0.08146923780441284,0.9782052894332822,-0.0821684070544673,0.07021568654191247,0.17729208353439155
1728065405627131100,1.270131103515625,-0.9922269582748413,0.18118610978126526,-0.39748451113700867,0.16806089878082275,0.14631474018096924,-0.9748576879501343,0.04563842713832855,-0.0028209835290908813,-0.09554630517959595,0.9780271076576209,-0.08741807129588511,0.07020849231649913,0.1757604615865825
1728065405637162200,1.280162353515625,-0.8918401598930359,0.2565458416938782,-0.339326947927475,0.16957609355449677,0.1562456637620926,-0.9730525612831116,0.08809907734394073,0.06724993884563446,-0.20758098363876343,0.9778557930725696,-0.09240277833134974,0.07025279844626052,0.17413913739899287
1728065405647193000,1.290193115234375,-0.7318307161331177,0.33148491382598877,-0.22213105857372284,0.17204521596431732,0.16460034251213074,-0.9712400436401367,0.07696296274662018,0.1271935999393463,-0.20705890655517578,0.9776077871356166,-0.09672362537777174,0.0708839330002102,0.17292489095416538
1728065405657223200,1.30022314453125,-0.6785269975662231,0.34093141555786133,-0.20764532685279846,0.17499110102653503,0.17179958522319794,-0.9694653153419495,0.07123997807502747,0.08201521635055542,-0.13745296001434326,0.9773173580423924,-0.10053537809476534,0.07183295423878565,0.17199872011231648
1728065405667254300,1.310254150390625,-0.731660783290863,0.4007919132709503,-0.2653624415397644,0.17810146510601044,0.17902256548404694,-0.9675902128219604,0.03242404758930206,-0.005438476800918579,-0.03286755084991455,0.9770320877215473,-0.10436452293159039,0.072889947155758,0.17089056027220864
1728065405677285000,1.32028515625,-0.7951608896255493,0.4960761070251465,-0.2327868938446045,0.1820044070482254,0.1869385540485382,-0.965364396572113,-0.004941418766975403,-0.06526488065719604,0.05026429891586304,0.976670845918478,-0.10861222940094091,0.07430476163706556,0.16969461008631273
1728065405687315200,1.330315185546875,-0.8347977995872498,0.5170716643333435,-0.17088331282138824,0.18653349578380585,0.19518674910068512,-0.9628641605377197,0.014180600643157959,-0.08115771412849426,0.094837486743927,0.9761975357349781,-0.11310765973654642,0.0759906378497221,0.16873193540566517
1728065405697346300,1.34034619140625,-0.8709531426429749,0.5532975792884827,-0.1286676973104477,0.1913643181324005,0.20374420285224915,-0.9601395726203918,0.05247113108634949,-0.07584492862224579,0.10161906480789185,0.9756213875405141,-0.11781375071356784,0.07778259767613449,0.1680261846709677
1728065405707377200,1.350377197265625,-0.8381718397140503,0.6218746304512024,-0.10060357302427292,0.19676564633846283,0.21223844587802887,-0.9572032690048218,0.06660105288028717,-0.06468583643436432,0.10721248388290405,0.9749668318505583,-0.12256006723361172,0.07985852995326313,0.1674558846647439
1728065405717407200,1.3604072265625,-0.8183832168579102,0.6824317574501038,-0.12030696868896484,0.20275035500526428,0.22036072611808777,-0.9541139602661133,0.06937487423419952,-0.06472097337245941,0.08883386850357056,0.9742765713318775,-0.12717948418835337,0.08227026295566939,0.16686014423527745
1728065405727438300,1.370438232421875,-0.8350013494491577,0.701357364654541,-0.1477644145488739,0.20911705493927002,0.22854556143283844,-0.950808584690094,0.06782995164394379,-0.05070427060127258,0.06283867359161377,0.9735622562816809,-0.13185939996910978,0.08490464046993469,0.16607520548675048
1728065405737469200,1.38046923828125,-0.8356887102127075,0.7060580849647522,-0.12099406123161316,0.21549391746520996,0.236808180809021,-0.9473564624786377,0.061025843024253845,-0.02179647982120514,0.06324702501296997,0.9728057278708698,-0.1365911098707963,0.08754790988190914,0.1653097905767747
1728065405747499300,1.390499267578125,-0.8111525774002075,0.7311980724334717,-0.13829287886619568,0.22198626399040222,0.24491643905639648,-0.9437891840934753,0.06919720768928528,-0.006986021995544434,0.026400327682495117,0.972016982912971,-0.14126605939260667,0.0902734818941742,0.1645531714164459
1728065405757530400,1.4005302734375,-0.7745804190635681,0.7328630685806274,-0.1663285195827484,0.22855141758918762,0.25280195474624634,-0.9401358366012573,0.043482258915901184,0.002752333879470825,-0.0027962327003479004,0.971231012912631,-0.14582971012991208,0.09309010501950851,0.16364096707575004
1728065405767560200,1.410560302734375,-0.781217634677887,0.7527509927749634,-0.1322363317012787,0.2350924164056778,0.2604573667049408,-0.9364259243011475,0.0013730227947235107,0.01731368899345398,0.029809772968292236,0.9704346051672549,-0.15027953307817107,0.09593280009681894,0.1626948134428144
1728065405777591300,1.42059130859375,-0.6796941757202148,0.8273480534553528,-0.06804455816745758,0.24233794212341309,0.26752081513404846,-0.9325796961784363,-0.01222015917301178,0.0359613299369812,0.012810468673706055,0.9695607525986768,-0.1545265220651431,0.09915489752363006,0.16199340420381067
1728065405787622400,1.430622314453125,-0.7185599207878113,0.8033909797668457,-0.10301932692527771,0.2497268170118332,0.27419134974479675,-0.9286848902702332,-0.004411265254020691,0.0011993944644927979,-0.06534886360168457,0.9686698445703507,-0.15859748250956604,0.10249093527997816,0.16131106463063782
1728065405797652200,1.44065234375,-0.7660562992095947,0.7903553247451782,-0.16541825234889984,0.25674688816070557,0.28145912289619446,-0.9245873689651489,-0.028765320777893066,-0.03972926735877991,-0.0607946515083313,0.9677636810745242,-0.16292703665346173,0.10564608099969901,0.1603969969657952
1728065405807683300,1.450683349609375,-0.831653892993927,0.8194983005523682,-0.18847030401229858,0.263668030500412,0.28930196166038513,-0.9202084541320801,-0.04798504710197449,-0.04404735565185547,-0.03857755661010742,0.9668170135519053,-0.16753300418938163,0.10875881365419661,0.15927695231054523
1728065405817714400,1.46071435546875,-0.8760218620300293,0.7900365591049194,-0.0747876837849617,0.2707464396953583,0.2976161539554596,-0.9154894948005676,-0.051859110593795776,-0.028939276933670044,-0.024116158485412598,0.9657460235488818,-0.17243549516548917,0.11189840201771668,0.15836521331151515
1728065405827744300,1.470744140625,-0.8157132863998413,0.8011842370033264,-0.1410103738307953,0.27769508957862854,0.3053426742553711,-0.9108519554138184,-0.04484596848487854,-0.03692519664764404,0.0031066536903381348,0.9646425398772636,-0.17707177700917745,0.1149765427812748,0.1577680911323582
1728065405837775000,1.480775146484375,-0.9182564616203308,0.8307956457138062,-0.3057769536972046,0.2841785252094269,0.3141011595726013,-0.9058603644371033,-0.07072332501411438,-0.07655224204063416,-0.014732837677001953,0.9635455194697676,-0.1821440338405258,0.11787008622013181,0.15655779923879323
1728065405847806500,1.490806396484375,-0.8813787698745728,0.7720627188682556,-0.3062952160835266,0.2905347943305969,0.3232128918170929,-0.900623619556427,-0.12546521425247192,-0.011246860027313232,-0.03528940677642822,0.9624627192194616,-0.1873429769376993,0.12079234376453074,0.1548457510165544
1728065405857836300,1.500836181640625,-0.8706984519958496,0.7663022875785828,-0.3596212863922119,0.2963133156299591,0.3320333659648895,-0.895517885684967,-0.061160117387771606,0.056348711252212524,-0.07875573635101318,0.961411557615309,-0.1923449261437808,0.1234685705943941,0.15312361349583684
1728065405867867100,1.5108671875,-0.8400766849517822,0.7207836508750916,-0.22775939106941223,0.301804780960083,0.34096023440361023,-0.8903145790100098,-0.016099214553833008,0.15502682328224182,-0.10832738876342773,0.9603283253288438,-0.19739145139259942,0.12601320485092765,0.15141659207771416
1728065405877898200,1.520898193359375,-0.5356475114822388,0.8587803840637207,-0.07896192371845245,0.30842527747154236,0.34720268845558167,-0.8856207728385925,-0.02798399329185486,0.190379798412323,-0.09980708360671997,0.959270119229659,-0.201227705612614,0.12921700089493446,0.1503701159487909
1728065405887928300,1.53092822265625,-0.5396409630775452,0.9693577885627747,-0.18943622708320618,0.315959095954895,0.35222646594047546,-0.8809689879417419,-0.022578388452529907,0.05031576752662659,-0.13175678253173828,0.9582329907850844,-0.20450647661929855,0.13301355724534847,0.14924503441834977
1728065405897959200,1.540959228515625,-0.7356874346733093,0.9425684809684753,-0.2743820250034332,0.32350942492485046,0.35855832695961,-0.8756583333015442,-0.10683465003967285,-0.06316334009170532,-0.021848320960998535,0.9571184357767599,-0.20840543033539832,0.13688680557363692,0.14749054921133814
1728065405907990300,1.550990234375,-0.8152281641960144,0.9717443585395813,-0.24502146244049072,0.3309093415737152,0.36627164483070374,-0.8696804642677307,-0.10929068922996521,-0.11819413304328918,0.127813458442688,0.9558141999535772,-0.21305051785633403,0.1406031171046663,0.14580679865278703
1728065405918020400,1.561020263671875,-0.9132644534111023,0.9826180934906006,-0.2656812071800232,0.33851882815361023,0.37469616532325745,-0.8631383180618286,0.005475282669067383,-0.1136792004108429,0.11380976438522339,0.9543542927858819,-0.21812001587980825,0.14441087635272276,0.14414211300130325
1728065405928051200,1.57105126953125,-0.8133229613304138,0.9614214301109314,-0.20550388097763062,0.3459532856941223,0.38314250111579895,-0.8564567565917969,0.059060752391815186,-0.0366610586643219,0.09392935037612915,0.9528399019262019,-0.22321771639942706,0.14814003197954131,0.14256443436211083
1728065405938082300,1.581082275390625,-0.6843721866607666,1.0684878826141357,-0.2536998987197876,0.35384640097618103,0.3901625871658325,-0.8500387668609619,0.10042300820350647,0.000035256147384643555,0.02420264482498169,0.9513998148101711,-0.2275973694459093,0.15224994694081112,0.14091826239441113
1728065405948112100,1.591112060546875,-0.7249253392219543,1.0322237014770508,-0.3537338376045227,0.36156076192855835,0.3972780406475067,-0.8434714078903198,0.08216479420661926,-0.004181027412414551,-0.0447273850440979,0.9499921289873172,-0.23194092323517945,0.1564215702029297,0.1387470648019939
1728065405958143200,1.601143310546875,-0.6095052361488342,1.0386453866958618,-0.276374876499176,0.3688260316848755,0.40408065915107727,-0.8370699882507324,0.005624622106552124,0.03229030966758728,0.0409579873085022,0.9486217092080882,-0.23607755467674463,0.16041315866428574,0.13657214037048201
1728065405968174300,1.61117431640625,-0.6325072646141052,1.1174981594085693,-0.2281665802001953,0.3768889307975769,0.41017383337020874,-0.8304890990257263,-0.006878584623336792,0.012189537286758423,-0.015809059143066406,0.947173808050193,-0.23994682587620111,0.1648664915276072,0.1345600058796188
1728065405978204200,1.6212041015625,-0.5708156824111938,1.0940983295440674,-0.23841442167758942,0.38512495160102844,0.4160057604312897,-0.823782742023468,-0.07157212495803833,-0.022389888763427734,-0.011071324348449707,0.9456739610732694,-0.24371705368710522,0.16944213138217343,0.13263524140010044
1728065405988235300,1.6312353515625,-0.6670840382575989,1.1014679670333862,-0.33349061012268066,0.39293673634529114,0.4221242070198059,-0.8169528245925903,-0.09987643361091614,-0.07573431730270386,0.027035892009735107,0.9441687711738554,-0.24756949033892545,0.17387618360966475,0.13046802268804258
1728065405998266000,1.64126611328125,-0.7140446305274963,1.0556762218475342,-0.372132807970047,0.40027040243148804,0.42934972047805786,-0.8095939755439758,-0.09791752696037292,-0.07049340009689331,-0.009680867195129395,0.9425557053219745,-0.2519479008613472,0.17811585084974224,0.12800700682250732
1728065406008296200,1.651296142578125,-0.6541725397109985,0.9921210408210754,-0.37260499596595764,0.40691500902175903,0.43630844354629517,-0.8025304675102234,-0.03720980882644653,0.008439600467681885,-0.08437132835388184,0.941009651388531,-0.25611995944206434,0.18203660668247587,0.12556341546941138
1728065406018327300,1.661327392578125,-0.7699148654937744,0.9481727480888367,-0.33618468046188354,0.4130762815475464,0.4435545802116394,-0.7953787446022034,0.035486310720443726,0.09212058782577515,-0.12715232372283936,0.9394125729376114,-0.2604448822918309,0.1856854666816755,0.12326172542500795
1728065406028358100,1.671358154296875,-0.6441178321838379,0.9889973998069763,-0.13064482808113098,0.41969412565231323,0.45038604736328125,-0.7880414128303528,0.005980312824249268,0.1608659029006958,-0.05390799045562744,0.9376800893213163,-0.2647230882578716,0.1894755662343356,0.12155944432385171
1728065406038388200,1.68138818359375,-0.5465928912162781,1.038330078125,-0.1404348611831665,0.4271821975708008,0.45534271001815796,-0.7811391949653625,-0.02193927764892578,0.07224529981613159,-0.02319735288619995,0.9360115788279586,-0.2681206465695349,0.19375689698156898,0.12021601176286552
1728065406048419300,1.69141943359375,-0.7892891764640808,1.0549458265304565,-0.27298998832702637,0.4343707859516144,0.4615271985530853,-0.7735080122947693,-0.08282357454299927,-0.12407895922660828,0.05488014221191406,0.9341965186022031,-0.2721212539282434,0.19797982395865246,0.11845210430469894
1728065406058450200,1.7014501953125,-0.6977543830871582,1.0749574899673462,-0.18380151689052582,0.4414975345134735,0.4685481786727905,-0.7652074694633484,-0.1171414852142334,-0.14979201555252075,0.16453009843826294,0.9322025755527812,-0.2766092354484889,0.20219690710891222,0.11662765498292624
1728065406068480300,1.711480224609375,-0.6365697979927063,1.00351881980896,-0.15828843414783478,0.44862672686576843,0.4741198420524597,-0.757591187953949,0.03657224774360657,-0.06568771600723267,0.06195831298828125,0.9303512339870826,-0.2803402160611979,0.20643100129466493,0.1150745321105119
1728065406078511400,1.721511474609375,-0.6410601735115051,0.9238710403442383,-0.10890517383813858,0.4552709460258484,0.479763925075531,-0.7500366568565369,0.1405389904975891,0.056857287883758545,-0.01212453842163086,0.9284846477531832,-0.2841263636560655,0.21036608206430923,0.11373035924606274
1728065406088542200,1.731542236328125,-0.5657386183738708,0.9254143238067627,-0.0001901458017528057,0.4618997573852539,0.4844609200954437,-0.7429308891296387,0.1168965995311737,0.17398640513420105,-0.05827754735946655,0.9266858995211472,-0.28746687583531266,0.21423669915572605,0.11277732313887008
1728065406098572300,1.741572265625,-0.6481235027313232,0.8891124725341797,0.09442956745624542,0.46884992718696594,0.48872488737106323,-0.7357497811317444,0.05986711382865906,0.16671651601791382,-0.16737210750579834,0.9247982545606073,-0.2907380304182837,0.2181662096963236,0.11235280879174173
1728065406108603100,1.75160302734375,-0.6320012807846069,0.9261685013771057,0.1756618469953537,0.4761701226234436,0.49281615018844604,-0.7282817363739014,-0.055805742740631104,0.128384530544281,-0.10498541593551636,0.9227735072006837,-0.2940904001506907,0.22219354648935127,0.11238292957834985
1728065406118634200,1.76163427734375,-0.6254480481147766,0.9872555732727051,0.1959894895553589,0.48403796553611755,0.4964783191680908,-0.7205668091773987,-0.13424551486968994,0.07206425070762634,-0.07826119661331177,0.9206630926501053,-0.29731943024223684,0.22653418526119637,0.11252986614911309
1728065406128664300,1.771664306640625,-0.5348908305168152,1.0140855312347412,0.2521163821220398,0.49237746000289917,0.49965378642082214,-0.7126784920692444,-0.14601820707321167,0.03022301197052002,-0.03697049617767334,0.9184925206334996,-0.3003716796973701,0.23116576612174589,0.1127426508422579
1728065406138695200,1.781695068359375,-0.43662503361701965,0.9763638973236084,0.18499329686164856,0.5005915760993958,0.5018869638442993,-0.705349326133728,-0.05920058488845825,0.005223751068115234,-0.021533548831939697,0.9164867192600394,-0.3028389622496781,0.23582599869035273,0.11281369141058682
1728065406148725200,1.791725341796875,-0.40261465311050415,0.9334209561347961,0.22394602000713348,0.5082716345787048,0.5039330124855042,-0.6983634233474731,0.029905855655670166,0.0027351975440979004,-0.04951554536819458,0.9145885049240585,-0.3051126936973342,0.24025930909604806,0.1127367613659719
1728065406158756400,1.80175634765625,-0.29739129543304443,0.897641122341156,0.33635589480400085,0.5160844326019287,0.5048865079879761,-0.6919150948524475,0.08169388771057129,0.04684090614318848,-0.008600592613220215,0.9127846828100108,-0.30687070469463307,0.244689227309576,0.11305621517558789
1728065406168787200,1.811787109375,-0.3061833083629608,0.8628549575805664,0.31669723987579346,0.5238340497016907,0.5051711201667786,-0.6858571171760559,0.11660778522491455,0.02478194236755371,-0.005533754825592041,0.9110589108039686,-0.30829259311483176,0.24905242709432843,0.11357909309267981
1728065406178817300,1.8218173828125,-0.29834696650505066,0.8618288636207581,0.3284290134906769,0.5313191413879395,0.5056630373001099,-0.6797093749046326,0.03955787420272827,-0.027879714965820312,0.058630943298339844,0.9093075280387247,-0.3098253939857647,0.2532854889421344,0.11408097717894261
1728065406188848400,1.831848388671875,-0.1521032601594925,0.8913041353225708,0.36984196305274963,0.5390284061431885,0.505315899848938,-0.6738725304603577,-0.030773401260375977,-0.07457542419433594,0.09293997287750244,0.9076350774053542,-0.31090715777470634,0.2576828754898135,0.11460713535351319
1728065406198879200,1.841879150390625,-0.042918723076581955,0.8609086871147156,0.29501911997795105,0.5467190742492676,0.5040807127952576,-0.6685812473297119,-0.029171466827392578,-0.12329751253128052,0.017320990562438965,0.9061395859893849,-0.31139312052190643,0.26219017632229796,0.11489860464132534
1728065406208909300,1.851909423828125,-0.027782050892710686,0.796975314617157,0.11119496822357178,0.5532224178314209,0.5031743049621582,-0.6638979911804199,-0.015304386615753174,-0.09265178442001343,-0.05506551265716553,0.904889421783543,-0.3117345304760939,0.2662190509618178,0.11456030366842504
1728065406218940200,1.861940185546875,-0.1430167704820633,0.7786527872085571,0.1108974888920784,0.558896005153656,0.5032008290290833,-0.6591086387634277,-0.018887460231781006,0.0259130597114563,-0.12882459163665771,0.9036533799610276,-0.3124311235998145,0.2698748956893891,0.11386396551014555
1728065406228971300,1.87197119140625,-0.13197588920593262,0.7912154793739319,0.3075152039527893,0.5651077628135681,0.5030586123466492,-0.6539002060890198,-0.02895963191986084,0.15543460845947266,-0.09532159566879272,0.9022213743915166,-0.313302198941947,0.27366337598784,0.11378445405585054
1728065406239001300,1.88200146484375,-0.0349540114402771,0.8907753825187683,0.35553786158561707,0.5722888112068176,0.5015837550163269,-0.6487674713134766,-0.015663504600524902,0.17897355556488037,-0.028524279594421387,0.900753902053071,-0.31364030657263786,0.2779316850012864,0.11413185281018262
1728065406249032200,1.8920322265625,0.01305046770721674,0.9427863359451294,0.28866374492645264,0.5798651576042175,0.4998343586921692,-0.6433677077293396,-0.05308598279953003,0.08239534497261047,0.032253265380859375,0.8992511184000096,-0.3137891727747042,0.2825818284949732,0.11415485916114274
1728065406259063300,1.902063232421875,0.002204477321356535,0.9758255481719971,0.2632169723510742,0.5873813629150391,0.4981592297554016,-0.6378248333930969,-0.08204084634780884,-0.03700801730155945,0.14043420553207397,0.8977501539101053,-0.3138819732644295,0.28734245614861836,0.11382926057242185
1728065406269093400,1.91209326171875,0.005082622170448303,0.8671970963478088,0.3174346685409546,0.5947583317756653,0.4964996576309204,-0.6322583556175232,-0.012208342552185059,-0.11509084701538086,0.13625621795654297,0.8962204161286842,-0.31402637500639374,0.29199018712113345,0.11365799225489316
1728065406279124200,1.922124267578125,0.04538636654615402,0.7855467200279236,0.31033867597579956,0.6014844179153442,0.49444302916526794,-0.6274891495704651,0.06443965435028076,-0.12003803253173828,0.14441120624542236,0.8948754374903495,-0.31391483974332124,0.2961636572599204,0.11376534038081428
1728065406289155300,1.9321552734375,0.11297200620174408,0.7774214744567871,0.24727477133274078,0.6077575087547302,0.49228331446647644,-0.6231276988983154,0.07406622171401978,-0.07991442084312439,0.02376246452331543,0.8936686442815831,-0.31360469906031624,0.3001470493515084,0.11366773065095079
1728065406299185200,1.94218505859375,0.24879029393196106,0.7457240223884583,0.29881730675697327,0.6138033866882324,0.4895501434803009,-0.6193432807922363,0.022152364253997803,0.016889184713363647,-0.1163591742515564,0.8926444112555877,-0.31283942334743353,0.3040721230338385,0.11339179458707131
1728065406309216300,1.95221630859375,0.3382719159126282,0.7391184568405151,0.34190699458122253,0.6199901700019836,0.4856586456298828,-0.6162369251251221,0.006901919841766357,0.09383976459503174,-0.20045918226242065,0.8917947757093564,-0.3114074055435611,0.30806973221029565,0.11322818509100002
1728065406319247400,1.962247314453125,0.23841507732868195,0.754664957523346,0.28549566864967346,0.6261114478111267,0.48185181617736816,-0.6130279898643494,-0.010159909725189209,0.10751903057098389,-0.20255422592163086,0.8909220334674447,-0.31000779466080486,0.3120595549641813,0.11301325446911405
1728065406329277200,1.972277099609375,0.14204972982406616,0.7647379040718079,0.294464111328125,0.632114827632904,0.47901034355163574,-0.6090812683105469,-0.07223933935165405,0.11863076686859131,-0.06589114665985107,0.8898415502071332,-0.3092092374664144,0.31598892343230106,0.11279527711613845
1728065406339308300,1.982308349609375,0.28508812189102173,0.7524785995483398,0.3956812918186188,0.6383910179138184,0.4755330979824066,-0.6052480340003967,-0.07477712631225586,0.13759565353393555,0.094551682472229,0.8887568464840914,-0.30816195835690846,0.32001902572239127,0.11285108738292345
1728065406349339100,1.992339111328125,0.3752599358558655,0.8300797939300537,0.4130823612213135,0.6450715065002441,0.4708632528781891,-0.601806104183197,-0.023123323917388916,0.09326955676078796,0.1145167350769043,0.8877814623877611,-0.30643809856313786,0.3243341675459435,0.11290340490781385
1728065406359369200,2.002369140625,0.4605604410171509,0.8130941390991211,0.45483675599098206,0.6521039605140686,0.46563443541526794,-0.5982851386070251,-0.016819536685943604,0.03625774383544922,0.08053922653198242,0.8867953953200817,-0.3043990738069501,0.3289356259641593,0.11285634946198764
1728065406369400300,2.012400390625,0.48227718472480774,0.751750648021698,0.47781050205230713,0.658947765827179,0.459655225276947,-0.595403254032135,-0.006466686725616455,-0.03468260169029236,0.14041674137115479,0.8859703095238289,-0.3019116103384276,0.3333883095028536,0.11295271024708145
1728065406379431200,2.02243115234375,0.4484880864620209,0.6341041326522827,0.44602808356285095,0.6652043461799622,0.45388612151145935,-0.5928665399551392,0.028780639171600342,-0.1068706214427948,0.10191500186920166,0.8852258704144745,-0.2995079255759288,0.3374340579105324,0.11317503299627528
1728065406389461200,2.032461181640625,0.5020507574081421,0.5696824193000793,0.4467194378376007,0.6707464456558228,0.4480763077735901,-0.5910388231277466,0.030639052391052246,-0.07830995321273804,0.05450934171676636,0.8846738649054546,-0.29697558212910047,0.34100746600395987,0.1134532004327641
1728065406399492400,2.042492431640625,0.5575286746025085,0.5193595886230469,0.4855736196041107,0.676048219203949,0.44185325503349304,-0.5896818041801453,0.050010740756988525,0.008250653743743896,-0.07224446535110474,0.8842466851128509,-0.2941701280398848,0.3444169416459368,0.11379328385361563
1728065406409523200,2.052523193359375,0.5623756051063538,0.5251458287239075,0.5310066342353821,0.6813687086105347,0.4349919259548187,-0.5886583924293518,0.04513275623321533,0.10526084899902344,-0.15221679210662842,0.8838914213460497,-0.2910431321392435,0.3477997983505001,0.11430299570587497
1728065406419553300,2.06255322265625,0.380276083946228,0.5530930757522583,0.536165177822113,0.6868440508842468,0.42854103446006775,-0.5870245099067688,0.012634038925170898,0.13862824440002441,-0.13352590799331665,0.8833339014038033,-0.28831118122545346,0.35123270954810343,0.11503634466880913
1728065406429584400,2.07258447265625,0.3398430347442627,0.5255990624427795,0.6145345568656921,0.6924902200698853,0.42257124185562134,-0.5847142934799194,-0.053009748458862305,0.14081385731697083,-0.001421511173248291,0.8825312609386897,-0.28609548644026483,0.35467200407559346,0.11617096238133212
1728065406439615200,2.082615234375,0.39025962352752686,0.5526722073554993,0.6493156552314758,0.6982847452163696,0.41597780585289,-0.5825468301773071,-0.0701109766960144,0.09697699546813965,0.12128901481628418,0.8817322514530873,-0.2836409389144441,0.3581541490893386,0.11756519002406222
1728065406449645300,2.092645263671875,0.33745113015174866,0.6183041930198669,0.6329273581504822,0.7043423652648926,0.4093601405620575,-0.5799363255500793,-0.051250994205474854,0.03460967540740967,0.10497605800628662,0.8808140951503391,-0.2812196720293409,0.36186646801204253,0.11888965568726358
1728065406459676200,2.10267626953125,0.29368579387664795,0.6119880080223083,0.702347457408905,0.7106176018714905,0.40283679962158203,-0.5768407583236694,-0.03991752862930298,0.02465355396270752,0.10427606105804443,0.8797339527849096,-0.27899159023401404,0.3657093457403749,0.12036874373561501
1728065406469706200,2.112706298828125,0.18935972452163696,0.596817672252655,0.7917913198471069,0.7170741558074951,0.39605826139450073,-0.573535144329071,0.003903627395629883,0.006697595119476318,0.14090275764465332,0.8785191536823473,-0.27688309507823483,0.36955131054445456,0.12235911308413736
1728065406479737300,2.1227373046875,0.09639649093151093,0.5906990170478821,0.8198338747024536,0.723673403263092,0.3894568085670471,-0.5697545409202576,0.01807159185409546,-0.028525322675704956,0.16901302337646484,0.8770899655504227,-0.27516913768715784,0.3733693531275662,0.1248620980593258
1728065406489768200,2.132768310546875,0.233233243227005,0.5714583396911621,0.7379624843597412,0.7300059199333191,0.3829207122325897,-0.5660946369171143,-0.015284299850463867,-0.02957281470298767,0.15984463691711426,0.8757107665880761,-0.2734057999921173,0.3770967517753302,0.1271929361411101
1728065406499798300,2.14279833984375,0.6051604151725769,0.6182122826576233,0.740676999092102,0.7360630035400391,0.3752390146255493,-0.5633887648582458,-0.04091835021972656,0.039815425872802734,0.043445587158203125,0.8747027219625625,-0.27058380607391663,0.38090685334379737,0.1288002070469477
1728065406509829400,2.152829345703125,0.8451103568077087,0.767113983631134,0.8382871747016907,0.7429081201553345,0.365160197019577,-0.5610218048095703,-0.029712378978729248,0.18339335918426514,-0.10035502910614014,0.8738586622866442,-0.26625170310923374,0.3854855658100765,0.12993030015608356
1728065406519860200,2.162860107421875,0.8293276429176331,0.8082654476165771,0.9584189057350159,0.7505877017974854,0.3539619445800781,-0.5579686760902405,-0.01726555824279785,0.2859460115432739,-0.10114991664886475,0.8727863762648519,-0.26152819805582483,0.39066437088790373,0.13125659463990752
1728065406529890300,2.172890380859375,0.7735768556594849,0.8040171265602112,0.9414647221565247,0.7584918141365051,0.3420339822769165,-0.5547098517417908,-0.009437859058380127,0.27413129806518555,-0.11335039138793945,0.8716279476992936,-0.2565160691132029,0.3960360750209799,0.13273938663535775
1728065406539921400,2.18292138671875,0.39733341336250305,0.717957615852356,0.875095009803772,0.7657429575920105,0.33191826939582825,-0.5508792996406555,0.016422569751739502,0.16037613153457642,-0.2078028917312622,0.8702565823802447,-0.25266623678509675,0.40089913430930346,0.13451094353657309
1728065406549952300,2.1929521484375,0.2789194881916046,0.5644738674163818,0.9905089735984802,0.7722762227058411,0.3230477273464203,-0.5470188856124878,0.0037857890129089355,0.14463427662849426,-0.05870926380157471,0.868741688774878,-0.24985266680892013,0.40504840234993733,0.1371035110836446
1728065406559982300,2.202982421875,0.2149229347705841,0.554821252822876,1.0960772037506104,0.7786264419555664,0.3136026859283447,-0.5435018539428711,0.0688467025756836,0.12083038687705994,-0.1011362075805664,0.8671900990987396,-0.24705382198695497,0.408917453580608,0.14047158018709827
1728065406570013200,2.21301318359375,0.1960286796092987,0.5633487701416016,1.131129503250122,0.7851187586784363,0.3037492334842682,-0.5397452116012573,0.055091142654418945,0.08020776510238647,-0.1203041672706604,0.8654916384266665,-0.24427096454681002,0.4128669214643412,0.1442107839532344
1728065406580044300,2.223044189453125,0.20485705137252808,0.5697504878044128,1.1750863790512085,0.7915874719619751,0.29359170794487,-0.535904049873352,-0.023963630199432373,0.05552947521209717,-0.0354611873626709,0.8637221889567034,-0.24143582432615182,0.4168413417508992,0.14810822230934792
1728065406590074400,2.233074462890625,0.1843734234571457,0.6200830340385437,1.2494471073150635,0.7982655167579651,0.2829428017139435,-0.5317100286483765,-0.05433851480484009,0.03103739023208618,-0.013761162757873535,0.8617961068725452,-0.2385104334725421,0.42101991635179076,0.15219222070944666
1728065406600105200,2.243105224609375,0.26238325238227844,0.609237015247345,1.3386120796203613,0.8051381707191467,0.27140533924102783,-0.5273440480232239,-0.05715233087539673,0.02463051676750183,0.03886449337005615,0.8597412291315463,-0.2353145858828055,0.42538809413532974,0.15657931504306483
1728065406610136300,2.25313623046875,0.32346248626708984,0.6569845676422119,1.3586149215698242,0.8120242953300476,0.25887155532836914,-0.5230699181556702,-0.05128204822540283,0.018167108297348022,0.13395559787750244,0.8576751707440747,-0.23162560684277286,0.4299007119151088,0.1610226533511618
1728065406620166400,2.26316650390625,0.28560084104537964,0.7591434121131897,1.2355890274047852,0.8190703988075256,0.24648623168468475,-0.5180427432060242,-0.06417232751846313,0.017338350415229797,0.12497639656066895,0.8554188910785091,-0.22801186854883412,0.4347289120222646,0.16516625362512918
1728065406630197200,2.273197265625,-0.1411987543106079,0.7623403668403625,1.1642265319824219,0.8258629441261292,0.2365168333053589,-0.5118692517280579,-0.08500295877456665,0.07212281227111816,0.11457622051239014,0.8528146045084186,-0.22586160604216982,0.43937671572505727,0.16923896599302296
1728065406640228400,2.283228271484375,-0.22945085167884827,0.7658413648605347,1.3215614557266235,0.8326845169067383,0.22727487981319427,-0.5049579739570618,-0.04267603158950806,0.20126831531524658,0.16366475820541382,0.8498116554584499,-0.22464626491495004,0.4439088624694044,0.17406629748109967
1728065406650258200,2.293258056640625,-0.3635001480579376,0.6714702248573303,1.340030312538147,0.8392707705497742,0.21743302047252655,-0.49834468960762024,0.10781174898147583,0.202885702252388,0.022194206714630127,0.8467057240135769,-0.22347853603217185,0.4482019546826493,0.1796155598150847
1728065406660289300,2.303289306640625,-0.380847692489624,0.5819329023361206,1.2383220195770264,0.8451260328292847,0.20855042338371277,-0.49220800399780273,0.09597504138946533,0.13584056496620178,-0.01043170690536499,0.8436753703337591,-0.22282732256449556,0.451933597243116,0.18524560225338665
1728065406670320400,2.3133203125,-0.2821448743343353,0.5648226141929626,1.2288990020751953,0.8504217267036438,0.19974088668823242,-0.48670995235443115,-0.0214117169380188,0.09411299228668213,-0.019713938236236572,0.8408615159382798,-0.22196468416282192,0.4553863220623907,0.19054396497952159
1728065406680350200,2.32335009765625,-0.20175577700138092,0.5720013976097107,1.2870941162109375,0.8556329607963562,0.19021745026111603,-0.48136234283447266,-0.0561487078666687,0.07282891869544983,-0.06822872161865234,0.8380662322954568,-0.2206907447587164,0.4589274766807628,0.19577109461141526
1728065406690381300,2.33338134765625,-0.20054329931735992,0.5807775259017944,1.3019603490829468,0.8608059287071228,0.17997799813747406,-0.4760475754737854,-0.04856520891189575,0.11190749704837799,-0.0288352370262146,0.835243873059654,-0.2190494679832125,0.46259436334740384,0.20097677940033146
1728065406700412200,2.343412109375,-0.326260507106781,0.6402096748352051,1.3532882928848267,0.8660403490066528,0.16978368163108826,-0.47026342153549194,-0.030896306037902832,0.1382913887500763,0.04832744598388672,0.8321677535190447,-0.2177141674395817,0.46633553303807745,0.20646694369369117
1728065406710442200,2.353442138671875,-0.4519219994544983,0.5933613777160645,1.3933582305908203,0.8712318539619446,0.15957611799240112,-0.46420952677726746,0.032652974128723145,0.09834328293800354,0.03972533345222473,0.8288410611816744,-0.21673165881157666,0.47002407436194926,0.2124317522340357
1728065406720473300,2.363473388671875,-0.6619370579719543,0.5307765603065491,1.330992341041565,0.8759320974349976,0.15020909905433655,-0.45845404267311096,0.09944015741348267,-0.011735484004020691,0.028903931379318237,0.8254381511325468,-0.21642989607195157,0.4732135667671052,0.21881229109562836
1728065406730504200,2.373504150390625,-0.6672342419624329,0.48457828164100647,1.2481184005737305,0.8801324367523193,0.141911581158638,-0.4530210494995117,0.11802124977111816,-0.027409523725509644,0.0842161774635315,0.8220656690151222,-0.21670257581521282,0.4759511240944364,0.2252079158869776
1728065406740534800,2.38353466796875,-0.6990417242050171,0.454021692276001,1.1818875074386597,0.8839507102966309,0.13439035415649414,-0.44785088300704956,0.14569711685180664,0.03850707411766052,0.06549623608589172,0.8187999261199709,-0.21720618410103418,0.47843079732382887,0.23128366900338163
1728065406750566000,2.39356591796875,-0.563431441783905,0.40559273958206177,1.2338817119598389,0.8874101638793945,0.1265372931957245,-0.4432736933231354,0.19755077362060547,0.15604032576084137,0.02940961718559265,0.815674944739754,-0.21741933888111867,0.4807202843822913,0.2372998712410999
1728065406760595700,2.403595703125,-0.5460835695266724,0.42091497778892517,1.1842933893203735,0.8907231092453003,0.11811204999685287,-0.4389326572418213,0.2877589464187622,0.2287660837173462,-0.08552712202072144,0.8126242696019543,-0.21719903944874958,0.4830716784034816,0.24312165393806173
1728065406770626800,2.413626708984375,-0.7445667386054993,0.48603203892707825,1.1619739532470703,0.8940432071685791,0.11051955074071884,-0.4341338872909546,0.3277890682220459,0.21679681539535522,-0.18503716588020325,0.8093875909777898,-0.21754868034277797,0.48539224528752273,0.2489150360149259
1728065406780657700,2.42365771484375,-1.1774259805679321,0.3604099452495575,1.1591920852661133,0.8971784114837646,0.10423564910888672,-0.42919206619262695,0.36747002601623535,0.16474638879299164,-0.14141026139259338,0.80582135171759,-0.21912217478097515,0.48722627716460115,0.2554367587962827
1728065406790687700,2.433687744140625,-1.7351409196853638,0.145646333694458,1.0503425598144531,0.8993965983390808,0.10051930695772171,-0.4254194498062134,0.46573102474212646,0.027227386832237244,-0.010966598987579346,0.8021508467090365,-0.2226256393040626,0.48757369283683544,0.2631800995495431
1728065406800718800,2.44371875,-2.119408130645752,-0.05989164113998413,0.9232345819473267,0.9006088376045227,0.09991661459207535,-0.42298999428749084,0.5330765247344971,-0.08476453274488449,0.05207937955856323,0.7985005659721944,-0.2281088445921455,0.4862832079443881,0.271830763354719
1728065406810749700,2.453749755859375,-2.319673776626587,-0.308743953704834,0.7490801215171814,0.9006537199020386,0.10186832398176193,-0.4224284887313843,0.5404779314994812,-0.09831293672323227,0.05991023778915405,0.7952155579810555,-0.23474462170573093,0.4834053343013167,0.280796264794578
1728065406820779800,2.46377978515625,-2.426243782043457,-0.4701901078224182,0.5591700673103333,0.8996716737747192,0.10614611208438873,-0.4234665334224701,0.5455645322799683,-0.056310802698135376,0.06271833181381226,0.7923843237041583,-0.24211415042995943,0.4792154678271276,0.289586644794644
1728065406830811000,2.473810791015625,-2.524482011795044,-0.5446627140045166,0.3740156590938568,0.898016095161438,0.11263283342123032,-0.42530128359794617,0.5256443619728088,0.008445769548416138,0.060036420822143555,0.7898645569933693,-0.25013260479396415,0.47411289018229913,0.29793423783833634
1728065406840841700,2.483841796875,-2.6243984699249268,-0.598132312297821,0.18889190256595612,0.8959649801254272,0.12144418060779572,-0.42719805240631104,0.48277348279953003,0.04945436120033264,0.07716149091720581,0.7874698455186756,-0.2589588219836595,0.4683388807822144,0.30576187584605524
1728065406850871800,2.493871826171875,-2.686777114868164,-0.6585580706596375,-0.01636112667620182,0.8934544920921326,0.13259577751159668,-0.42913585901260376,0.4321223497390747,0.03517472743988037,0.10630571842193604,0.7852422574072438,-0.2685272544636337,0.4618713905280605,0.3129898576827516
1728065406860903000,2.50390283203125,-2.7726376056671143,-0.6415958404541016,-0.22512498497962952,0.8905027508735657,0.14559133350849152,-0.43105456233024597,0.3807527422904968,0.005241900682449341,0.10329586267471313,0.7831787660528811,-0.2785697244422244,0.45483142076105565,0.3196222160611793
1728065406870933800,2.513933837890625,-2.8944602012634277,-0.6002988219261169,-0.38174018263816833,0.8873692154884338,0.1606864482164383,-0.4321524202823639,0.33209794759750366,0.012607723474502563,0.09729838371276855,0.7810300775099724,-0.2894248010909831,0.44738917332024836,0.32568120957649616
1728065406880963800,2.5239638671875,-2.938021421432495,-0.6124524474143982,-0.4891297519207001,0.8840386271476746,0.17730699479579926,-0.43247896432876587,0.29209357500076294,0.024109110236167908,0.12100136280059814,0.7787455818135013,-0.30088119315038386,0.43958050683429084,0.3313531856498885
1728065406890994700,2.53399462890625,-2.936347723007202,-0.6130509972572327,-0.5622990131378174,0.8804177641868591,0.1947319656610489,-0.43237045407295227,0.26524269580841064,-0.009642764925956726,0.09754693508148193,0.7764476912108512,-0.3124659926987636,0.4314855521743488,0.3366219759721802
1728065406901025800,2.54402587890625,-3.0289275646209717,-0.5992060303688049,-0.619704008102417,0.876573920249939,0.21288393437862396,-0.4316231906414032,0.23278582096099854,-0.0557793527841568,0.10317784547805786,0.7739991672741698,-0.324295586435438,0.42310847109953287,0.34166781192237455
1728065406911056000,2.554055908203125,-3.136974811553955,-0.5844882130622864,-0.6979897618293762,0.8725944757461548,0.2319851666688919,-0.42983928322792053,0.19449841976165771,-0.08681295812129974,0.2065575122833252,0.7712476054384375,-0.33662210877228665,0.4144465169057079,0.3465499228991057
1728065406921086700,2.564086669921875,-3.3287270069122314,-0.6067621111869812,-0.8250510096549988,0.868192732334137,0.25252866744995117,-0.42716583609580994,0.14666932821273804,-0.12217280268669128,0.2638969123363495,0.7682449319894648,-0.34961884991580056,0.4051959273049915,0.3512586366781882
1728065406931117800,2.574117919921875,-3.491429090499878,-0.6356173157691956,-0.904146671295166,0.8632776141166687,0.2746822237968445,-0.4234399199485779,0.0976293683052063,-0.12302505970001221,0.29837894439697266,0.7648965497916728,-0.36343644671431846,0.39521385097776535,0.35588369889133226
1728065406941148000,2.58414794921875,-3.399704933166504,-0.7099965214729309,-0.9363024830818176,0.8578149676322937,0.2972845435142517,-0.4192558526992798,0.0750311017036438,-0.09184011816978455,0.30718010663986206,0.7614148555554274,-0.3773091255926282,0.38472054375433046,0.36038237053906574
1728065406951178800,2.5941787109375,-3.13018536567688,-0.7588540315628052,-1.0005083084106445,0.8517757654190063,0.3192591965198517,-0.41539332270622253,0.07264745235443115,-0.07046455144882202,0.2219882607460022,0.7582557246062253,-0.3902926507147321,0.3741323024618155,0.3643417944085785
1728065406961209900,2.6042099609375,-2.676609516143799,-0.8390410542488098,-1.1052591800689697,0.844989001750946,0.3403433561325073,-0.4125045835971832,0.053051769733428955,-0.02575284242630005,0.11291363835334778,0.7558578708268407,-0.40186830841142496,0.3636613448313812,0.36732980047669506
1728065406971239700,2.61423974609375,-2.123708486557007,-0.8291589021682739,-1.2114654779434204,0.837477445602417,0.36005958914756775,-0.41108235716819763,0.015259981155395508,0.054750651121139526,0.022410571575164795,0.7545971826954347,-0.41151918993241254,0.3537100249591814,0.3689503226624455
1728065406981270800,2.624270751953125,-1.6903176307678223,-0.6856722831726074,-1.266610026359558,0.8297664523124695,0.37825366854667664,-0.4103803336620331,-0.02300363779067993,0.13866844773292542,-0.07944202423095703,0.7542616567548105,-0.4194750476728011,0.3447470312828575,0.36916084724189113
1728065406991302000,2.634302001953125,-1.3990662097930908,-0.5213415026664734,-1.3037296533584595,0.8223351240158081,0.3952517807483673,-0.40931782126426697,-0.07059556245803833,0.18551304936408997,-0.09751802682876587,0.7543866721785355,-0.4264073972731594,0.3369240514805915,0.36818436357926504
1728065407001331700,2.644331787109375,-1.2321922779083252,-0.4118075668811798,-1.3559985160827637,0.8150864243507385,0.41149377822875977,-0.407807320356369,-0.12778490781784058,0.15147927403450012,-0.08068740367889404,0.7547840920846777,-0.43272064601501914,0.3299229986506966,0.3663393337000399
1728065407011362800,2.65436279296875,-1.2540688514709473,-0.36277928948402405,-1.4862116575241089,0.8075920343399048,0.42806828022003174,-0.4056510925292969,-0.181706964969635,0.06910890340805054,-0.09123599529266357,0.7552902719648985,-0.43903556679084044,0.32314426808596136,0.3638162948141603
1728065407021393000,2.664392822265625,-1.3883190155029297,-0.37292593717575073,-1.6543521881103516,0.7992289662361145,0.44610270857810974,-0.4027724266052246,-0.24545687437057495,0.023013651371002197,-0.045118749141693115,0.7557957646589146,-0.44590613258120965,0.31588210334022726,0.36077578145304207
1728065407031423700,2.674423828125,-1.4283071756362915,-0.40943148732185364,-1.718143343925476,0.7899423837661743,0.4653424024581909,-0.39930886030197144,-0.3093210458755493,0.04127997159957886,0.042802631855010986,0.7562317374755421,-0.4532729459813853,0.30804092077527256,0.35744661430127544
1728065407041454800,2.684454833984375,-1.2201473712921143,-0.4333309531211853,-1.67861807346344,0.7801428437232971,0.4841330647468567,-0.39622262120246887,-0.3316259980201721,0.08353972434997559,0.043531060218811035,0.7568367300272392,-0.4602225118148916,0.300139855668681,0.35399084509966516
1728065407051485000,2.69448486328125,-0.843919038772583,-0.36441951990127563,-1.5927587747573853,0.7704793810844421,0.5010091662406921,-0.394146591424942,-0.34169209003448486,0.11538499593734741,-0.04974675178527832,0.7578866490893772,-0.4659303602874134,0.29297713977276035,0.3502588316626024
1728065407061515800,2.704515869140625,-0.45760759711265564,-0.19262726604938507,-1.555783987045288,0.7613832950592041,0.5156598091125488,-0.3929256200790405,-0.3663942813873291,0.11735117435455322,-0.1558414101600647,0.7594944019221656,-0.47022317442858774,0.2871016602167057,0.34587737751524733
1728065407071547000,2.714546875,-0.2487097829580307,0.028489675372838974,-1.6080280542373657,0.752798318862915,0.529061496257782,-0.3916488289833069,-0.41084885597229004,0.08336532115936279,-0.23921042680740356,0.7615025631650788,-0.47368798356280434,0.282480570712605,0.3404972951231622
1728065407081576700,2.72457666015625,-0.23264585435390472,0.23701117932796478,-1.6991424560546875,0.7444586753845215,0.5425263047218323,-0.3891613483428955,-0.456815242767334,0.035736083984375,-0.26994192600250244,0.7635077108438633,-0.4772390968248082,0.27867933968475467,0.3341208340244897
1728065407091607800,2.73460791015625,-0.3037993907928467,0.31364455819129944,-1.7642391920089722,0.7359743714332581,0.5566575527191162,-0.38532334566116333,-0.46368128061294556,-0.019471824169158936,-0.2670965790748596,0.7652954475842153,-0.48128374921657796,0.27514411323568494,0.3270848952156861
1728065407101639000,2.744638916015625,-0.3678550720214844,0.30609050393104553,-1.7977555990219116,0.72706538438797,0.5711565613746643,-0.38099345564842224,-0.42466676235198975,-0.0915423035621643,-0.2377045452594757,0.766919216572802,-0.4856027242133001,0.271465040574718,0.31989304601657226
1728065407111668700,2.754668701171875,-0.42709946632385254,0.23496070504188538,-1.8434126377105713,0.7175342440605164,0.5858896970748901,-0.37666672468185425,-0.35872381925582886,-0.15891826152801514,-0.1977349817752838,0.7684552674073815,-0.490050154294044,0.26742752205012577,0.31274559023846993
1728065407121699800,2.764699951171875,-0.41282013058662415,0.168863445520401,-1.9213957786560059,0.7070846557617188,0.6009830832481384,-0.3726268410682678,-0.3060988783836365,-0.18449431657791138,-0.14485961198806763,0.7700393388813803,-0.49454162058262324,0.2628976439506176,0.305537056304541
1728065407131730700,2.774730712890625,-0.268039733171463,0.07399388402700424,-1.9690568447113037,0.695639967918396,0.616003692150116,-0.3696273863315582,-0.27463477849960327,-0.16213101148605347,-0.10458514094352722,0.7719554421682856,-0.4986307750789743,0.2579799536466348,0.2981584240204958
1728065407141760800,2.7847607421875,-0.018987027928233147,0.022965053096413612,-2.0118191242218018,0.683356523513794,0.6303305625915527,-0.3683846890926361,-0.24668049812316895,-0.12822479009628296,-0.08936363458633423,0.774463737452735,-0.5018272267718745,0.25293692846874816,0.29051391324792725
1728065407151791900,2.7947919921875,0.2818819284439087,0.04162955284118652,-2.081784248352051,0.6703863739967346,0.6437375545501709,-0.3690313696861267,-0.21984010934829712,-0.09851044416427612,-0.14102405309677124,0.7776971546309676,-0.503928739716433,0.24807285621663316,0.28231698505886216
1728065407161822700,2.80482275390625,0.5309569835662842,0.12004898488521576,-2.1639251708984375,0.6567996740341187,0.6563736796379089,-0.37119796872138977,-0.20913726091384888,-0.08661037683486938,-0.20791879296302795,0.7816053096571012,-0.5050529896633519,0.24356208889944775,0.2732989063257588
1728065407171852800,2.814852783203125,0.7754586935043335,0.19580303132534027,-2.1799368858337402,0.64292311668396,0.6681386828422546,-0.37448734045028687,-0.19625252485275269,-0.07933241128921509,-0.24927660822868347,0.7859951475415602,-0.5053463434345078,0.23954416472065193,0.2635440433915467
1728065407181884000,2.8248837890625,1.0362812280654907,0.2919197082519531,-2.1273293495178223,0.6292592883110046,0.678483784198761,-0.3790680468082428,-0.15336817502975464,-0.07782149314880371,-0.27731919288635254,0.7908001262730245,-0.504650064897648,0.23620815622260796,0.25331653468300674
1728065407191914800,2.834914794921875,1.3289711475372314,0.3613561987876892,-2.066948652267456,0.6161763668060303,0.6870702505111694,-0.3850468397140503,-0.08803921937942505,-0.09748584032058716,-0.31711670756340027,0.7959854634994667,-0.502855573008011,0.23369392516650445,0.2427560305889759
1728065407201944800,2.84494482421875,1.599348545074463,0.3637881875038147,-2.062472343444824,0.6033106446266174,0.6939470171928406,-0.39300623536109924,-0.02791696786880493,-0.1293870210647583,-0.3066701889038086,0.801717654224187,-0.49979957597404684,0.2317267001260332,0.2318448184019178
1728065407211976000,2.854975830078125,1.730941891670227,0.302654892206192,-2.0893619060516357,0.590154230594635,0.6997109651565552,-0.40264463424682617,0.020838260650634766,-0.14471817016601562,-0.26134151220321655,0.8078460284076865,-0.4958518785086586,0.22980122525645855,0.2206971881116758
1728065407222006800,2.8650068359375,1.855194330215454,0.1484280675649643,-2.041893482208252,0.5764941573143005,0.7044934034347534,-0.4139368236064911,0.07858091592788696,-0.12998461723327637,-0.19465988874435425,0.8142584108560366,-0.4911815687042985,0.22753517195671794,0.20964681717417807
1728065407232036900,2.875036865234375,1.8609076738357544,0.011761186644434929,-1.9691218137741089,0.562627375125885,0.7080315351486206,-0.4267808496952057,0.1566261649131775,-0.11650925874710083,-0.16454291343688965,0.820818300314396,-0.48584491760171533,0.22486504203263027,0.1991177622542061
1728065407242067700,2.885067626953125,1.6761127710342407,-0.10776041448116302,-1.9508652687072754,0.5484421253204346,0.7112375497817993,-0.439718633890152,0.22955775260925293,-0.14254242181777954,-0.18740224838256836,0.8270910056184718,-0.48064881347753535,0.2216244478400991,0.1891557217814444
1728065407252098800,2.895098876953125,1.4897822141647339,-0.22052276134490967,-1.8833211660385132,0.533962070941925,0.7145746946334839,-0.4519596993923187,0.22945040464401245,-0.1778009533882141,-0.11739140748977661,0.8328541034608995,-0.4760129348208232,0.2177884954415175,0.1798165243798451
1728065407262129000,2.90512890625,1.358407735824585,-0.34154853224754333,-1.8002454042434692,0.5194607973098755,0.7177773118019104,-0.46363377571105957,0.2311190366744995,-0.23454660177230835,-0.09935438632965088,0.8381470475346312,-0.4718122707275529,0.21348603302054453,0.17124967945611505
1728065407272159700,2.91515966796875,1.2885761260986328,-0.41715994477272034,-1.7959409952163696,0.5047008395195007,0.7207731604576111,-0.4751451909542084,0.22401303052902222,-0.2796415686607361,-0.07151606678962708,0.843175773090797,-0.46781478317555675,0.20875039567385675,0.16317815609514696
1728065407282190800,2.92519091796875,1.3138277530670166,-0.4185336232185364,-1.7763259410858154,0.4896673262119293,0.7234592437744141,-0.48665452003479004,0.1728997826576233,-0.2662295699119568,-0.014840781688690186,0.8480747663418005,-0.46383255500537274,0.20379427599708916,0.15523032554071975
1728065407292221000,2.935220947265625,1.4715399742126465,-0.32209545373916626,-1.6280372142791748,0.4753561019897461,0.7248638868331909,-0.49860700964927673,0.12367340922355652,-0.22805291414260864,0.012141674757003784,0.8529795629126331,-0.459337068213084,0.19926352111197837,0.14740881417513219
1728065407302251800,2.945251708984375,1.587454080581665,-0.13916131854057312,-1.4228582382202148,0.4630906879901886,0.7242506146430969,-0.51088947057724,0.11091440916061401,-0.22634100914001465,-0.007558345794677734,0.8578347424981433,-0.45407753289047964,0.19587972763043446,0.13987238255522216
1728065407312281900,2.95528173828125,1.6138455867767334,-0.022248603403568268,-1.2913228273391724,0.45291653275489807,0.7221387624740601,-0.5228596925735474,0.11609894037246704,-0.2447521686553955,-0.016996145248413086,0.8624595170297239,-0.4484263752055355,0.1936076573276067,0.13264050665924054
1728065407322312700,2.965312744140625,1.627699613571167,-0.04194241389632225,-1.182038426399231,0.4438333809375763,0.7191168069839478,-0.5346802473068237,0.10798543691635132,-0.257721483707428,0.04624652862548828,0.8669034313654708,-0.44258510631663994,0.19177668362332237,0.1257720339550527
1728065407332343800,2.97534375,1.6965534687042236,-0.11247847229242325,-1.0541515350341797,0.43531739711761475,0.7150112390518188,-0.5470445156097412,0.12667903304100037,-0.2785335183143616,0.09770381450653076,0.8713503070253218,-0.43633439351240944,0.1899737700926606,0.11946111774410022
1728065407342374000,2.985373779296875,1.6789391040802002,-0.19480210542678833,-0.9233914613723755,0.42744025588035583,0.7098625302314758,-0.5598125457763672,0.17914238572120667,-0.3037344813346863,0.08373838663101196,0.8757516369923863,-0.4297529105241694,0.18816528814075403,0.11386557913035764
1728065407352404700,2.99540478515625,1.5879483222961426,-0.2930777966976166,-0.9093749523162842,0.4196092486381531,0.7043868899345398,-0.5725097060203552,0.20018747448921204,-0.33784013986587524,0.12786865234375,0.8800028006606204,-0.4232343911880629,0.1860585893040479,0.10885823885561095
1728065407362435800,3.005435791015625,1.4085172414779663,-0.3622153401374817,-0.9412375688552856,0.41118481755256653,0.6995177865028381,-0.5844672918319702,0.16579574346542358,-0.3607267737388611,0.131098210811615,0.8839707785198929,-0.41726505577045714,0.1834563712015173,0.10406417773697232
1728065407372466000,3.0154658203125,1.2283636331558228,-0.37385857105255127,-0.9370790123939514,0.402374804019928,0.6955652832984924,-0.5952171683311462,0.10296574234962463,-0.3567742705345154,0.13614130020141602,0.8875345235508596,-0.4120792296072366,0.18050520839046272,0.09945368566314976
1728065407382496800,3.025496826171875,1.098284125328064,-0.26178956031799316,-0.8563082814216614,0.3941343426704407,0.6921693086624146,-0.6046153903007507,0.04237380623817444,-0.3245850205421448,0.149796724319458,0.8906572693123153,-0.4075456142904169,0.17776071766234788,0.09506492107647761
1728065407392528000,3.03552783203125,0.9924458265304565,-0.07512833178043365,-0.6729089021682739,0.3877919018268585,0.6888554692268372,-0.6124505400657654,-0.0036518871784210205,-0.2666141390800476,0.12220096588134766,0.8932736895031991,-0.4035096123308641,0.175939548884855,0.09103568873148543
1728065407402558000,3.045557861328125,1.0723334550857544,0.05143094062805176,-0.48594141006469727,0.38383248448371887,0.6847136616706848,-0.6195480823516846,-0.02818065881729126,-0.22298264503479004,0.13668382167816162,0.8956009373389112,-0.3994030002016258,0.17522327340043872,0.08759600797452897
1728065407412588800,3.0555888671875,1.1700236797332764,0.1069265827536583,-0.4431239068508148,0.3812079429626465,0.6794280409812927,-0.6269434094429016,-0.02515941858291626,-0.22190845012664795,0.13451188802719116,0.8979694772640404,-0.3947756112570676,0.1751585569658381,0.08439462123629007
1728065407422620000,3.065619873046875,1.29817795753479,0.10362160205841064,-0.4223563075065613,0.3789331018924713,0.6732999682426453,-0.6348833441734314,-0.0259210467338562,-0.204412579536438,0.11805295944213867,0.9004775870782924,-0.38965093783795873,0.1753010897810937,0.08112863105888138
1728065407432649700,3.075649658203125,1.4629696607589722,0.0798010602593422,-0.287290096282959,0.37710216641426086,0.6658352613449097,-0.6437836289405823,0.00027817487716674805,-0.1568019986152649,0.13174450397491455,0.903211933941432,-0.38377498111529185,0.17557034759786574,0.0781026528324408
1728065407442680800,3.085680908203125,1.606210708618164,0.0944383293390274,-0.0938391387462616,0.37639132142066956,0.6564852595329285,-0.653725266456604,0.06794458627700806,-0.10564285516738892,0.11509007215499878,0.9061620215248064,-0.3769556705550835,0.1761868212922108,0.07571675597199624
1728065407452712000,3.0957119140625,1.6305021047592163,0.04891931638121605,0.006752981338649988,0.37668511271476746,0.6458700299263,-0.6640484929084778,0.12560367584228516,-0.0931355357170105,0.08426034450531006,0.9091475628572359,-0.36961869243746376,0.177081310435693,0.07399386185301084
1728065407462741800,3.10574169921875,1.5595232248306274,-0.058291561901569366,0.015935294330120087,0.37677744030952454,0.6351119875907898,-0.6742933392524719,0.13048571348190308,-0.11118614673614502,0.0903242826461792,0.9120714699030166,-0.3623174095650649,0.1777060107749846,0.07261075096639333
1728065407472772900,3.11577294921875,1.4656347036361694,-0.13722914457321167,0.10249015688896179,0.37647369503974915,0.6245348453521729,-0.6842688322067261,0.11574429273605347,-0.1082993745803833,0.05586618185043335,0.9148723203858293,-0.3552690387448303,0.17790303690604034,0.0717154667252022
1728065407482803700,3.1258037109375,1.1528089046478271,-0.1271328330039978,0.10552669316530228,0.3762055039405823,0.6149505376815796,-0.6930406093597412,0.14195242524147034,-0.10501694679260254,-0.010542035102844238,0.917299619833632,-0.34902423113182107,0.17793755098915534,0.07128647210665025
1728065407492833800,3.135833740234375,0.9229068756103516,-0.15677227079868317,0.14024552702903748,0.3760376572608948,0.6073801517486572,-0.6997750401496887,0.14161673188209534,-0.06677645444869995,-0.021202683448791504,0.9191439564941097,-0.34417731738879787,0.17791700869682034,0.07114786867406336
1728065407502865000,3.145864990234375,0.8918203115463257,-0.33517929911613464,0.1495218575000763,0.37520816922187805,0.6003909707069397,-0.7062219977378845,0.15071648359298706,-0.03569364547729492,-0.020599842071533203,0.9208712962274473,-0.33975450339243096,0.1773580732617124,0.07146373147030345
1728065407512895700,3.155895751953125,0.7691099643707275,-0.43261972069740295,0.09742429107427597,0.37313637137413025,0.5939468145370483,-0.7127386927604675,0.16403400897979736,0.0022141337394714355,-0.00671309232711792,0.922600771133601,-0.3356168028106959,0.1760455080919929,0.07195247743429224
1728065407522925800,3.16592578125,0.7527270317077637,-0.44033515453338623,0.10992197692394257,0.3705960810184479,0.5882146954536438,-0.7187920808792114,0.13636189699172974,0.10245925188064575,-0.0345495343208313,0.9241970901397736,-0.3319152934071741,0.17445975016297816,0.07249695208545799
1728065407532957000,3.17595703125,0.7634668350219727,-0.3889671564102173,0.12266973406076431,0.36830252408981323,0.5822128057479858,-0.7248320579528809,0.09643435478210449,0.14126741886138916,-0.07730716466903687,0.92578451473365,-0.328098649679044,0.17301809244814786,0.07306886613088216
1728065407542986800,3.18598681640625,0.758580207824707,-0.44253265857696533,0.1349671483039856,0.36606088280677795,0.5762187838554382,-0.7307334542274475,0.04700976610183716,0.11311239004135132,-0.07378613948822021,0.9273275295023442,-0.324324338810376,0.17160128379160333,0.07369117226032675
1728065407553017900,3.196017822265625,0.8305473923683167,-0.5158671736717224,0.22760175168514252,0.3636147379875183,0.5697782635688782,-0.73697829246521,0.002489328384399414,0.1130373477935791,0.005182147026062012,0.928936585020931,-0.3203352325877392,0.16998879980030063,0.0746048263122362
1728065407563049000,3.206049072265625,1.0701799392700195,-0.5012264251708984,0.32035669684410095,0.361298143863678,0.5617678165435791,-0.7442315816879272,0.007354140281677246,0.13845807313919067,-0.01725822687149048,0.9307769649708503,-0.3155114103869841,0.16833530221588927,0.07596064934302714
1728065407573078800,3.216078857421875,1.4024105072021484,-0.3646681606769562,0.3052573800086975,0.35981234908103943,0.5512567758560181,-0.7527622580528259,0.017781615257263184,0.17225408554077148,-0.0594477653503418,0.9329731106430256,-0.3092514713208953,0.16727942273658486,0.07708604606778283
1728065407583110000,3.22610986328125,1.5440547466278076,-0.1828099489212036,0.3165355920791626,0.35944893956184387,0.5388561487197876,-0.7618598937988281,-0.03672561049461365,0.19207042455673218,0.013157010078430176,0.9353590523704587,-0.30192184693383184,0.16707259667581917,0.07767443716740345
1728065407593140700,3.236140625,1.5568780899047852,-0.13188503682613373,0.38365763425827026,0.36014893651008606,0.5255641937255859,-0.7707626223564148,-0.09534794092178345,0.1505528688430786,0.08089756965637207,0.937686943858434,-0.29422331637157345,0.16748530085600022,0.07825923555364751
1728065407603170800,3.2461708984375,1.3472859859466553,-0.11573615670204163,0.37448650598526,0.3611932694911957,0.5127747058868408,-0.778846263885498,-0.11633551120758057,0.034298717975616455,0.11864429712295532,0.9397748316981026,-0.2869496817912198,0.16803794311764142,0.07903409911451362
1728065407613202000,3.256201904296875,1.0587445497512817,-0.08421754091978073,0.3161318600177765,0.36220166087150574,0.5020951628684998,-0.7853091359138489,-0.14438244700431824,-0.040440380573272705,0.13613927364349365,0.9414287784877019,-0.28095244709847816,0.1685560646573601,0.0797903527144555
1728065407623232800,3.266232666015625,0.8636695742607117,-0.10493800044059753,0.2642289698123932,0.36287251114845276,0.4934488534927368,-0.7904630303382874,-0.15718409419059753,-0.05015042424201965,0.14512312412261963,0.9427370012071561,-0.2761295069802257,0.16888159802900712,0.08048877688769404
1728065407633262800,3.276262939453125,0.7625324726104736,-0.0945855975151062,0.2464451938867569,0.363329142332077,0.4861326515674591,-0.7947747707366943,-0.13484406471252441,-0.03146645426750183,0.10687816143035889,0.9438229450307299,-0.2720719711043581,0.1690841471256052,0.0811515644098213
1728065407643294000,3.2862939453125,0.8246078491210938,-0.08701582998037338,0.3165760636329651,0.3638891577720642,0.4788724482059479,-0.798915445804596,-0.1032385528087616,0.052804917097091675,0.06087839603424072,0.9448548449787594,-0.26808722047368205,0.16932668199617865,0.08189666924028464
1728065407653324800,3.29632470703125,0.9872255921363831,-0.07283678650856018,0.3665068745613098,0.3650786876678467,0.47019651532173157,-0.8035127520561218,-0.07920527458190918,0.1500733494758606,0.0653994083404541,0.945981621015363,-0.26341280864153066,0.16987437005592065,0.08291664717869415
1728065407663355000,3.30635498046875,0.7580408453941345,-0.033990319818258286,0.15459145605564117,0.36583390831947327,0.46187907457351685,-0.807981014251709,-0.06009355187416077,0.1384781002998352,0.06956243515014648,0.9471091904529577,-0.2588535547771138,0.17030661537789935,0.08351435154790056
1728065407673386000,3.316385986328125,0.2553955316543579,-0.21103928983211517,-0.06679047644138336,0.3652513325214386,0.45760926604270935,-0.8106696009635925,-0.1510484516620636,0.0759754478931427,0.0703895092010498,0.9478282386603861,-0.2563685420667226,0.17011869750448264,0.08340475520703029
1728065407683416800,3.326416748046875,-0.2184295654296875,-0.43032053112983704,-0.22482830286026,0.361869752407074,0.4580501317977905,-0.8119361996650696,-0.18241116404533386,0.018237799406051636,0.024933695793151855,0.9481890126659801,-0.25629477677550155,0.16835941963287038,0.08310090050920867
1728065407693447000,3.336447021484375,-0.5172255635261536,-0.6182861924171448,-0.3163638412952423,0.3562719225883484,0.4621526002883911,-0.8120869994163513,-0.10866758227348328,0.022268295288085938,-0.0930032730102539,0.9482546174063613,-0.2581219936874148,0.16531645887156532,0.08280529174148996
1728065407703477800,3.346477783203125,-0.6264505982398987,-0.6597843170166016,-0.4441731870174408,0.3492741882801056,0.4681759476661682,-0.811676561832428,-0.03006032109260559,0.10595136880874634,-0.15364015102386475,0.9481874871589314,-0.2609050165132887,0.16152490333720673,0.08233340608251284
1728065407713508900,3.3565087890625,-0.5728133320808411,-0.6400163173675537,-0.5695974230766296,0.341608464717865,0.47493529319763184,-0.811011791229248,-0.013712376356124878,0.21467050909996033,-0.14612621068954468,0.9481047959267591,-0.263967153319256,0.15752917328338725,0.08126036818883894
1728065407723539000,3.3665390625,-0.4691231846809387,-0.6252317428588867,-0.6305273771286011,0.33355242013931274,0.4811650514602661,-0.8106929063796997,-0.06592854857444763,0.30261802673339844,-0.06621438264846802,0.948158102219763,-0.26662995217700297,0.153499231978782,0.0796409846982666
1728065407733569800,3.37656982421875,-0.3786734342575073,-0.6206045150756836,-0.5700110197067261,0.3256089389324188,0.486690878868103,-0.8106237053871155,-0.12434554100036621,0.3251988887786865,-0.014312148094177246,0.9482836364345267,-0.2689069853806372,0.14958999688988764,0.07791066045761952
1728065407743601400,3.386601318359375,-0.15083174407482147,-0.5149039030075073,-0.5028859972953796,0.31826090812683105,0.49053454399108887,-0.8112249374389648,-0.16817548871040344,0.2853139638900757,-0.0011681914329528809,0.9485672330782007,-0.2703205687049023,0.1459942457034867,0.0763726388493554
1728065407753631200,3.39663134765625,-0.1750483363866806,-0.30347731709480286,-0.5076400637626648,0.3125016391277313,0.4933091104030609,-0.8117812871932983,-0.2078568935394287,0.19029998779296875,-0.032228052616119385,0.9488508129804698,-0.27122775077885247,0.1433347889673103,0.07465122997313138
1728065407763662300,3.406662353515625,-0.39257320761680603,-0.19279471039772034,-0.638910174369812,0.30775874853134155,0.49727150797843933,-0.8111754655838013,-0.27042052149772644,0.07961761951446533,-0.052258312702178955,0.9488571799229619,-0.27283683917028456,0.14132351340757035,0.07251050692543397
1728065407773693400,3.416693359375,-0.7131257057189941,-0.18941523134708405,-0.8613962531089783,0.3024497628211975,0.504058301448822,-0.8089804649353027,-0.3090110719203949,-0.01821833848953247,0.02249675989151001,0.9484985972090212,-0.2759243001835155,0.13919603362979063,0.06957577015666662
1728065407783723300,3.42672314453125,-0.9736814498901367,-0.16972434520721436,-0.9271044135093689,0.2963365316390991,0.5136642456054688,-0.8051917552947998,-0.3147081434726715,-0.0347212553024292,0.1430366039276123,0.9477488352026053,-0.2805297466179463,0.13677425546499544,0.06609146735223255
1728065407793754400,3.43675439453125,-1.0215717554092407,-0.15333257615566254,-0.7864770293235779,0.29057174921035767,0.5244173407554626,-0.8003464937210083,-0.24780139327049255,0.019451797008514404,0.21479052305221558,0.9466875630818787,-0.2859088843240066,0.13447253061916714,0.06289559071118166
1728065407803784400,3.446784423828125,-0.8650417923927307,-0.147133007645607,-0.6442279815673828,0.28564366698265076,0.5340219140052795,-0.7957563996315002,-0.15685951709747314,0.04869610071182251,0.19994652271270752,0.9456378535750374,-0.29082010798960606,0.1324592495856274,0.06039248376412728
1728065407813815300,3.456815185546875,-0.5615496039390564,-0.16064131259918213,-0.6855730414390564,0.28088730573654175,0.5417006015777588,-0.792251706123352,-0.11488699913024902,0.027955830097198486,0.1466372013092041,0.944860139724809,-0.2946714924845646,0.1305483030508436,0.05800957337109824
1728065407823846400,3.466846435546875,-0.09400954097509384,-0.07063207030296326,-0.8191321492195129,0.2757469415664673,0.5463860034942627,-0.7908387780189514,-0.13448110222816467,0.035981059074401855,0.09631979465484619,0.9446753898038847,-0.29666563149011943,0.12872494397171327,0.05484350820409402
1728065407833876500,3.47687646484375,0.2753201723098755,0.1128096655011177,-0.8114143013954163,0.2713690400123596,0.5479460954666138,-0.7912735939025879,-0.146124929189682,0.09998798370361328,0.019941866397857666,0.9450158037694752,-0.2967757081703047,0.12762204696685897,0.05081166339068312
1728065407843907300,3.4869072265625,0.7791654467582703,0.2532519996166229,-0.574355959892273,0.26898714900016785,0.5457127094268799,-0.7936268448829651,-0.11652138829231262,0.18142974376678467,0.03563129901885986,0.9458414958429845,-0.2948029214127882,0.1275845879418625,0.04687464586238487
1728065407853938400,3.4969384765625,1.2145377397537231,0.3603561222553253,-0.3264244496822357,0.26900023221969604,0.5388588309288025,-0.7982919216156006,-0.04005742073059082,0.17784655094146729,-0.018358349800109863,0.947226542201326,-0.2903706012469109,0.12860381011597985,0.043679263582596536
1728065407863968300,3.50696826171875,1.4543921947479248,0.4679150879383087,-0.12639282643795013,0.27117830514907837,0.5287234783172607,-0.8043094873428345,0.0037850141525268555,0.12964755296707153,-0.06318306922912598,0.9489282671277737,-0.2842462914194272,0.13057294094174696,0.0411080159427931
1728065407873999400,3.516999267578125,1.6339490413665771,0.5296868681907654,0.02274792641401291,0.27494847774505615,0.5162466168403625,-0.8111058473587036,0.01083335280418396,0.07590126991271973,-0.03395634889602661,0.9507971275109309,-0.27697306646301506,0.13316526861562125,0.03921351072872548
1728065407884030500,3.527030517578125,1.4796239137649536,0.6689571142196655,-0.1500704437494278,0.27962541580200195,0.5034401416778564,-0.817531406879425,0.04750770330429077,-0.05583876371383667,-0.0800057053565979,0.9525700015870507,-0.26956047123317656,0.13627707647290127,0.0370946633784736
1728065407894060300,3.537060302734375,1.167155385017395,0.6601561307907104,-0.2777474522590637,0.28407347202301025,0.49329349398612976,-0.8221701979637146,0.014098495244979858,-0.1580272614955902,-0.021930694580078125,0.9538974487366534,-0.2635574460157269,0.13947180672755188,0.034128938541799894
1728065407904091400,3.54709130859375,1.118736982345581,0.38565585017204285,-0.040871262550354004,0.28761863708496094,0.4845230281352997,-0.8261434435844421,0.037485092878341675,-0.17313680052757263,0.12997651100158691,0.9550188153650703,-0.2583985493589742,0.1419805305697881,0.031792879195816935
1728065407914122200,3.557122314453125,1.2995522022247314,0.06688180565834045,0.27640095353126526,0.2901304364204407,0.47423580288887024,-0.8312188386917114,0.20938125252723694,-0.13986986875534058,0.1668207049369812,0.9563651445491809,-0.2526202698791791,0.14343492469328062,0.031228927809088803
1728065407924152300,3.56715234375,1.394155740737915,-0.041423097252845764,0.47631460428237915,0.2919232249259949,0.461767315864563,-0.8375868797302246,0.31394222378730774,-0.054464370012283325,0.17265468835830688,0.9579989610101668,-0.24583759826145257,0.1441195126833514,0.032115787998597045
1728065407934183400,3.577183349609375,1.4335309267044067,-0.199141725897789,0.3979412317276001,0.2929779589176178,0.4483674466609955,-0.8444705605506897,0.3334105610847473,-0.03168031573295593,0.15375101566314697,0.9597482807403788,-0.23861472372395723,0.14431817637769856,0.03344243137422944
1728065407944214300,3.58721435546875,1.092644453048706,-0.3338473439216614,0.07515547424554825,0.29181408882141113,0.4367521405220032,-0.8509359955787659,0.255625456571579,-0.10107395052909851,0.058287739753723145,0.961412243760588,-0.23221431309812035,0.14355664335342816,0.0339769131963886
1728065407954244400,3.597244384765625,0.7497204542160034,-0.5057970285415649,-0.016041547060012817,0.28825876116752625,0.4290005564689636,-0.8560755848884583,0.11188769340515137,-0.11010703444480896,0.03681600093841553,0.962753658140962,-0.22777543071935338,0.14170588243881416,0.033811932910677044
1728065407964275500,3.607275390625,0.6687619686126709,-0.6451370716094971,0.227267786860466,0.2836165428161621,0.42269814014434814,-0.8607484698295593,0.0512222945690155,-0.02998259663581848,0.0167849063873291,0.963943172849066,-0.22422771565538382,0.13909601310907083,0.034463266151896293
1728065407974306300,3.617306396484375,0.7772387266159058,-0.7309650778770447,0.3896619975566864,0.2790208160877228,0.4156578779220581,-0.8656650185585022,0.07873672246932983,0.06316301226615906,-0.0732693076133728,0.9651505230730805,-0.2204564619659953,0.13625876407396012,0.03628921757908377
1728065407984336400,3.62733642578125,1.1833239793777466,-0.5622063875198364,0.3983239233493805,0.2750697433948517,0.4061863422393799,-0.8714064955711365,0.016296803951263428,0.19264495372772217,-0.16750335693359375,0.9665588693523547,-0.21542055565664892,0.13375624051355475,0.038304541462905246
1728065407994367500,3.637367431640625,1.6824374198913574,-0.34014955163002014,0.3019590377807617,0.27239811420440674,0.3924790322780609,-0.8784984350204468,-0.06283396482467651,0.32376861572265625,-0.23804813623428345,0.9683417980855971,-0.2080513233359493,0.13215687815725982,0.03953842031690416
1728065408004398300,3.6473984375,1.7637056112289429,-0.17513343691825867,0.3677292764186859,0.2715010643005371,0.37616631388664246,-0.8858815431594849,-0.13726955652236938,0.3828212022781372,-0.17190343141555786,0.9702201981850516,-0.19930733216525623,0.13166557188613626,0.04016879505971687
1728065408014428400,3.657428466796875,1.6433639526367188,-0.2537440359592438,0.5260999798774719,0.27131688594818115,0.3596673011779785,-0.8927634358406067,-0.13748207688331604,0.31612929701805115,-0.17991411685943604,0.9719383270806167,-0.19063081214826105,0.13144643819685042,0.04144455689191633
1728065408024459300,3.667459228515625,1.4255427122116089,-0.3793450891971588,0.4652252197265625,0.270295113325119,0.34443554282188416,-0.8990576863288879,-0.0771951973438263,0.08822751045227051,-0.15160143375396729,0.9734777490227409,-0.1827162154566261,0.13071321061657032,0.043242776814775605
1728065408034490400,3.677490478515625,1.1762343645095825,-0.442646324634552,0.21836164593696594,0.267593652009964,0.33181270956993103,-0.9045960307121277,-0.06375151872634888,-0.11011764407157898,-0.17610770463943481,0.9748445873191182,-0.17607998160983399,0.12922007517673953,0.04445333359504446
1728065408044520400,3.6875205078125,1.2089457511901855,-0.491698294878006,0.1424354463815689,0.26389220356941223,0.32073676586151123,-0.9096641540527344,-0.08643248677253723,-0.14870908856391907,-0.11645889282226562,0.9761213207650131,-0.17015366040640686,0.12734074129560144,0.04493634023501003
1728065408054551300,3.69755126953125,1.2818188667297363,-0.46952494978904724,-0.017959821969270706,0.2598003149032593,0.3088897466659546,-0.9149267077445984,-0.048405081033706665,-0.11348560452461243,0.029840707778930664,0.9774700743644227,-0.16376313293200845,0.1253725218603112,0.04489572555409264
1728065408064582400,3.70758251953125,0.8555693626403809,-0.3905497193336487,-0.1224428191781044,0.2555908262729645,0.29912349581718445,-0.9193467497825623,-0.04685059189796448,-0.0696159303188324,0.15669727325439453,0.9786343947489056,-0.1583943583702934,0.12344166232076814,0.0441376213714801
1728065408074612500,3.717612548828125,0.5435916781425476,-0.5144259929656982,-0.03590180352330208,0.2511877119541168,0.29310518503189087,-0.9224933981895447,-0.11170715093612671,0.03231912851333618,0.23694658279418945,0.9794583761174449,-0.15503640323505283,0.12131367735153156,0.04368104534734127
1728065408084643300,3.727643310546875,0.46604230999946594,-0.4896731972694397,-0.09683439880609512,0.24615737795829773,0.28850245475769043,-0.9252961277961731,-0.07676959037780762,0.05251634120941162,0.2146180272102356,0.9801810743340196,-0.15244151051294585,0.11880039528518528,0.04351040430826566
1728065408094673400,3.73767333984375,0.3516823649406433,-0.3068235516548157,-0.16803719103336334,0.24210003018379211,0.2851245403289795,-0.9274111986160278,-0.077564537525177,0.04094064235687256,0.10723608732223511,0.9807483466608188,-0.15046905171736855,0.11684798071548025,0.04287628117822338
1728065408104704300,3.747704345703125,0.36313527822494507,-0.195452019572258,-0.18612831830978394,0.23927690088748932,0.2821999192237854,-0.9290370345115662,-0.0723000019788742,0.05918505787849426,0.025045335292816162,0.9811998172485459,-0.1487521381961134,0.11556078347149966,0.042017767341465534
1728065408114735400,3.7577353515625,0.11659236997365952,-0.1522229015827179,-0.3205772340297699,0.23706409335136414,0.28039681911468506,-0.9301495552062988,0.0066339969635009766,0.0015399158000946045,0.0018506646156311035,0.9815365369503558,-0.14759529173942768,0.11463349594283766,0.040753896103069995
1728065408124765400,3.767765380859375,-0.27140727639198303,-0.2097969949245453,-0.42517685890197754,0.23429608345031738,0.28202396631240845,-0.9303590059280396,0.03300735354423523,-0.049876660108566284,0.04690563678741455,0.9816580284021951,-0.1481626071607454,0.11343874889099805,0.03907855488136335
1728065408134796300,3.77779638671875,-0.7986482381820679,-0.30943670868873596,-0.5396595001220703,0.23053158819675446,0.28797128796577454,-0.9294770956039429,0.03837402164936066,-0.12975281476974487,0.10934776067733765,0.981506350881836,-0.15093294790525114,0.11171697527700082,0.03720113104706338
1728065408144827400,3.787827392578125,-1.3904091119766235,-0.4176800847053528,-0.6309542655944824,0.22540928423404694,0.2996107339859009,-0.927051305770874,0.029061511158943176,-0.22221803665161133,0.10264945030212402,0.9809623835822264,-0.15663298479756524,0.10927244237511675,0.03519363962715667
1728065408154857500,3.797857421875,-1.6689770221710205,-0.5152928233146667,-0.671031653881073,0.21900266408920288,0.315458208322525,-0.9233222603797913,0.00025084614753723145,-0.22814729809761047,0.14643627405166626,0.980081422197016,-0.1645294545541727,0.10615526828896865,0.033188740603624894
1728065408164888300,3.807888427734375,-1.7653287649154663,-0.44466158747673035,-0.6606287956237793,0.21229134500026703,0.3328839838504791,-0.9187604188919067,-0.013713493943214417,-0.18253901600837708,0.15856754779815674,0.9789817844217407,-0.17329724638477254,0.10289737398119965,0.031223921997073054
1728065408174919400,3.81791943359375,-1.6138668060302734,-0.3307637870311737,-0.6540603637695312,0.20646771788597107,0.34990930557250977,-0.9137475490570068,-0.027390599250793457,-0.0947670042514801,0.13097167015075684,0.9777620438576432,-0.18192878054953598,0.1001406586916873,0.02924290421784491
1728065408184949500,3.827949462890625,-1.355506181716919,-0.16564592719078064,-0.6972986459732056,0.20177492499351501,0.36487317085266113,-0.9089303612709045,-0.0438007116317749,-0.006474614143371582,0.10857641696929932,0.9765969216613183,-0.18951013591901983,0.0980852482428935,0.026899415458203815
1728065408194980400,3.83798046875,-0.9750182032585144,-0.030395695939660072,-0.6201775074005127,0.19839909672737122,0.37690266966819763,-0.9047552943229675,-0.061970293521881104,0.08520984649658203,0.0722358226776123,0.975596325357328,-0.1955746584449264,0.09681372864063167,0.02427936668641672
1728065408205011500,3.848011474609375,-0.5780870914459229,0.12827277183532715,-0.4595753252506256,0.1967656910419464,0.3848901391029358,-0.9017443060874939,-0.0291631817817688,0.15202099084854126,0.04790830612182617,0.9748789817819848,-0.19957799184374383,0.09641814611261451,0.02198047512000482
1728065408215041300,3.858041259765625,-0.3646451532840729,0.27021297812461853,-0.3887277841567993,0.19695116579532623,0.38989242911338806,-0.8995521664619446,0.02472849190235138,0.1487429440021515,0.013886332511901855,0.9743602185631213,-0.20206135073397227,0.09692841903027222,0.019956255365557715
1728065408225072400,3.868072265625,-0.2130092978477478,0.29688480496406555,-0.3355415165424347,0.19817125797271729,0.3932143747806549,-0.8978366255760193,0.019571632146835327,0.11282822489738464,0.028482437133789062,0.9739577658866279,-0.20367635301446274,0.0979675114310426,0.018015901670034126
1728065408235103500,3.878103515625,-0.04145851358771324,0.20259840786457062,-0.28527674078941345,0.19916196167469025,0.3950231671333313,-0.8968228697776794,0.03367184102535248,0.06397655606269836,0.05182170867919922,0.9737275252373196,-0.20449660413112528,0.09884188281718755,0.01631284398402386
1728065408245133300,3.88813330078125,0.15664099156856537,0.12283886969089508,-0.16664142906665802,0.1997385323047638,0.39496496319770813,-0.8967202305793762,0.08299154043197632,0.04021579027175903,0.061805129051208496,0.9737230866621575,-0.2043382628746931,0.09942711326496516,0.014949680788999277
1728065408255164400,3.898164306640625,0.36410197615623474,0.06906963884830475,0.19711947441101074,0.200626403093338,0.39263269305229187,-0.8975458741188049,0.1296653151512146,0.05667772889137268,0.03920853137969971,0.9739377662326326,-0.2030849069257581,0.09991785772013681,0.01476930622583319
1728065408265195300,3.9081953125,0.49176833033561707,-0.05479584261775017,0.40080228447914124,0.20197059214115143,0.3880613446235657,-0.89923095703125,0.19663472473621368,0.01510646939277649,0.0005950927734375,0.9743491248538718,-0.2007968943308057,0.10032515292768106,0.016103684960103094
1728065408275225300,3.918225341796875,0.5239015221595764,-0.1228620782494545,0.36515718698501587,0.20268693566322327,0.3827133774757385,-0.9013592600822449,0.17568522691726685,-0.08426663279533386,-0.05396300554275513,0.9748646641608526,-0.19812750309661106,0.10032880919881082,0.017849398553521453
1728065408285256400,3.92825634765625,0.6547394394874573,-0.21057862043380737,0.22693301737308502,0.202217236161232,0.37674686312675476,-0.9039745330810547,0.09548170864582062,-0.1265178620815277,-0.09639161825180054,0.9755093158726605,-0.1950677578961674,0.09980625553454606,0.01920710257401591
1728065408295287300,3.938287353515625,0.7102665305137634,-0.20078857243061066,0.19656047224998474,0.20107460021972656,0.37011316418647766,-0.906964898109436,0.07120318710803986,-0.1075703501701355,-0.11306989192962646,0.9762593590465405,-0.19158684444154134,0.09905577105524455,0.02000753177000826
1728065408305317400,3.9483173828125,0.7204334139823914,-0.21146677434444427,0.4262136220932007,0.20033085346221924,0.3629663586616516,-0.9100126624107361,0.07090935111045837,-0.021978110074996948,-0.012198030948638916,0.9770117028423448,-0.18790127499379003,0.09842148828724497,0.021322278516581545
1728065408315348500,3.958348388671875,0.6164588928222656,-0.23063354194164276,0.640932559967041,0.2002662867307663,0.35567155480384827,-0.9129025936126709,0.12137369811534882,0.020778119564056396,0.06843549013137817,0.9776923670798604,-0.18428259910276273,0.09792149472312733,0.02385489787791747
1728065408325379300,3.96837939453125,0.4551890790462494,-0.24618801474571228,0.6749235987663269,0.20045648515224457,0.34942060708999634,-0.9152718186378479,0.12437258660793304,-0.006509721279144287,0.0821877121925354,0.9782135012240033,-0.18130057233224048,0.09743821343021089,0.027097894973444572
1728065408335409400,3.978409423828125,0.3828994333744049,-0.29170265793800354,0.5282962918281555,0.20007672905921936,0.344341903924942,-0.917277455329895,0.07098035514354706,-0.059353381395339966,0.0714980959892273,0.9786369276886536,-0.17890810134457077,0.09671170160481002,0.03014243258387597
1728065408345440500,3.9884404296875,0.2488875538110733,-0.32465848326683044,0.3775006830692291,0.1988207995891571,0.34051480889320374,-0.918977677822113,0.03550839424133301,-0.11663773655891418,0.0047321319580078125,0.9789978137230205,-0.17707991847274976,0.09567582286998656,0.03243719893063341
1728065408355471400,3.998471435546875,0.16047987341880798,-0.45902499556541443,0.3534052073955536,0.19644497334957123,0.33800211548805237,-0.9204151034355164,0.03286406397819519,-0.09965971112251282,-0.019236385822296143,0.9792952834731855,-0.17588684050890194,0.09410777003074493,0.03447213320634344
1728065408365501400,4.00850146484375,0.2303742617368698,-0.5228963494300842,0.3329539895057678,0.19298997521400452,0.3355768620967865,-0.9220320582389832,0.0697510838508606,-0.028569906949996948,-0.013194382190704346,0.9796344188589895,-0.17470442125231697,0.09199102555856571,0.03650399795915934
1728065408375532300,4.0185322265625,0.41356125473976135,-0.46649616956710815,0.34742987155914307,0.18946103751659393,0.33201563358306885,-0.9240509271621704,0.06969420611858368,0.0587620735168457,-0.047964394092559814,0.9800748208529036,-0.17290913645837835,0.08987190346478686,0.03845561736388862
1728065408385563400,4.0285634765625,0.5947188138961792,-0.3296720087528229,0.37512513995170593,0.18698084354400635,0.32657745480537415,-0.9264909029006958,0.033066123723983765,0.1284550130367279,-0.0568007230758667,0.9806212570153748,-0.17014972643775164,0.08833816675786492,0.040341763162700085
1728065408395593500,4.038593505859375,0.6427496075630188,-0.24244312942028046,0.37250831723213196,0.1855885535478592,0.3200628459453583,-0.9290407299995422,-0.00884602963924408,0.13869276642799377,-0.05127537250518799,0.981194657865709,-0.16685421039415801,0.08740310896220685,0.042161435685326445
1728065408405624300,4.048624267578125,0.6055609583854675,-0.2606796622276306,0.34313711524009705,0.18447373807430267,0.3135661482810974,-0.931475043296814,-0.04999805986881256,0.09692591428756714,0.008409857749938965,0.9817412781513668,-0.1635679750599681,0.08664874143577242,0.04383636526016004
1728065408415655400,4.058655517578125,0.7257033586502075,-0.2502211332321167,0.3657824993133545,0.1831408441066742,0.3068265914916992,-0.9339790344238281,-0.07356750965118408,0.053540319204330444,0.0327339768409729,0.9823029019438335,-0.1601518082588718,0.08580134387945114,0.045503781687705774
1728065408425685500,4.068685546875,0.8734134435653687,-0.11730113625526428,0.4124980866909027,0.18249543011188507,0.2985038459300995,-0.9367982149124146,-0.055893272161483765,0.042545437812805176,0.01908886432647705,0.9829391614331257,-0.15594228781360744,0.08533989995892972,0.0472212034702053
1728065408435716400,4.07871630859375,0.8100590109825134,-0.02813088707625866,0.5169944167137146,0.18327796459197998,0.2896295487880707,-0.9394274353981018,-0.04129496216773987,0.04604867100715637,0.013463139533996582,0.9835111976398299,-0.15152372555586882,0.08559692423666503,0.04918997839961812
1728065408445746400,4.088746337890625,0.5649587512016296,-0.040983039885759354,0.5328325033187866,0.18452230095863342,0.2820809781551361,-0.9414785504341125,-0.01495140790939331,-0.022635668516159058,0.005611300468444824,0.9839123426075447,-0.1478524708870041,0.08602540278514328,0.05153579643646506
1728065408455777300,4.09877734375,0.2545783519744873,-0.14148184657096863,0.38922685384750366,0.18502382934093475,0.2773153483867645,-0.9427949786186218,-0.004024103283882141,-0.15416154265403748,0.0253145694732666,0.9841288885797385,-0.14559287528019718,0.08605357290441462,0.05373962866827362
1728065408465808400,4.108808349609375,-0.13684028387069702,-0.2576526701450348,0.18326251208782196,0.18388716876506805,0.2761838734149933,-0.9433493614196777,-0.018283560872077942,-0.23866239190101624,0.027226924896240234,0.984185577155403,-0.14509872762448167,0.08527417439102744,0.05525875124893024
1728065408475838500,4.11883837890625,-0.3867214322090149,-0.3844397962093353,0.1288386881351471,0.1812959760427475,0.27861395478248596,-0.9431362748146057,-0.025000229477882385,-0.2167699635028839,0.014379620552062988,0.9840711757015076,-0.14635460634275127,0.08373879270636946,0.05632251039585787
1728065408485869300,4.128869384765625,-0.34322643280029297,-0.438298761844635,0.18008802831172943,0.17778241634368896,0.28189361095428467,-0.942830502986908,0.015470117330551147,-0.1162441074848175,0.005803585052490234,0.9839225161896065,-0.1480275587048058,0.08168586095953681,0.05754772465553976
1728065408495900400,4.138900390625,-0.21080265939235687,-0.3922662138938904,0.23306815326213837,0.17442460358142853,0.284209281206131,-0.9427624940872192,0.06822063028812408,-0.005278497934341431,-0.040468037128448486,0.9838191328077519,-0.14922142195854046,0.07969763776870342,0.05900119170504435
1728065408505930500,4.148930419921875,-0.0019783503375947475,-0.33888208866119385,0.26151177287101746,0.17167159914970398,0.2848031520843506,-0.9430885314941406,0.06566359102725983,0.09964215755462646,-0.0581473708152771,0.9838089806389075,-0.14954725488524737,0.07804703101607331,0.060532227887981016
1728065408515961300,4.15896142578125,0.16100044548511505,-0.2799375057220459,0.2715420126914978,0.1695057898759842,0.28354471921920776,-0.9438592195510864,0.053867608308792114,0.1450900435447693,-0.08195865154266357,0.9839103018562899,-0.14893066123429702,0.07674673114653156,0.06204897131369838
1728065408525992400,4.168992431640625,0.2256646603345871,-0.2531716525554657,0.2967887818813324,0.1678304523229599,0.28119298815727234,-0.9448615908622742,0.06654451787471771,0.11747351288795471,-0.10082316398620605,0.9840686147708769,-0.14776395886296842,0.07572983458215186,0.06355997276594481
1728065408536022500,4.1790224609375,0.17280179262161255,-0.3117964267730713,0.33337634801864624,0.16606798768043518,0.27867332100868225,-0.9459189176559448,0.09433846175670624,0.04333299398422241,-0.1011696457862854,0.9842270131502304,-0.146518198736721,0.07465223961758233,0.06524272424038949
