time,seconds_elapsed,rotationRateX,rotationRateY,rotationRateZ,gravityX,gravityY,gravityZ,accelerationX,accelerationY,accelerationZ,quaternionW,quaternionX,quaternionY,quaternionZ
1728328201240222200,0.06122216796875,-0.3019476532936096,0.24096688628196716,0.45882347226142883,0.11331478506326675,-0.4553580582141876,-0.8830678462982178,0.015591494739055634,-0.05674225091934204,0.04038602113723755,0.9703268609216573,0.23464158612194236,0.05839000844819287,-2.637139804836228e-17
1728328201250253300,0.07125341796875,-0.32585692405700684,0.22053658962249756,0.4767063558101654,0.11325187236070633,-0.45309945940971375,-0.8842368721961975,0.01898081600666046,-0.04224669933319092,0.03644341230392456,0.9706242947987235,0.2332458659514617,0.05897385640422557,0.0026389404801463474
1728328201260284200,0.0812841796875,-0.3568079173564911,0.2020537257194519,0.5117125511169434,0.1128813624382019,-0.45063459873199463,-0.8855429291725159,0.03226026892662048,-0.020267009735107422,0.033293843269348145,0.9709494257612715,0.23172934575574192,0.0594140797935693,0.005382933683808767
1728328201270315300,0.091315185546875,-0.3732317388057709,0.19090978801250458,0.5148683786392212,0.1123141273856163,-0.44794952869415283,-0.8869761824607849,0.040365345776081085,-0.011050224304199219,0.030546188354492188,0.9712982497878437,0.2300858743304174,0.059769454421237704,0.008244328617605545
1728328201280346000,0.10134619140625,-0.41665539145469666,0.19257239997386932,0.463701069355011,0.11183001846075058,-0.44502559304237366,-0.8885079026222229,0.03225875645875931,-0.012204170227050781,0.030979275703430176,0.9716652665212369,0.22832169842165706,0.06012693056965019,0.01098555064669789
1728328201290377500,0.11137744140625,-0.4451442062854767,0.18854564428329468,0.42192405462265015,0.11160623282194138,-0.44164416193962097,-0.8902215957641602,0.015346929430961609,-0.011084228754043579,0.02083688974380493,0.9720748695084132,0.22632702028499316,0.060541549608621445,0.013466369113705749
1728328201300407300,0.1214072265625,-0.3387671709060669,0.18020541965961456,0.47021540999412537,0.11125577986240387,-0.4385771155357361,-0.8917803764343262,0.006557360291481018,-0.0004031062126159668,0.03991276025772095,0.9724380667135053,0.22450495175342874,0.06088779959626962,0.015953870159098396
1728328201310438100,0.131438232421875,-0.25524938106536865,0.1894160807132721,0.451409250497818,0.1108885407447815,-0.43652012944221497,-0.8928347826004028,0.013028115034103394,-0.002002328634262085,0.03788489103317261,0.9726632354893429,0.2232266798824577,0.06125735435299374,0.018539473894232016
1728328201320469500,0.141469482421875,-0.26636382937431335,0.21009685099124908,0.3865026831626892,0.1108362078666687,-0.43465426564216614,-0.8937510848045349,0.009082645177841187,0.002494722604751587,0.008726119995117188,0.9728517822175852,0.22206838321272504,0.06172585017572184,0.02085843279707187
1728328201330499000,0.1514990234375,-0.26850080490112305,0.234395369887352,0.3797830045223236,0.11120148748159409,-0.4326728582382202,-0.8946666717529297,-0.022425822913646698,0.004984170198440552,0.030195295810699463,0.9730370431074661,0.22085193671761053,0.062378568017224724,0.02307388827192257
1728328201340530200,0.1615302734375,-0.24416165053844452,0.19163085520267487,0.32301878929138184,0.11160392314195633,-0.43074339628219604,-0.8955471515655518,-0.028718143701553345,-0.019879281520843506,0.03449374437332153,0.9732126811162956,0.21967378758488892,0.06300673361318271,0.02511447332008966
1728328201350561000,0.17156103515625,-0.19389887154102325,0.17936429381370544,0.32278361916542053,0.11187959462404251,-0.42913922667503357,-0.8962826132774353,-0.008775919675827026,-0.03387358784675598,0.022411823272705078,0.9733534254492437,0.21868713538433227,0.06351878315838748,0.026917120170194275
1728328201360592100,0.181592041015625,-0.15929508209228516,0.2382851392030716,0.3579954206943512,0.11225440353155136,-0.42798900604248047,-0.89678555727005,0.016011007130146027,0.002268671989440918,0.014064669609069824,0.9734263201419835,0.21793386280636606,0.06412519176561597,0.02888007835294095
1728328201370623200,0.191623291015625,-0.16903194785118103,0.23846851289272308,0.32596635818481445,0.11299646645784378,-0.42689481377601624,-0.8972138166427612,0.02820838987827301,0.024077951908111572,0.007458627223968506,0.9734747689176642,0.21720361388366669,0.06492834997186658,0.030882902698287452
1728328201380654000,0.201654052734375,-0.1455620378255844,0.20522108674049377,0.3056917190551758,0.11367616057395935,-0.4258269965648651,-0.897635281085968,0.0019244551658630371,-0.0062715113162994385,0.022009730339050293,0.9735229287224166,0.21649698423534874,0.06566131498478844,0.03272430871016291
1728328201390684200,0.21168408203125,-0.11013926565647125,0.19747069478034973,0.32599300146102905,0.11413707584142685,-0.4250431954860687,-0.8979482054710388,-0.009629607200622559,-0.016576766967773438,0.02983003854751587,0.9735419037357919,0.2159486859643535,0.06627253085219575,0.0345014755533564
1728328201400715000,0.221715087890625,-0.08268766850233078,0.22702884674072266,0.3522067666053772,0.11462296545505524,-0.4245613217353821,-0.8981143236160278,0.007279522716999054,0.00965946912765503,0.020489871501922607,0.9735146598002815,0.21555177940734246,0.0669348974051717,0.03642104041171528
1728328201410746000,0.23174609375,-0.049606941640377045,0.22757698595523834,0.3894965946674347,0.11511361598968506,-0.4243984520435333,-0.8981285095214844,0.012571960687637329,0.009298205375671387,0.02303701639175415,0.9734389333130858,0.2153151421799941,0.06763967796016447,0.03848446299224289
1728328201420777000,0.24177685546875,-0.05969526246190071,0.22412073612213135,0.42746636271476746,0.11543341726064682,-0.42440804839134216,-0.8980829119682312,0.0071709901094436646,-0.011840850114822388,0.025264978408813477,0.973335925994905,0.21515930938924732,0.06830085181850104,0.04072779747509041
1728328201430808000,0.25180810546875,-0.06707068532705307,0.2233547568321228,0.47568342089653015,0.11554472148418427,-0.42435720562934875,-0.8980926275253296,0.013758286833763123,-0.012608855962753296,0.026388585567474365,0.9732323494845094,0.21495672504123528,0.06890049691207138,0.04318931438190345
1728328201440839200,0.261839111328125,-0.05540497601032257,0.24142776429653168,0.504259467124939,0.11554164439439774,-0.4243676960468292,-0.8980880975723267,0.016050174832344055,-0.01488715410232544,0.032029807567596436,0.9731078493411136,0.2147709117716509,0.06949397908025709,0.0458829030416213
1728328201450870000,0.2718701171875,-0.03626510500907898,0.2469562143087387,0.44076937437057495,0.11574872583150864,-0.4245324432849884,-0.8979835510253906,0.007923781871795654,-0.02160412073135376,0.0232887864112854,0.9729546153086529,0.21466905969903388,0.07018136960326632,0.04848823963095404
1728328201460901000,0.281901123046875,-0.0008799494244158268,0.2511759102344513,0.3955156207084656,0.11621864140033722,-0.4248579442501068,-0.8977689146995544,-0.010078474879264832,-0.01059749722480774,0.015185356140136719,0.9727826914421553,0.21466935370508927,0.0709409485071081,0.05077952347708376
1728328201470932000,0.291931884765625,0.004060081206262112,0.27662894129753113,0.39281755685806274,0.11693543195724487,-0.42540568113327026,-0.8974164128303528,-0.016181617975234985,0.007803022861480713,0.018723785877227783,0.972573678745747,0.21478717127064934,0.07182115320483665,0.05299966322965975
1728328201480962000,0.301962158203125,-0.06781277805566788,0.2598225474357605,0.3513129949569702,0.1177656278014183,-0.4255833029747009,-0.8972235321998596,-0.0013868212699890137,0.014175713062286377,0.024420857429504395,0.9724058034634788,0.2147073545964843,0.0727253339082998,0.0551249023866918
1728328201490993000,0.311992919921875,-0.1413564383983612,0.2481278032064438,0.3189510703086853,0.11862286925315857,-0.42503684759140015,-0.8973696231842041,-0.0054484084248542786,-0.008724838495254517,0.04620397090911865,0.9723313703510092,0.21424782119484945,0.07357339688338567,0.05706610065376061
1728328201501024000,0.32202392578125,-0.20713013410568237,0.2509281039237976,0.3145914673805237,0.11953045427799225,-0.4238496720790863,-0.8978106379508972,-0.008782140910625458,-0.016763269901275635,0.05035281181335449,0.9723325367078843,0.21344430044472243,0.07440574715360591,0.05894700262838932
1728328201511055000,0.33205517578125,-0.24910660088062286,0.24943843483924866,0.3142396807670593,0.12049567699432373,-0.42214661836624146,-0.8984837532043457,-0.013134807348251343,-0.016665756702423096,0.04151970148086548,0.9723899393136122,0.21235978853958035,0.07524251752078696,0.06082708871573265
1728328201521086200,0.342086181640625,-0.2791939079761505,0.24887065589427948,0.33265650272369385,0.12138392776250839,-0.42014944553375244,-0.8992999792098999,-0.0221712589263916,-0.02111956477165222,0.028908193111419678,0.9724769199754865,0.21111329529839887,0.07603417293780874,0.0627602013644176
1728328201531117300,0.352117431640625,-0.3269215226173401,0.2548983097076416,0.34860163927078247,0.12222441285848618,-0.41784459352493286,-0.9002594947814941,-0.026246607303619385,-0.02005225419998169,0.02826547622680664,0.9725889290269921,0.20969202623286518,0.07680829465355264,0.06481261852952758
1728328201541148200,0.362148193359375,-0.3455471396446228,0.24835170805454254,0.33513376116752625,0.12309814989566803,-0.41521155834198,-0.9013580083847046,-0.031316518783569336,-0.016947954893112183,0.027349889278411865,0.972731398361171,0.20809164519809883,0.07758140774615829,0.0668782057325949
1728328201551179300,0.37217919921875,-0.31016868352890015,0.23811671137809753,0.30590903759002686,0.12395592033863068,-0.41262567043304443,-0.9024273157119751,-0.03064839541912079,-0.01434585452079773,0.013206124305725098,0.9728704765731514,0.2065255818072501,0.07831688865334259,0.06882551702785188
1728328201561210000,0.382210205078125,-0.25228726863861084,0.22482727468013763,0.2802923619747162,0.12485864013433456,-0.4104384481906891,-0.903299868106842,-0.02039695531129837,0.007377445697784424,-0.007375121116638184,0.9729677630698955,0.20518515981205002,0.0790514333372551,0.07059562678601976
1728328201571240200,0.392240234375,-0.23939599096775055,0.22982150316238403,0.28763124346733093,0.1257636398077011,-0.4086092710494995,-0.9040033221244812,-0.006333068013191223,0.03060317039489746,-0.018909215927124023,0.9730231215088494,0.20404015592677222,0.07978696560069733,0.07230313332393455
1728328201581271300,0.402271240234375,-0.3012252449989319,0.21636268496513367,0.31956279277801514,0.12656807899475098,-0.40657687187194824,-0.9048070311546326,0.005557805299758911,0.02530542016029358,-0.013741493225097656,0.9730925337331461,0.20277905755771852,0.080480634391065,0.07412532872035338
1728328201591302100,0.41230224609375,-0.4392409026622772,0.18648627400398254,0.3217093050479889,0.12711764872074127,-0.4036632180213928,-0.9060337543487549,-0.00013399124145507812,-0.01026204228401184,0.007825195789337158,0.9732594454742429,0.2010469468081115,0.08101396347161195,0.07604581421217198
1728328201601333200,0.422333251953125,-0.6096975803375244,0.1378455013036728,0.3266790211200714,0.12730589509010315,-0.3992716670036316,-0.9079511761665344,-0.007783770561218262,-0.03030914068222046,0.0309523344039917,0.9735982756711635,0.19853858386063944,0.0812824582081715,0.07798743013063579
1728328201611364000,0.432364013671875,-0.6861058473587036,0.07606442272663116,0.39479631185531616,0.1268455535173416,-0.3937854766845703,-0.9104082584381104,0.005387142300605774,-0.02323734760284424,0.028084099292755127,0.9740569561306478,0.1954599120956624,0.081186772890484,0.08010728267569531
1728328201621395200,0.442395263671875,-0.7123826742172241,0.04240845888853073,0.4428815245628357,0.1257133036851883,-0.3879105746746063,-0.913083553314209,0.021366193890571594,-0.00927579402923584,0.00721508264541626,0.9745419854442349,0.1921823924656097,0.08077221691186824,0.08252194693513643
1728328201631426000,0.452426025390625,-0.6802167892456055,0.02856428176164627,0.3930372893810272,0.12442483007907867,-0.38202545046806335,-0.9157374501228333,0.0046798065304756165,0.014090180397033691,0.011837363243103027,0.9750176660296224,0.188917776697942,0.08025808309556376,0.08490802066733201
1728328201641457200,0.46245703125,-0.5881467461585999,0.009941862896084785,0.333284467458725,0.12324687093496323,-0.3766293525695801,-0.9181288480758667,-0.020051658153533936,0.028332114219665527,0.004844605922698975,0.9754527052366573,0.18594698518800615,0.07974519281407884,0.08692923041407584
1728328201651488000,0.472488037109375,-0.49343863129615784,0.018173161894083023,0.35846999287605286,0.1220606118440628,-0.3720729649066925,-0.9201428890228271,-0.011342808604240417,0.034762054681777954,-0.003837764263153076,0.9757973555248483,0.18343678764027932,0.07924327708303214,0.0888321036195748
1728328201661519000,0.48251904296875,-0.4815414547920227,0.030824188143014908,0.36938440799713135,0.12095997482538223,-0.36811426281929016,-0.9218788743019104,0.011013314127922058,0.03522837162017822,-0.0019339919090270996,0.9760573630304413,0.18123555874050315,0.07883051381362577,0.09083821865449633
1728328201671549200,0.492549072265625,-0.6765558123588562,0.004466243088245392,0.3696749806404114,0.11980970948934555,-0.36334028840065,-0.9239206910133362,0.011354871094226837,0.018674641847610474,0.017716526985168457,0.9763882443960795,0.17861096944411692,0.07834388237581537,0.09287891044587489
1728328201681580000,0.502580078125,-1.0406889915466309,-0.06778079271316528,0.38603663444519043,0.1182548925280571,-0.35587772727012634,-0.9270204305648804,0.025177747011184692,-0.0027191638946533203,0.06393754482269287,0.9769757692422603,0.17459461681275026,0.07750172174405312,0.09501930310364701
1728328201691611100,0.512611083984375,-1.386450171470642,-0.18280895054340363,0.5021954774856567,0.11552026122808456,-0.345022052526474,-0.9314584732055664,0.06570839136838913,-0.026148080825805664,0.09491068124771118,0.9778624061244953,0.16884438874302216,0.07591007139477886,0.09754233021657178
1728328201701642000,0.52264208984375,-1.6979334354400635,-0.280417799949646,0.5684821009635925,0.11148688942193985,-0.33123618364334106,-0.9369382262229919,0.10030512511730194,-0.0411546528339386,0.07960796356201172,0.9789544119455992,0.1616216402909098,0.07354811200623089,0.10058557347769585
1728328201711673000,0.532673095703125,-2.0826568603515625,-0.404707133769989,0.5537774562835693,0.10651799291372299,-0.314007431268692,-0.9434263706207275,0.0967443585395813,-0.038043469190597534,0.04994797706604004,0.9802827835013791,0.15270317978861164,0.0704880480718794,0.10372556309094855
1728328201721704000,0.542703857421875,-2.2122936248779297,-0.49668818712234497,0.604758620262146,0.10047736763954163,-0.2940133213996887,-0.9505053758621216,0.09810052812099457,-0.01715928316116333,0.07385748624801636,0.9817355456533524,0.14247206406877902,0.06670095090799547,0.10699647848397811
1728328201731735000,0.552735107421875,-2.0019795894622803,-0.5503921508789062,0.6405203342437744,0.0936296284198761,-0.2743586003780365,-0.9570584297180176,0.1086561530828476,-0.046228647232055664,0.037258684635162354,0.9830244307308016,0.13252682149410255,0.06250937620430289,0.11041861686172941
1728328201741766100,0.56276611328125,-1.893811821937561,-0.42963188886642456,0.5934303402900696,0.08704078197479248,-0.2560122311115265,-0.9627469182014465,0.08332361280918121,-0.12651044130325317,-0.02136862277984619,0.9840755980646414,0.12330837199852696,0.058494282621484726,0.11388037295535122
1728328201751797200,0.57279736328125,-1.8141313791275024,-0.5676444172859192,0.49272421002388,0.08110182732343674,-0.23935075104236603,-0.9675400257110596,0.02857835590839386,-0.23473991453647614,0.013408005237579346,0.9849898269809219,0.11502289136691718,0.0547696723775564,0.11646948798958391
1728328201761827000,0.5828271484375,-2.3950982093811035,-0.5798227787017822,0.8313262462615967,0.07405529916286469,-0.21937420964241028,-0.9728261828422546,0.06864491105079651,-0.22862392663955688,0.11570948362350464,0.985919102723182,0.10513129964333584,0.05034203954696426,0.1199027243576914
1728328201771858200,0.592858154296875,-2.688483715057373,-0.6768156290054321,1.1336944103240967,0.06581688672304153,-0.1949472278356552,-0.978602945804596,0.19933509826660156,-0.08984288573265076,0.2754932641983032,0.986731742767392,0.09305746531439811,0.0451534851212501,0.12514776480246528
1728328201781889300,0.60288916015625,-2.8235983848571777,-0.6720155477523804,1.2006648778915405,0.05700690671801567,-0.16859972476959229,-0.9840347170829773,0.23390191793441772,-0.141840398311615,0.24569249153137207,0.987311594085412,0.08012806874303019,0.039523779480142456,0.1312752567069771
1728328201791920000,0.612920166015625,-3.1295604705810547,-0.7611054182052612,1.1919760704040527,0.04802853986620903,-0.1399257332086563,-0.9889965057373047,0.21263736486434937,-0.22929127514362335,0.1621532440185547,0.9877251870492441,0.06616692712476589,0.03352154652859876,0.13746754485185428
1728328201801951200,0.622951171875,-3.624297618865967,-0.8267573714256287,1.2746118307113647,0.03866521641612053,-0.10693185031414032,-0.9935142397880554,0.21064813435077667,-0.22877684235572815,0.2062523365020752,0.9879660444853061,0.05020514878212662,0.02687588951602553,0.14380710904803043
1728328201811982000,0.632982177734375,-4.08861780166626,-0.997870147228241,1.4377986192703247,0.02840542234480381,-0.06877335160970688,-0.9972278475761414,0.23454929888248444,-0.1900157928466797,0.25160712003707886,0.9878638897712159,0.03187184167827367,0.019242330722126118,0.1507943111163797
1728328201822013200,0.64301318359375,-4.375887393951416,-1.0693267583847046,1.523167610168457,0.017341308295726776,-0.026634706184267998,-0.9994947910308838,0.2685320973396301,-0.17252308130264282,0.24128562211990356,0.9872510917991434,0.011777322876824913,0.010671951629500598,0.1583757140600108
1728328201832044000,0.6530439453125,-4.556633949279785,-1.1219481229782104,1.4948467016220093,0.006281031761318445,0.0179987121373415,-0.9998182654380798,0.2247217744588852,-0.14728648960590363,0.21946853399276733,0.9860828043909431,-0.00939623139553073,0.0016032265665370201,0.16598161452698487
1728328201842075100,0.6630751953125,-4.719245910644531,-1.1714006662368774,1.516094446182251,-0.004603185225278139,0.06443283706903458,-0.9979114532470703,0.19398000836372375,-0.09565237909555435,0.2023944854736328,0.9843166375960658,-0.03134472669003369,-0.007860880470930151,0.17342639188865586
1728328201852105200,0.673105224609375,-4.891577243804932,-1.1926579475402832,1.6101850271224976,-0.015011897310614586,0.11261816322803497,-0.9935249090194702,0.20594511926174164,-0.04047466814517975,0.20022052526474,0.9818212658982245,-0.05410143970867831,-0.01762293045654216,0.1810787172760185
1728328201862136000,0.683135986328125,-5.0753350257873535,-1.2126554250717163,1.6822443008422852,-0.024703435599803925,0.1623835265636444,-0.9864184260368347,0.21403448283672333,-0.028151988983154297,0.22900265455245972,0.9785054962945986,-0.07763883942696415,-0.027622320337935977,0.18904036865108217
1728328201872167200,0.693167236328125,-5.392711162567139,-1.2170697450637817,1.685538411140442,-0.03346741572022438,0.2142929583787918,-0.9761959314346313,0.20465576648712158,-0.04112100601196289,0.24952661991119385,0.9743130649860869,-0.10231527890078711,-0.037863246252182466,0.19700818802048195
1728328201882198000,0.703197998046875,-5.821722984313965,-1.2751452922821045,1.5659184455871582,-0.04155722260475159,0.2694075405597687,-0.9621291756629944,0.1919173151254654,-0.030821144580841064,0.24585109949111938,0.9691489007587941,-0.12873670008029264,-0.04860313295209994,0.20448762265839918
1728328201892229000,0.71322900390625,-6.134482383728027,-1.3777958154678345,1.322811245918274,-0.04992424324154854,0.3273419141769409,-0.9435861706733704,0.15467581152915955,0.03189575672149658,0.24934178590774536,0.9629879129842621,-0.1567725344671794,-0.06024355523051446,0.21082579146526645
1728328201902260000,0.723260009765625,-6.191634178161621,-1.4533212184906006,1.0896552801132202,-0.058909907937049866,0.3857995569705963,-0.9206998944282532,0.08930540084838867,0.12392032146453857,0.21679669618606567,0.95592389416428,-0.18539262900067485,-0.07266094997166221,0.21577656043864482
1728328201912291000,0.733291015625,-5.970201015472412,-1.415050983428955,0.9540976881980896,-0.0678064227104187,0.44197359681129456,-0.8944616913795471,0.04902283102273941,0.21336090564727783,0.14743715524673462,0.948152627061448,-0.2133407751825834,-0.08517554737681102,0.2196308128490896
1728328201922322000,0.743322021484375,-5.612356662750244,-1.340566873550415,0.9217445850372314,-0.0756121277809143,0.4937942624092102,-0.8662852048873901,0.03177359700202942,0.2904617190361023,0.06467998027801514,0.9398998322830373,-0.23964997833196652,-0.09708388962160765,0.2230046917297066
1728328201932353000,0.75335302734375,-5.340095520019531,-1.3094309568405151,0.8824301958084106,-0.08213353157043457,0.541205644607544,-0.8368695378303528,0.03356478363275528,0.31504136323928833,0.07228213548660278,0.9312945489222298,-0.26428146751637177,-0.10826144269597036,0.22610940185796446
1728328201942384000,0.763384033203125,-5.253549575805664,-1.2456897497177124,0.6943889260292053,-0.0881563052535057,0.5854277014732361,-0.805917501449585,0.005713038146495819,0.3184725046157837,0.15628981590270996,0.9223382115245139,-0.2878375992535278,-0.11912504924754787,0.2285852573784071
1728328201952414000,0.7734140625,-5.200183868408203,-1.1535998582839966,0.4854114055633545,-0.09409318119287491,0.627378523349762,-0.7730089426040649,-0.06847397983074188,0.3097096085548401,0.16659414768218994,0.913065601437849,-0.3108914564292663,-0.12977686453126447,0.22981718532966133
1728328201962445000,0.783445068359375,-5.203901290893555,-1.1498613357543945,0.3836384415626526,-0.0999813824892044,0.667178750038147,-0.7381574511528015,-0.12508578598499298,0.2692837119102478,0.14506351947784424,0.9034012150272392,-0.33352810255878657,-0.14028645113372737,0.2300983325672804
1728328201972476000,0.793475830078125,-5.278839111328125,-1.1162128448486328,0.3506411015987396,-0.10573183000087738,0.7053876519203186,-0.7008916735649109,-0.10158936679363251,0.21483945846557617,0.1921178698539734,0.893077788681296,-0.3560821935730222,-0.15086298046546026,0.22990889155444919
1728328201982507000,0.803507080078125,-5.235925674438477,-0.9720088243484497,0.2714064419269562,-0.11058510094881058,0.7417659163475037,-0.6614789366722107,-0.12053980678319931,0.1753178834915161,0.2529401183128357,0.882186379459565,-0.3786028438487723,-0.160998213297819,0.22909991842140337
1728328201992538000,0.8135380859375,-4.9882683753967285,-0.8316624164581299,0.2556019127368927,-0.11448461562395096,0.774997889995575,-0.621507465839386,-0.16971036791801453,0.12003690004348755,0.20413386821746826,0.8711443718930219,-0.40028390387962864,-0.17034979298324984,0.2277307577952867
1728328202002569200,0.8235693359375,-4.765799045562744,-0.7982037663459778,0.24203819036483765,-0.11732722818851471,0.804688572883606,-0.5819885730743408,-0.15263129770755768,0.09779256582260132,0.11850285530090332,0.8601250842472883,-0.42073001080019734,-0.17886303226082662,0.22622813673659597
1728328202012600000,0.83360009765625,-4.508199214935303,-0.7314777374267578,0.13737569749355316,-0.1200617253780365,0.8311814069747925,-0.5428836941719055,-0.12075251340866089,0.1727706789970398,0.11020559072494507,0.8491554034390888,-0.4399907066780773,-0.1869928527009622,0.2244482179460618
1728328202022631200,0.843631103515625,-3.964247703552246,-0.7231729626655579,0.09106491506099701,-0.12295056879520416,0.8536666631698608,-0.5060992240905762,-0.17055225372314453,0.24006807804107666,0.05346256494522095,0.8387834863304507,-0.45726661997830975,-0.19457035614519633,0.22246783875996315
1728328202032662300,0.853662353515625,-3.479651689529419,-0.6451570987701416,0.1728721708059311,-0.12519153952598572,0.8720590472221375,-0.47311773896217346,-0.17185135185718536,0.2112845778465271,-0.01089102029800415,0.829308967208189,-0.4721610118212621,-0.20125880127524096,0.22092031643976986
1728328202042693000,0.863693115234375,-3.083932876586914,-0.6163291931152344,0.273580402135849,-0.12607631087303162,0.8874268531799316,-0.4433719515800476,-0.13002724945545197,0.16913771629333496,0.006512820720672607,0.8205410482616359,-0.48527577953651324,-0.20693341370910476,0.2199969729737135
1728328202052723200,0.87372314453125,-2.847454309463501,-0.613150954246521,0.3282252550125122,-0.12595193088054657,0.9005244970321655,-0.4161633253097534,-0.10695824027061462,0.13316696882247925,0.004679590463638306,0.8122930835284747,-0.49699059734886025,-0.2119402930861428,0.2196855751986567
1728328202062754000,0.883754150390625,-2.702648639678955,-0.5661828517913818,0.31391316652297974,-0.1253882646560669,0.9121835827827454,-0.3901269733905792,-0.07389156520366669,0.08183503150939941,0.03970891237258911,0.8042911312926753,-0.5079669190886293,-0.21657820547837212,0.21949815121933533
1728328202072785200,0.89378515625,-2.547901153564453,-0.5056182146072388,0.2814822494983673,-0.12467535585165024,0.9224779605865479,-0.3653637170791626,-0.11577267944812775,0.004234135150909424,0.010200202465057373,0.7966433718714268,-0.5182201614754055,-0.22083025226154493,0.21918343985488434
1728328202082816000,0.90381591796875,-2.554788827896118,-0.5301401019096375,0.27182164788246155,-0.12391579151153564,0.931821882724762,-0.3411058187484741,-0.15499965846538544,-0.04145610332489014,-0.04098954796791077,0.7891018941063332,-0.5280641937250841,-0.22493400147717393,0.21879527561342157
1728328202092847000,0.91384716796875,-2.7006144523620605,-0.559842050075531,0.265218585729599,-0.12319445610046387,0.94080650806427,-0.3157634735107422,-0.14502458274364471,-0.008021354675292969,-0.003129899501800537,0.7811631644904371,-0.5381108606835486,-0.2292486834738546,0.21832564361511447
1728328202102878200,0.923878173828125,-2.8809902667999268,-0.5841575264930725,0.19776926934719086,-0.12269590049982071,0.949542760848999,-0.2886424660682678,-0.12559515237808228,0.008770346641540527,0.013496071100234985,0.7726497010142116,-0.548615824435591,-0.23387911776280249,0.21756331953552452
1728328202112909000,0.933908935546875,-3.244471788406372,-0.5857774615287781,0.09732814133167267,-0.1228940337896347,0.9580961465835571,-0.2587449550628662,-0.1360781490802765,-0.0050778985023498535,0.004258960485458374,0.7633208889292025,-0.5599014950065722,-0.23903521406344208,0.21613365401514778
1728328202122940200,0.943940185546875,-3.583101272583008,-0.646677553653717,0.06082339212298393,-0.12365373224020004,0.966498076915741,-0.2249259054660797,-0.16670581698417664,-0.020941197872161865,0.03138342499732971,0.7527700734728472,-0.5723507972573393,-0.24485018314847407,0.21401039907618857
1728328202132971000,0.953970947265625,-3.7527358531951904,-0.7328889966011047,0.07292240113019943,-0.12445705384016037,0.9741896390914917,-0.18832240998744965,-0.1462339162826538,-0.04265564680099487,0.025770604610443115,0.7411792894288116,-0.5854489128644527,-0.25117397880088493,0.21169468824188814
1728328202143001000,0.9640009765625,-4.0546064376831055,-0.7962972521781921,0.19156916439533234,-0.12447890639305115,0.9809370040893555,-0.14922451972961426,-0.07538075000047684,-0.020548701286315918,0.03731662034988403,0.7285083963338989,-0.5991370078304467,-0.2577257889457613,0.209494564920202
1728328202153032200,0.9740322265625,-4.263065338134766,-1.0245893001556396,0.029329383745789528,-0.12425214052200317,0.9864864945411682,-0.10679927468299866,0.01647927612066269,0.022409498691558838,-0.08254694938659668,0.7144545496476871,-0.6135238195206448,-0.2649318534038699,0.20725470209578847
1728328202163063000,0.98406298828125,-4.045504093170166,-1.183173418045044,-0.24531415104866028,-0.12644091248512268,0.989905595779419,-0.0640304833650589,-0.006463170051574707,0.0682305097579956,-0.3171950578689575,0.7000998698734193,-0.6270105139595541,-0.2735737096123779,0.20463525962305312
1728328202173094100,0.99409423828125,-3.7020890712738037,-1.2648229598999023,-0.2426121085882187,-0.1294841766357422,0.9912912249565125,-0.02399311400949955,-0.075502410531044,0.12986356019973755,-0.37175875902175903,0.6863528235750954,-0.6388554882394989,-0.28260769349939036,0.20227813512561366
1728328202183125000,1.004125,-3.3821516036987305,-1.3462741374969482,-0.28488394618034363,-0.13213452696800232,0.9911472797393799,0.012957331724464893,-0.031180337071418762,0.17970556020736694,-0.30093634128570557,0.6732905733990306,-0.6492491180089874,-0.2914691208401398,0.2005026179317704
1728328202193156000,1.014156005859375,-3.112579345703125,-1.4095454216003418,-0.4065414071083069,-0.13508225977420807,0.9897216558456421,0.046947769820690155,-0.03541947901248932,0.16150826215744019,-0.22446846961975098,0.6609737804024814,-0.6581856546473133,-0.300442221095232,0.19909777392224295
1728328202203187000,1.02418701171875,-2.9063007831573486,-1.3764798641204834,-0.4837659001350403,-0.13863259553909302,0.9872121810913086,0.0786963477730751,-0.04390832781791687,0.1306924819946289,-0.10669613629579544,0.6492879073138689,-0.6659912112526852,-0.30952201789562145,0.1976791956655094
1728328202213218300,1.03421826171875,-2.8426737785339355,-1.4064197540283203,-0.5682764649391174,-0.1424914002418518,0.9837749004364014,0.10901036858558655,-0.07790657877922058,0.12695813179016113,-0.0464949756860733,0.6379904449651367,-0.6730644957577976,-0.31857396225178153,0.19612004752388504
1728328202223249200,1.044249267578125,-2.6989290714263916,-1.4028493165969849,-0.6463925838470459,-0.14681804180145264,0.9794315099716187,0.13841508328914642,-0.10006922483444214,0.19361859560012817,-0.027178406715393066,0.6268939023603627,-0.6795105333310606,-0.3278307163047213,0.19441355691740234
1728328202233280300,1.0542802734375,-2.7742960453033447,-1.3541667461395264,-0.7217523455619812,-0.1514180302619934,0.9742459058761597,0.1670861393213272,-0.08474229276180267,0.23069500923156738,-0.054613471031188965,0.6159751428683272,-0.6855123906039774,-0.3370694763863927,0.19243620286617527
1728328202243310300,1.064310302734375,-2.836872100830078,-1.4731874465942383,-0.7696982622146606,-0.15607361495494843,0.9679469466209412,0.19677479565143585,-0.06000615656375885,0.20842963457107544,-0.0900852382183075,0.604503876456891,-0.691508743946352,-0.34670311748294114,0.19023124855319118
1728328202253341200,1.074341064453125,-2.8233509063720703,-1.4672532081604004,-0.7922488451004028,-0.16046099364757538,0.9607074856758118,0.22648070752620697,-0.05207870900630951,0.09625363349914551,-0.11896719038486481,0.5927907060534728,-0.6972358674677056,-0.35651436915315404,0.18803952953882067
1728328202263372300,1.084372314453125,-2.5411105155944824,-1.4770890474319458,-0.9616717100143433,-0.16530366241931915,0.9527258276939392,0.25492772459983826,-0.046961382031440735,0.039186954498291016,-0.15287691354751587,0.5814162616169435,-0.7022545728846331,-0.3664728875271034,0.18571821421004361
1728328202273403100,1.094403076171875,-1.88542640209198,-1.3717018365859985,-1.0032063722610474,-0.17092935740947723,0.9451121091842651,0.27847230434417725,-0.07134976983070374,0.16403424739837646,-0.1254875361919403,0.571831926180331,-0.7054931625205314,-0.3761855289092084,0.1837724670440512
1728328202283434200,1.104434326171875,-1.293121576309204,-1.173913598060608,-0.9158722758293152,-0.17635758221149445,0.938876748085022,0.29565000534057617,-0.08411002159118652,0.20162642002105713,-0.08082136511802673,0.5646819521959813,-0.7070060011185532,-0.38466545900620097,0.18250884480115354
1728328202293465000,1.114465087890625,-0.7261965870857239,-0.9501277208328247,-0.7530567049980164,-0.18104638159275055,0.9343116879463196,0.3070574402809143,-0.054259464144706726,0.15618830919265747,0.08826744556427002,0.5597973978636611,-0.7072554253353733,-0.391559047931707,0.1819293832064092
1728328202303496200,1.12449609375,-0.29488861560821533,-0.7626545429229736,-0.6111952066421509,-0.18466617166996002,0.9315643906593323,0.31318745017051697,-0.0003314167261123657,0.06259149312973022,0.21881026029586792,0.5569942658016458,-0.7065196268068046,-0.39676660583214135,0.18210907974348567
1728328202313527000,1.134527099609375,-0.21466439962387085,-0.6239703297615051,-0.5488620400428772,-0.18796031177043915,0.9297194480895996,0.31669119000434875,0.01930481195449829,-0.019715547561645508,0.21022549271583557,0.5553187231758676,-0.7053958983046232,-0.40095163913351983,0.18241642753913404
1728328202323558100,1.14455810546875,-0.2763323187828064,-0.6649326682090759,-0.3868851363658905,-0.19019809365272522,0.9280728101730347,0.3201659321784973,-0.024325326085090637,-0.027422547340393066,0.1318911612033844,0.5535761339055496,-0.7045275455409378,-0.4046281124434397,0.18295015393532824
1728328202333588200,1.154588134765625,-0.43580904603004456,-0.6747296452522278,-0.40626204013824463,-0.19174277782440186,0.92620849609375,0.32461223006248474,0.009064465761184692,-0.1065824031829834,0.01933625340461731,0.5513758594571102,-0.7040407061326178,-0.4082068026053766,0.18351777922589718
1728328202343619000,1.164619140625,-0.6964514851570129,-0.7180946469306946,-0.3285914957523346,-0.19284400343894958,0.9236583709716797,0.3311598300933838,-0.0036587566137313843,-0.14977818727493286,0.02229487895965576,0.548298046433304,-0.7041913211043436,-0.41193991631819155,0.1838191532448146
1728328202353650200,1.174650146484375,-0.8370999693870544,-0.7561099529266357,-0.3233506381511688,-0.19336587190628052,0.9203972816467285,0.3398219048976898,0.06027863919734955,-0.13365399837493896,-0.023735880851745605,0.5443031756704205,-0.7049806781795254,-0.41582831676657567,0.18391105528629814
1728328202363681000,1.184680908203125,-0.9145862460136414,-0.8581027984619141,-0.3142772614955902,-0.19349393248558044,0.9166995882987976,0.3496030271053314,0.09248070418834686,-0.06045252084732056,-0.11530426144599915,0.5397495176630236,-0.705996921257629,-0.41996412370942177,0.18403545450966943
1728328202373712100,1.194712158203125,-0.8201838135719299,-0.9623633623123169,-0.47643792629241943,-0.1937454491853714,0.9129049181938171,0.3592602610588074,0.11389614641666412,0.06815910339355469,-0.18112897872924805,0.5351290706323341,-0.7066723798979601,-0.4245518484360359,0.1844097941884328
1728328202383743000,1.204742919921875,-0.6659713387489319,-0.9950776100158691,-0.6256479024887085,-0.19538086652755737,0.9090533256530762,0.36803358793258667,0.0422588586807251,0.19136488437652588,-0.20845699310302734,0.5309040353878679,-0.7065686840424122,-0.42985751663771016,0.18472748249186702
1728328202393774000,1.214774169921875,-0.22841690480709076,-1.0520429611206055,-0.659380316734314,-0.1973498910665512,0.906069278717041,0.3742881715297699,0.002800285816192627,0.3712592124938965,-0.13406899571418762,0.527618119106647,-0.7054614757749927,-0.4352794424579951,0.18567473931565787
1728328202403805000,1.224804931640625,0.1552753746509552,-1.1104683876037598,-0.6675066351890564,-0.1994180828332901,0.9047228693962097,0.37644273042678833,0.03949066996574402,0.3576825261116028,-0.16051548719406128,0.525880966802667,-0.7029787040264086,-0.44050234256899023,0.18769097321435388
1728328202413836000,1.2348359375,0.05352336913347244,-1.113861083984375,-0.5960716009140015,-0.20089095830917358,0.9039068222045898,0.37761810421943665,-0.008856400847434998,0.12969303131103516,-0.14096945524215698,0.5244105152943747,-0.7002198626916315,-0.44553472947726225,0.1902225664543655
1728328202423866000,1.2448662109375,0.008104224689304829,-1.1308512687683105,-0.5996271967887878,-0.20207755267620087,0.9028002619743347,0.37962669134140015,0.008107781410217285,-0.05346560478210449,-0.050463974475860596,0.5225674490144037,-0.6977184141920234,-0.4505578275072297,0.19263943564908664
1728328202433897000,1.25489697265625,-0.07879285514354706,-1.156886100769043,-0.5581285357475281,-0.20295457541942596,0.9015226364135742,0.3821874260902405,-0.016787365078926086,-0.13223516941070557,-0.08927944302558899,0.5204403225751506,-0.6953564496874265,-0.4556019284429119,0.19506014103539518
1728328202443928000,1.264927978515625,-0.053602948784828186,-1.1224234104156494,-0.5257236957550049,-0.20342350006103516,0.9000847935676575,0.38531383872032166,-0.026099294424057007,-0.09120088815689087,-0.06802242994308472,0.5180334461033426,-0.6932135547092967,-0.46055606478140065,0.197445205048243
1728328202453959000,1.274958984375,-0.04635728523135185,-1.1381556987762451,-0.5582137107849121,-0.2038775235414505,0.8988537192344666,0.387938916683197,-0.022135764360427856,-0.03320711851119995,-0.05473250150680542,0.5158177476937273,-0.6909242311621615,-0.4653957142770165,0.19990702303549143
1728328202463990300,1.284990234375,-0.15011084079742432,-1.1043732166290283,-0.5784623026847839,-0.2046286165714264,0.8972968459129333,0.39113396406173706,-0.017005354166030884,-0.031085848808288574,-0.026921778917312622,0.5134079131507268,-0.6886953269933423,-0.470388919127982,0.20210255713556877
1728328202474021000,1.295021240234375,-0.12449949234724045,-1.0177123546600342,-0.49449869990348816,-0.2053452879190445,0.8955938220024109,0.39464661478996277,-0.023170456290245056,-0.053491413593292236,0.06146940588951111,0.5109314953367725,-0.6866916729230598,-0.47516087239860966,0.204024622562257
1728328202484052200,1.30505224609375,0.017098719254136086,-0.9254741072654724,-0.3779028356075287,-0.2053157240152359,0.8945077061653137,0.3971170485019684,-0.010001122951507568,-0.07689589262008667,0.10868144035339355,0.5088662548933636,-0.6848082228904337,-0.4791619953268889,0.20614750673415014
1728328202494083000,1.3150830078125,0.14085282385349274,-0.7920545935630798,-0.3456895053386688,-0.20513933897018433,0.8940722346305847,0.398187518119812,-0.03723137080669403,-0.07021939754486084,0.19861441850662231,0.5074397380650416,-0.6828471069176885,-0.48250760763567213,0.20835391098254197
1728328202504114200,1.3251142578125,0.2792370617389679,-0.7055817246437073,-0.28168442845344543,-0.20497861504554749,0.8942655920982361,0.39783594012260437,-0.11716501414775848,-0.07819485664367676,0.23587703704833984,0.5066754739611408,-0.6807594295697128,-0.48526752524155475,0.21062336723123654
1728328202514145000,1.33514501953125,0.44003766775131226,-0.6392443776130676,-0.24355487525463104,-0.20461907982826233,0.895202100276947,0.3959098160266876,-0.12251415848731995,-0.08932429552078247,0.19249972701072693,0.5065650189444252,-0.6784771077330249,-0.4874666407482316,0.21315974823237488
1728328202524175000,1.345175048828125,0.4102233052253723,-0.6215311884880066,-0.23030617833137512,-0.20423071086406708,0.896474301815033,0.393222451210022,-0.1260305792093277,-0.052770018577575684,0.1363491714000702,0.50678667106246,-0.6761200837439395,-0.48935963489452666,0.21576874771303342
1728328202534206200,1.355206298828125,0.07301657646894455,-0.6578792333602905,-0.3408127427101135,-0.2042246311903,0.8969390988349915,0.3921649158000946,-0.09924226999282837,-0.0019498467445373535,0.06416469812393188,0.5064107911657483,-0.6740734492359259,-0.49163750517753363,0.21786679493874397
1728328202544237000,1.365237060546875,-0.32086360454559326,-0.7170749306678772,-0.5152468085289001,-0.2053418904542923,0.8955164551734924,0.39482352137565613,-0.08106568455696106,0.028968095779418945,-0.01040869951248169,0.5047052735744753,-0.6726113732877038,-0.4949805089144576,0.21877169653563225
1728328202554268200,1.37526806640625,-0.32001885771751404,-0.7755302786827087,-0.6359546184539795,-0.20761433243751526,0.8929122686386108,0.3995056748390198,-0.08102105557918549,0.08932685852050781,-0.06707742810249329,0.5023087760589645,-0.671218408238726,-0.49921807815265345,0.21893686977698346
1728328202564299000,1.385299072265625,0.05581415817141533,-0.8427947759628296,-0.6703463792800903,-0.21023821830749512,0.8909375071525574,0.40252986550331116,-0.06263473629951477,0.15528130531311035,-0.132937490940094,0.5004971316986195,-0.6690491184649275,-0.5036250750679634,0.2196308060791627
1728328202574330000,1.395330078125,0.5573672652244568,-0.8983954787254333,-0.6523125171661377,-0.21263666450977325,0.890784740447998,0.40160733461380005,-0.02485118806362152,0.19730430841445923,-0.1715656816959381,0.5000551246816786,-0.6656237652299245,-0.507689535613042,0.22167841233076754
1728328202584361000,1.40536083984375,0.8704037666320801,-0.8764204978942871,-0.621953547000885,-0.21475562453269958,0.8923495411872864,0.3969794511795044,-0.013073429465293884,0.15222150087356567,-0.13115596771240234,0.5009196762070739,-0.6611582369021076,-0.5112333225880465,0.22492197543361492
1728328202594392000,1.41539208984375,1.0178147554397583,-0.7841843962669373,-0.5966391563415527,-0.21692368388175964,0.894777238368988,0.3902800977230072,-0.021815434098243713,0.047437965869903564,0.0005893111228942871,0.5026045180924197,-0.6562591279289662,-0.5142606381720516,0.22858024959605402
1728328202604423200,1.425423095703125,1.196567177772522,-0.715090274810791,-0.5733751058578491,-0.21927671134471893,0.8977848887443542,0.38196876645088196,-0.0063855648040771484,-0.001773536205291748,0.0979660153388977,0.5049771611780387,-0.6510981720730569,-0.516774175336286,0.23240857532021908
1728328202614453000,1.435452880859375,1.3508824110031128,-0.7188417911529541,-0.5344465970993042,-0.22160005569458008,0.901383638381958,0.3720235824584961,0.030819296836853027,0.019499778747558594,0.10881152749061584,0.5079309933386816,-0.6455701284788642,-0.5188940144965998,0.23663165446503737
1728328202624484000,1.445484130859375,1.4483075141906738,-0.7353813648223877,-0.5174298286437988,-0.2236616611480713,0.9053876399993896,0.36090078949928284,0.05341923236846924,0.03324174880981445,0.08709743618965149,0.5111925826619333,-0.6397357614674993,-0.5207576694862708,0.24131311359835186
1728328202634515000,1.455514892578125,1.3977646827697754,-0.7406035661697388,-0.5073361992835999,-0.22569316625595093,0.9093429446220398,0.34951165318489075,0.04730258882045746,-0.003703176975250244,0.054373353719711304,0.5144678027820591,-0.6338061222290083,-0.522537685823931,0.24610402150232819
1728328202644546000,1.465546142578125,1.2720450162887573,-0.7533448934555054,-0.5188956260681152,-0.22778423130512238,0.9127932786941528,0.3390028476715088,0.030961081385612488,-0.04031097888946533,0.06607228517532349,0.5173713534465948,-0.6280796597961158,-0.5244209762050784,0.2506501698612777
1728328202654577000,1.475576904296875,1.2708021402359009,-0.7566415667533875,-0.5478689670562744,-0.2301502227783203,0.9157845377922058,0.32919546961784363,0.009508103132247925,-0.02181786298751831,0.08413463830947876,0.5200107558706564,-0.6224536736143411,-0.5264495802439533,0.2549335609077809
1728328202664608000,1.48560791015625,1.4123787879943848,-0.8050147294998169,-0.556124210357666,-0.23270784318447113,0.9188647866249084,0.3186448812484741,-0.01662081480026245,0.021458029747009277,0.035771071910858154,0.5228310452797298,-0.6164628206806037,-0.5284846601096234,0.2594710669470503
1728328202674639000,1.49563916015625,1.511167049407959,-0.8464810848236084,-0.5461661219596863,-0.23519039154052734,0.9221881031990051,0.30700966715812683,-0.05405527353286743,0.04193854331970215,0.014050692319869995,0.5258745875139731,-0.6100392314812878,-0.5304309252464299,0.2644829068062301
1728328202684670200,1.505670166015625,1.4228864908218384,-0.766935408115387,-0.5293594598770142,-0.23775652050971985,0.9253481030464172,0.29530197381973267,-0.09306937456130981,0.011892616748809814,0.05298006534576416,0.5289192245076484,-0.6036272077161746,-0.5322454188297235,0.2694321458801534
1728328202694701300,1.515701416015625,1.451689600944519,-0.7668179869651794,-0.5087055563926697,-0.240356907248497,0.9282736778259277,0.28379082679748535,-0.10493433475494385,-0.06660962104797363,0.05048361420631409,0.5319173769178064,-0.5974038205331744,-0.5338577365740179,0.27416923710747887
1728328202704732200,1.525732177734375,1.3436920642852783,-0.7882708311080933,-0.5122462511062622,-0.2429739534854889,0.930964469909668,0.2725239098072052,-0.07273048162460327,-0.09926879405975342,0.02509891986846924,0.5347381614523629,-0.5911576253886175,-0.5355320809925307,0.2789145475028362
1728328202714762200,1.53576220703125,1.2597516775131226,-0.6879501342773438,-0.5258123874664307,-0.24577587842941284,0.9331670999526978,0.2622859477996826,-0.06413024663925171,-0.005707144737243652,0.12023678421974182,0.5372680657100312,-0.5852643686688311,-0.5372230402033972,0.2831965413064736
1728328202724793000,1.54579296875,1.3572471141815186,-0.6441368460655212,-0.5918006896972656,-0.24934335052967072,0.9351509809494019,0.25163692235946655,-0.09938111901283264,0.059600234031677246,0.13764551281929016,0.5401275529304096,-0.5792728710813524,-0.5387591322920695,0.28713061145070756
1728328202734824200,1.55582421875,1.3718587160110474,-0.6084978580474854,-0.5870424509048462,-0.25339627265930176,0.9370212554931641,0.24037891626358032,-0.1396549940109253,0.05592942237854004,0.07297578454017639,0.5432397361281434,-0.5730222304133508,-0.5402175349497805,0.29103494559994997
1728328202744855000,1.56585498046875,1.3518861532211304,-0.55771404504776,-0.547908365726471,-0.25734660029411316,0.9387875199317932,0.2290225625038147,-0.1250845491886139,0.04665583372116089,0.06850877404212952,0.5464009186481377,-0.5669116380597898,-0.5414078618089048,0.2948474487296381
1728328202754886100,1.57588623046875,1.2200480699539185,-0.5123886466026306,-0.5707985162734985,-0.26142409443855286,0.9402371048927307,0.2182023823261261,-0.1271868646144867,0.007486522197723389,0.07449188828468323,0.5494409789145687,-0.5610252384989172,-0.5425420441595612,0.2983516170165106
1728328202764917200,1.585917236328125,1.0413681268692017,-0.42378050088882446,-0.5569015741348267,-0.26578250527381897,0.9411436915397644,0.20882712304592133,-0.16152474284172058,-0.0667995810508728,0.12729361653327942,0.552160823057762,-0.5556509487298119,-0.5437514001108464,0.3011728363543696
1728328202774948000,1.595947998046875,0.942274272441864,-0.30750399827957153,-0.5131850242614746,-0.270104318857193,0.941738486289978,0.20043137669563293,-0.16323009133338928,-0.12499642372131348,0.143715500831604,0.5547376694828039,-0.5508825078394198,-0.5447422763772587,0.303398442846852
1728328202784979200,1.605979248046875,0.9039710760116577,-0.26550647616386414,-0.5317783951759338,-0.2744830548763275,0.9421152472496033,0.19255761802196503,-0.13124826550483704,-0.08010029792785645,0.130242258310318,0.5572694151784398,-0.5464516383439568,-0.5455908883671241,0.30524126149109
1728328202795010000,1.616010009765625,1.0056432485580444,-0.2208314836025238,-0.5243050456047058,-0.2790517210960388,0.94244384765625,0.1842016875743866,-0.09973257780075073,0.03985607624053955,0.11590826511383057,0.5600362495847769,-0.541958887072775,-0.5462429939036246,0.30701595301855433
1728328202805040000,1.6260400390625,1.0974783897399902,-0.17685842514038086,-0.4974052608013153,-0.2835234999656677,0.9429019689559937,0.17478734254837036,-0.07510387897491455,0.06602448225021362,0.07069621980190277,0.5631303481226306,-0.5372716700385578,-0.5465645642257255,0.3090156245083048
1728328202815071200,1.6360712890625,1.1124460697174072,-0.10705693066120148,-0.481619656085968,-0.28792691230773926,0.943383514881134,0.1646997630596161,-0.061392635107040405,0.04959756135940552,0.07902896404266357,0.5664800633367316,-0.532561568336754,-0.546560205874644,0.3110476110530586
1728328202825102000,1.64610205078125,1.0631864070892334,-0.06920409202575684,-0.48709189891815186,-0.2923632860183716,0.9437241554260254,0.15462467074394226,-0.07189461588859558,0.028230249881744385,0.0867694616317749,0.5699022989512953,-0.5279942156616115,-0.5463830583155106,0.312888491856187
1728328202835133200,1.65613330078125,1.0833334922790527,-0.026385944336652756,-0.5002939701080322,-0.29698362946510315,0.9438601732254028,0.14466911554336548,-0.06785410642623901,-0.004605293273925781,0.05335962772369385,0.5733724772134434,-0.5235192053493741,-0.5461338661136931,0.3144990761776002
1728328202845164000,1.6661640625,1.2317596673965454,-0.05675477162003517,-0.5121016502380371,-0.3017290234565735,0.9439489841461182,0.13386750221252441,-0.029280006885528564,-0.0028476715087890625,-0.01048479974269867,0.5770764850192082,-0.5187334498510987,-0.5457557703734077,0.31630562303645776
1728328202855195100,1.676195068359375,1.4000208377838135,-0.047343261539936066,-0.5276781916618347,-0.30659446120262146,0.9440435767173767,0.12158180773258209,0.0025476813316345215,0.03673058748245239,0.018906012177467346,0.5811445588772063,-0.5133737714146898,-0.5451956309067142,0.3185598085340238
1728328202865226000,1.68622607421875,1.4040004014968872,0.05566008388996124,-0.5278646349906921,-0.3116098642349243,0.9440342783927917,0.10816200822591782,0.0033517181873321533,0.10781526565551758,0.08724212646484375,0.5856303409968118,-0.5077931987813564,-0.5442674643889066,0.32086803317525664
1728328202875257000,1.696257080078125,1.277531623840332,0.1499098390340805,-0.5259950757026672,-0.3167010247707367,0.9437494874000549,0.09506835788488388,-0.0020704567432403564,0.09171217679977417,0.13302017748355865,0.5901765519465584,-0.5025441244402696,-0.5431239115967225,0.3227348069713812
1728328202885288000,1.706287841796875,1.0481735467910767,0.2149074822664261,-0.5357635617256165,-0.3219013214111328,0.9430814981460571,0.08352898806333542,0.01561155915260315,0.012042522430419922,0.13726580142974854,0.5944436450300287,-0.49795806372339513,-0.5420352960892458,0.32384006980892716
1728328202895319000,1.716319091796875,1.1759871244430542,0.17867010831832886,-0.5692663788795471,-0.3272949159145355,0.9421244263648987,0.0726618766784668,0.03869011998176575,-0.015519201755523682,0.11383115500211716,0.5985897062608259,-0.4935727685357155,-0.5410331413528428,0.32459125786467874
1728328202905349000,1.72634912109375,1.614610195159912,0.09283216297626495,-0.5462188720703125,-0.33272814750671387,0.9411656856536865,0.05915609374642372,0.042383819818496704,0.025417685508728027,0.036959171295166016,0.6032735792548202,-0.4880780239248912,-0.5397757762683086,0.32631747513570847
1728328202915380000,1.7363798828125,2.0236358642578125,0.07732191681861877,-0.4380170404911041,-0.3373928666114807,0.9404481649398804,0.0415196418762207,0.06038469076156616,0.04342353343963623,-0.08929479122161865,0.6087855627563049,-0.4813184565483893,-0.5376731021559925,0.3295763811945432
1728328202925411000,1.7464111328125,2.0097012519836426,0.012132525444030762,-0.5007262229919434,-0.34176915884017944,0.9395277500152588,0.021949566900730133,0.08719140291213989,0.009843707084655762,-0.1113506555557251,0.6146117840884782,-0.473836730324167,-0.5352135426680594,0.3335832047756635
1728328202935442200,1.756442138671875,1.451784372329712,0.013049505650997162,-0.5078794360160828,-0.34663668274879456,0.9379838705062866,0.005423587281256914,0.04493981599807739,-0.02553880214691162,0.05214798450469971,0.6196291666473519,-0.46703224675891086,-0.5334722806358763,0.33667192583638333
1728328202945473300,1.766473388671875,0.7120618224143982,0.05198518931865692,-0.3983311355113983,-0.3509206473827362,0.9363927841186523,-0.0048614307306706905,0.026808589696884155,-0.13161355257034302,0.19297188520431519,0.6230101511170454,-0.4624989380400478,-0.5326011799497318,0.3380669655953182
1728328202955504000,1.776504150390625,0.13331380486488342,0.04813052713871002,-0.3972568213939667,-0.3545592427253723,0.9349920749664307,-0.008828295394778252,0.03453657031059265,-0.2699681520462036,0.22200894355773926,0.6247263958144662,-0.4602687847447209,-0.5326710976178134,0.33783318879352026
1728328202965535200,1.78653515625,-0.27985936403274536,0.09005454182624817,-0.44549280405044556,-0.3585321009159088,0.9334808588027954,-0.008276472799479961,0.0033836960792541504,-0.27942800521850586,0.2061830759048462,0.6254302544967034,-0.4595147654613099,-0.5335803069987984,0.3361180797039042
1728328202975566000,1.796566162109375,-0.35116690397262573,0.15553486347198486,-0.4546988308429718,-0.36277052760124207,0.9318622946739197,-0.005492130760103464,-0.030341684818267822,-0.13611650466918945,0.1875905990600586,0.6257252713985532,-0.459586247193666,-0.5348218543672978,0.3334875253747687
1728328202985597200,1.80659716796875,-0.054396238178014755,0.19913959503173828,-0.45667514204978943,-0.36704298853874207,0.9301946759223938,-0.004151976201683283,-0.03382071852684021,0.011791348457336426,0.1312119960784912,0.6264705915264882,-0.45931385748772213,-0.5356816145855775,0.3310748772681674
1728328202995627300,1.816627197265625,0.1272766888141632,0.30363768339157104,-0.4521315395832062,-0.3712523281574249,0.9285154342651367,-0.005581412930041552,-0.021875202655792236,0.11442285776138306,0.12095320224761963,0.6280117331543846,-0.45833299027565455,-0.5358546104576668,0.3292296646622225
1728328203005658000,1.826658203125,0.06983230262994766,0.4321993887424469,-0.508606493473053,-0.3756782114505768,0.926716148853302,-0.007969984784722328,-0.0070123374462127686,0.20437222719192505,0.20650219917297363,0.6300409676254516,-0.45731727435776076,-0.5356079892393163,0.32715990175001175
1728328203015689200,1.836689208984375,0.03199051693081856,0.4854791462421417,-0.6097363233566284,-0.3808492124080658,0.9245827198028564,-0.010058795101940632,-0.00889095664024353,0.19747257232666016,0.20129728317260742,0.6322888567767294,-0.4564612006802202,-0.535363217455476,0.324407845390463
1728328203025720000,1.846719970703125,0.32278531789779663,0.3502478301525116,-0.6476818323135376,-0.3867063820362091,0.9221097230911255,-0.013119667768478394,-0.012112706899642944,0.07534217834472656,0.017499029636383057,0.6348167086527398,-0.45495208588833974,-0.535218427915653,0.32181941252800794
1728328203035751200,1.856751220703125,0.6845443844795227,0.20185554027557373,-0.6445414423942566,-0.39261358976364136,0.9195082783699036,-0.01895076595246792,0.03137698769569397,0.014421164989471436,-0.14973503351211548,0.6377547902103687,-0.4520075374205869,-0.5349895352082643,0.32053743595362016
1728328203045782000,1.866781982421875,0.8085033297538757,0.17109762132167816,-0.7187533378601074,-0.3987904191017151,0.9166551232337952,-0.026642639189958572,0.05809211730957031,0.1306166648864746,-0.15057283639907837,0.6410312928431444,-0.4480540279734302,-0.5347207386246378,0.320000492729643
1728328203055813000,1.876813232421875,0.8887549638748169,0.171612948179245,-0.8292324542999268,-0.40586090087890625,0.9132612943649292,-0.035088639706373215,0.0301741361618042,0.22792840003967285,-0.07730752229690552,0.644619630664505,-0.4435156008396126,-0.5345555079178436,0.31939017000215336
1728328203065844000,1.886843994140625,0.9067315459251404,0.07053719460964203,-0.8598028421401978,-0.4135843813419342,0.90940922498703,-0.04385264962911606,0.03110748529434204,0.17425477504730225,-0.07397562265396118,0.6483237435922006,-0.4385299560373662,-0.534570063370722,0.31875192473391406
1728328203075875000,1.896875,0.7683616280555725,-0.021807651966810226,-0.8589642643928528,-0.42139917612075806,0.9053983092308044,-0.05174017697572708,0.08720102906227112,0.09539532661437988,-0.08705366402864456,0.6516152234283918,-0.43344438444839334,-0.5350288571290809,0.31822620264656143
1728328203085906000,1.906906005859375,0.5596326589584351,-0.08725377172231674,-0.8600375056266785,-0.4291888177394867,0.9013891220092773,-0.057402603328228,0.13464826345443726,0.03696560859680176,-0.017487414181232452,0.6542357557185767,-0.4289195677587746,-0.5360286400033336,0.31729654053973105
1728328203095936000,1.91693603515625,0.41021984815597534,-0.11036644130945206,-0.9029503464698792,-0.4371636211872101,0.8972864151000977,-0.06136162206530571,0.1334678828716278,0.00020509958267211914,-0.0028625093400478363,0.6564040492401348,-0.4248008032231969,-0.5374601996243449,0.31593452586975357
1728328203105967000,1.926967041015625,0.3123665153980255,-0.16419318318367004,-1.0148100852966309,-0.44584304094314575,0.8928231596946716,-0.06396228075027466,0.0836450457572937,0.04280012845993042,-0.004488527774810791,0.6583062738138648,-0.42082628664544225,-0.5393738002735022,0.3140289509822038
1728328203115998000,1.936998046875,0.20200565457344055,-0.18481259047985077,-1.095268964767456,-0.45543333888053894,0.8878584504127502,-0.06548301875591278,0.011753439903259277,0.16031360626220703,-0.02793121337890625,0.6600314125796678,-0.4168037100629711,-0.5417870058154605,0.3116089573301665
1728328203126029000,1.947029052734375,0.16407611966133118,-0.20603905618190765,-1.2017810344696045,-0.4657025635242462,0.8824677467346191,-0.06612150371074677,-0.026744425296783447,0.26468807458877563,-0.06627892702817917,0.6616440021878903,-0.4128260424211089,-0.5445309047900181,0.3086876998585299
1728328203136060000,1.957059814453125,0.1310819387435913,-0.2672833502292633,-1.3652971982955933,-0.4771781861782074,0.8762972950935364,-0.06636413186788559,-0.03611224889755249,0.3166348338127136,-0.13441091775894165,0.663306815385102,-0.40846537853659426,-0.5476987924747976,0.3052969744016635
1728328203146091000,1.967091064453125,0.26407861709594727,-0.2847299873828888,-1.458248496055603,-0.4897818863391876,0.8693040609359741,-0.06651527434587479,-0.051325321197509766,0.3357282876968384,-0.19025951623916626,0.6650093302994905,-0.4034918105940993,-0.5513045639538516,0.3016956672900359
1728328203156122000,1.9771220703125,0.5645288228988647,-0.397802472114563,-1.5458824634552002,-0.5030397772789001,0.861548900604248,-0.06844634562730789,-0.041577041149139404,0.345986008644104,-0.27071064710617065,0.6672010843863568,-0.3974923607599667,-0.5547762167859838,0.29843946599838594
1728328203166153200,1.9871533203125,0.9191471338272095,-0.5708168745040894,-1.6474196910858154,-0.5171067714691162,0.8528616428375244,-0.07230451703071594,0.03080904483795166,0.35932713747024536,-0.3422766923904419,0.6696735366311887,-0.3898245666405058,-0.5584662466456629,0.29612466593518993
1728328203176184000,1.99718408203125,1.2996965646743774,-0.6615759134292603,-1.7033541202545166,-0.5318809151649475,0.8431785106658936,-0.07843971252441406,0.037145137786865234,0.39464497566223145,-0.3387507200241089,0.6725486382396498,-0.3804459242647453,-0.5621752776100962,0.29478504387474136
1728328203186214100,2.007214111328125,1.5058257579803467,-0.7054927945137024,-1.7960829734802246,-0.54705810546875,0.8325850963592529,-0.08677346259355545,0.009063661098480225,0.40236973762512207,-0.3374207615852356,0.6758926432455574,-0.3697103747282764,-0.5656213456485254,0.294203946885425
1728328203196245200,2.017245361328125,1.4595686197280884,-0.7068312168121338,-1.9180786609649658,-0.5630967617034912,0.820892333984375,-0.09517413377761841,-0.026899635791778564,0.3607025742530823,-0.27262359857559204,0.6793146543700268,-0.3582970303559622,-0.5692417513091013,0.2934600859969817
1728328203206276000,2.027276123046875,1.3586961030960083,-0.6896711587905884,-2.0554800033569336,-0.5800405144691467,0.8080944418907166,-0.10264725238084793,-0.10170698165893555,0.32116270065307617,-0.17915193736553192,0.6827136451612337,-0.3467683863515909,-0.5730864320232278,0.29193454042119443
1728328203216307200,2.03730712890625,1.4146862030029297,-0.6188365817070007,-2.136533498764038,-0.5975692868232727,0.7942389845848083,-0.10998022556304932,-0.12177592515945435,0.3316460847854614,-0.11043286323547363,0.6862908593147693,-0.33504364635939216,-0.5768497573859961,0.289819148101728
1728328203226338000,2.047338134765625,1.5187748670578003,-0.6317188143730164,-2.1783788204193115,-0.6152423024177551,0.7794737815856934,-0.11788997054100037,-0.10247021913528442,0.3882814645767212,-0.09870845079421997,0.6900478620960813,-0.3228048769207949,-0.580389547831632,0.28771378415839455
1728328203236369200,2.057369140625,1.8095436096191406,-0.6014859080314636,-2.2983264923095703,-0.6332457661628723,0.7634879946708679,-0.12683169543743134,-0.06597316265106201,0.5020151138305664,-0.05834890902042389,0.6940810280589191,-0.30967914741298114,-0.5836805429452514,0.2857754852207224
1728328203246400000,2.06739990234375,2.3765575885772705,-0.5723293423652649,-2.3893253803253174,-0.6517882943153381,0.7455862164497375,-0.1388297975063324,-0.07260763645172119,0.536396324634552,-0.09052497148513794,0.6988800839040791,-0.2946830518460353,-0.5862994090351612,0.28457300424853005
1728328203256431000,2.07743115234375,3.0178351402282715,-0.6055991649627686,-2.3833017349243164,-0.6702924966812134,0.7257566452026367,-0.15487337112426758,-0.05150943994522095,0.49256622791290283,-0.17138995230197906,0.7044500874182226,-0.2773207780137295,-0.5879255882345272,0.2849334750355213
1728328203266462200,2.087462158203125,3.7321176528930664,-0.7082264423370361,-2.3648769855499268,-0.6883750557899475,0.7040269374847412,-0.1746029406785965,0.006139218807220459,0.48373252153396606,-0.20872825384140015,0.7104428827299527,-0.2574173510523309,-0.5885871519409734,0.2873544695081657
1728328203276492000,2.097491943359375,4.361455917358398,-0.7818120718002319,-2.4284768104553223,-0.7063866853713989,0.6797108054161072,-0.1975129097700119,0.026866912841796875,0.5280224084854126,-0.15589582920074463,0.7167119415026589,-0.2347479994690843,-0.5883340243896921,0.29168587208064595
1728328203286523100,2.107523193359375,4.781925678253174,-0.7748753428459167,-2.473128080368042,-0.7244197726249695,0.6524404883384705,-0.22257000207901,0.002968907356262207,0.5480141639709473,-0.03267885744571686,0.7231546803506166,-0.20981407121088547,-0.5871056562322334,0.2972075425683795
1728328203296554000,2.117553955078125,4.940380096435547,-0.8129324316978455,-2.4470441341400146,-0.742041826248169,0.6227836012840271,-0.24802176654338837,-0.01525205373764038,0.4694862961769104,0.031163930892944336,0.7293680053132838,-0.18359060202515673,-0.5850500902140101,0.30337009499049317
1728328203306585000,2.127585205078125,4.633344650268555,-0.8770336508750916,-2.4404420852661133,-0.7591388821601868,0.5918692350387573,-0.2709229588508606,-0.0018628239631652832,0.3338509798049927,0.10525834560394287,0.734728271894273,-0.15744362902226974,-0.5828808031730888,0.30925077933230705
1728328203316616000,2.137615966796875,3.8825488090515137,-0.8523600697517395,-2.4632208347320557,-0.7756975293159485,0.5610256195068359,-0.28903988003730774,0.005570888519287109,0.1909734010696411,0.24262270331382751,0.7391574904703602,-0.13315986147663733,-0.5811613481969733,0.31331520921032624
1728328203326647000,2.14764697265625,3.105471134185791,-0.8386253714561462,-2.5389394760131836,-0.7919057011604309,0.5310376286506653,-0.3014707565307617,0.005925357341766357,0.11628597974777222,0.31181633472442627,0.742771780648741,-0.11159693688052373,-0.5803539834343999,0.3146834011657669
1728328203336678100,2.15767822265625,2.626084089279175,-0.8267810940742493,-2.541241407394409,-0.8076008558273315,0.5019537210464478,-0.3095536530017853,0.0006549358367919922,0.10708552598953247,0.32002130150794983,0.7458265912519488,-0.09230777847876,-0.5802606752648622,0.3138783546193507
1728328203346709000,2.167708984375,2.5249218940734863,-0.8295257091522217,-2.554598331451416,-0.8226699829101562,0.4730760455131531,-0.3152986764907837,-0.0030900239944458008,0.12647226452827454,0.24774816632270813,0.7484764018934612,-0.07397300897329671,-0.5804124826484535,0.31214175678685085
1728328203356740000,2.177739990234375,2.514517307281494,-0.8054551482200623,-2.5533154010772705,-0.8370217084884644,0.4437941610813141,-0.3200647830963135,-0.04160994291305542,0.14447784423828125,0.14172014594078064,0.7508917186623618,-0.055783434299453004,-0.5803928189560978,0.31015160576782264
1728328203366770000,2.18777001953125,2.485081195831299,-0.8053217530250549,-2.559972047805786,-0.8505820631980896,0.4141242504119873,-0.324055016040802,-0.08649086952209473,0.1637108027935028,0.05470699071884155,0.7531109425827991,-0.037701784195041034,-0.5801302137113928,0.3079799816361601
1728328203376801000,2.197801025390625,2.595752000808716,-0.8368878364562988,-2.530679941177368,-0.8634955883026123,0.38392162322998047,-0.32707759737968445,-0.09541261196136475,0.14087387919425964,0.0237482488155365,0.7549840126822261,-0.01941347911666548,-0.5797278025924719,0.30583999394772693
1728328203386832000,2.207831787109375,2.5511651039123535,-0.7475712895393372,-2.4719579219818115,-0.8753819465637207,0.3535899817943573,-0.3296676278114319,-0.06742829084396362,0.1336688995361328,0.10501259565353394,0.7566079629499763,-0.0011033940531913066,-0.5789343379656331,0.303938027914594
1728328203396863000,2.217863037109375,2.5333099365234375,-0.6673247814178467,-2.477048397064209,-0.886093020439148,0.32338184118270874,-0.3320595622062683,-0.08757048845291138,0.17580941319465637,0.14599400758743286,0.7582323272704232,0.016717726716331493,-0.5776597024691825,0.3018504551362194
1728328203406894000,2.22789404296875,2.623137950897217,-0.5836418867111206,-2.4141266345977783,-0.895775556564331,0.2927924692630768,-0.33445313572883606,-0.1332467794418335,0.17659837007522583,0.1519886553287506,0.7597938809455203,0.03460670074065169,-0.5758261993408945,0.2998998441223652
1728328203416925200,2.23792529296875,2.6191368103027344,-0.49649712443351746,-2.2702951431274414,-0.9041404724121094,0.2627854645252228,-0.33685871958732605,-0.12674331665039062,0.14445629715919495,0.2005826234817505,0.761176795234666,0.05218527400846052,-0.573452124016248,0.29839447350860865
1728328203426956300,2.247956298828125,2.690068244934082,-0.4702300727367401,-2.1967403888702393,-0.9113160967826843,0.23348692059516907,-0.3390975892543793,-0.11131280660629272,0.10600584745407104,0.20381325483322144,0.762329495803949,0.06942293510133365,-0.5706414532085617,0.2973261181951134
1728328203436987100,2.257987060546875,2.6925089359283447,-0.4722554683685303,-2.0871057510375977,-0.917630672454834,0.2046247124671936,-0.3407091498374939,-0.1363702416419983,0.0018571913242340088,0.12217292189598083,0.763123446094389,0.08656238748474504,-0.5675846916202449,0.29664320485955104
1728328203447018200,2.268018310546875,2.5496280193328857,-0.41942980885505676,-1.9097075462341309,-0.9229951500892639,0.17716021835803986,-0.34160536527633667,-0.13520193099975586,-0.07387350499629974,0.1354287564754486,0.7635780248364206,0.10296753842259834,-0.5644422054640587,0.296228479787521
1728328203457049000,2.278049072265625,2.366914749145508,-0.3429001569747925,-1.7277898788452148,-0.927312433719635,0.15185409784317017,-0.342099666595459,-0.13576757907867432,-0.10337696969509125,0.17660295963287354,0.7638244391998655,0.11810170785109325,-0.5612505270275855,0.29601045290286176
1728328203467079200,2.2880791015625,2.0926766395568848,-0.3240870535373688,-1.6399415731430054,-0.9307970404624939,0.12856857478618622,-0.3421798646450043,-0.15213453769683838,-0.102048859000206,0.17088481783866882,0.7639987726327256,0.1318327826300178,-0.558148888659017,0.295627871461822
1728328203477110300,2.2981103515625,1.8847359418869019,-0.37336334586143494,-1.5340616703033447,-0.933869481086731,0.10687778145074844,-0.34126999974250793,-0.17651277780532837,-0.09776834398508072,0.1412426233291626,0.7640054523425256,0.14440579906467632,-0.5554385351227394,0.2948403791251896
1728328203487141000,2.30814111328125,1.6704758405685425,-0.35731884837150574,-1.3990141153335571,-0.9365612268447876,0.08707117289304733,-0.33951735496520996,-0.153053879737854,-0.10135342925786972,0.18851646780967712,0.763794044329922,0.1558408227261927,-0.5531319515468215,0.2939007166537339
1728328203497172200,2.318172119140625,1.4608545303344727,-0.2532093822956085,-1.2771815061569214,-0.9386364221572876,0.06917595118284225,-0.3379000723361969,-0.12737321853637695,-0.10903197526931763,0.24718675017356873,0.7636593688006426,0.1659871074101537,-0.5509067498098107,0.29287276828234704
1728328203507203000,2.328203125,1.3207563161849976,-0.2420819252729416,-1.1388885974884033,-0.9401947855949402,0.05313805490732193,-0.33646726608276367,-0.12953799962997437,-0.12303861975669861,0.24241220951080322,0.7635860231777809,0.1749464283548106,-0.5487805690784338,0.29183918595372477
1728328203517234200,2.338234130859375,1.3419873714447021,-0.2250693142414093,-1.000893473625183,-0.9414703249931335,0.038583461195230484,-0.3348810076713562,-0.09910303354263306,-0.13807082176208496,0.20797374844551086,0.7633104919992344,0.1833164290179589,-0.5467673894747346,0.2912007695595129
1728328203527265000,2.34826513671875,1.3965798616409302,-0.23259061574935913,-0.8603245615959167,-0.9425226449966431,0.025222547352313995,-0.3331895172595978,-0.058393001556396484,-0.11824018508195877,0.16989004611968994,0.7627767245179903,0.19140082932148733,-0.5447668915489517,0.2911472304977452
1728328203537296100,2.358296142578125,1.5819847583770752,-0.2611555755138397,-0.694882333278656,-0.9435107707977295,0.01292854081839323,-0.33108964562416077,-0.024277985095977783,-0.04613172635436058,0.1579941213130951,0.7617662733747169,0.19956983239378737,-0.5427956024848429,0.2919880657313022
1728328203547327000,2.368326904296875,1.7639676332473755,-0.3098698556423187,-0.5852818489074707,-0.944495439529419,0.0013571095187216997,-0.3285219073295593,0.025580525398254395,-0.01840122975409031,0.13774138689041138,0.7602229422005524,0.20810117279369947,-0.5407707007307034,0.29380630346717435
1728328203557357000,2.378357177734375,1.840199589729309,-0.34588563442230225,-0.48348864912986755,-0.9455525279045105,-0.009662613272666931,-0.32532623410224915,0.04862558841705322,-0.03945548087358475,0.1005186140537262,0.758191818139362,0.21694033195714427,-0.5387706193080605,0.2963247664756286
1728328203567388200,2.38838818359375,1.86902916431427,-0.3717045187950134,-0.43920615315437317,-0.9466503262519836,-0.019977329298853874,-0.3216431736946106,0.12246197462081909,-0.0102503951638937,0.15634483098983765,0.7558477519825285,0.22572665595677185,-0.5368667378741195,0.299192163800114
1728328203577419000,2.3984189453125,1.9686709642410278,-0.3953665792942047,-0.42590072751045227,-0.9477689266204834,-0.030270373448729515,-0.31751856207847595,0.17349201440811157,0.02227470837533474,0.1429429054260254,0.7532558976483594,0.2347443441871095,-0.5349166363573208,0.3022664920189491
1728328203587450000,2.4084501953125,2.0050556659698486,-0.4309599995613098,-0.29986289143562317,-0.9489516615867615,-0.04009512811899185,-0.3128633201122284,0.16507691144943237,0.03507492318749428,0.10259732604026794,0.7503077151741889,0.24389867047013497,-0.5329932221599087,0.30572901127281704
1728328203597481000,2.41848095703125,1.8190629482269287,-0.37427282333374023,-0.11242455989122391,-0.9501259326934814,-0.0480506457388401,-0.3081431984901428,0.14804744720458984,0.042328525334596634,0.19217655062675476,0.7471402966066638,0.25231270498962,-0.5312877741124308,0.30960182965209865
1728328203607512000,2.428511962890625,1.4326307773590088,-0.355575293302536,0.03910345211625099,-0.9512329697608948,-0.05342986807227135,-0.30381157994270325,0.12973010540008545,-0.06642798334360123,0.2695404887199402,0.7441274583624852,0.2590983370613129,-0.5300587377507752,0.3133374508867991
1728328203617543000,2.43854296875,1.0478266477584839,-0.3874065577983856,0.2205542027950287,-0.9524224996566772,-0.05588946118950844,-0.299613356590271,0.18282991647720337,-0.18474170565605164,0.28031107783317566,0.74131425789855,0.26392881312358124,-0.5296554524417099,0.3166387890078669
1728328203627574300,2.44857421875,0.8649868369102478,-0.4124070107936859,0.27318093180656433,-0.9537832140922546,-0.05629562959074974,-0.2951754927635193,0.2893086075782776,-0.21100789308547974,0.3208562135696411,0.7385603200617957,0.26742751598893066,-0.5299950667856121,0.3195568191884568
1728328203637605000,2.458605224609375,0.5919289588928223,-0.3583463728427887,0.38325202465057373,-0.9551049470901489,-0.05533629655838013,-0.2910546362400055,0.24459445476531982,-0.27980780601501465,0.27130988240242004,0.7360265725181019,0.2698828232913951,-0.5306938379724104,0.3221683946942694
1728328203647635000,2.468635009765625,0.5355988144874573,-0.37239402532577515,0.5307363271713257,-0.9564144015312195,-0.052530594170093536,-0.28724971413612366,0.21592038869857788,-0.21248412132263184,0.25851747393608093,0.7335759125636587,0.27125524799019024,-0.5317854233256073,0.3247945727559438
1728328203657666300,2.478666259765625,0.6286208033561707,-0.36813077330589294,0.6909688711166382,-0.957801878452301,-0.0483318455517292,-0.2833366096019745,0.25127410888671875,-0.07901806384325027,0.2303582727909088,0.7307661124843424,0.2723942558096112,-0.5330413279467955,0.3280994550722589
1728328203667697200,2.488697265625,0.5309272408485413,-0.3174034059047699,0.7712144255638123,-0.9591097831726074,-0.042893849313259125,-0.2797657549381256,0.2451661229133606,-0.09884510189294815,0.26523953676223755,0.7278213472737753,0.2731357391745388,-0.5343350902331987,0.33190239740504907
1728328203677728300,2.498728271484375,0.3863643705844879,-0.33043545484542847,0.87717604637146,-0.9603428840637207,-0.036247432231903076,-0.2764556407928467,0.20130962133407593,-0.2081526517868042,0.2597779929637909,0.7249336280994252,0.2731553608524755,-0.535871553033201,0.3357069228815404
1728328203687759000,2.508759033203125,0.20302703976631165,-0.31259414553642273,0.9743795394897461,-0.961561918258667,-0.028067370876669884,-0.27315017580986023,0.24012631177902222,-0.23877838253974915,0.2701900899410248,0.7220702659961885,0.2722514319911077,-0.5378699377201509,0.3393961363760604
1728328203697790200,2.518790283203125,0.08234070986509323,-0.21918368339538574,1.0239098072052002,-0.9625405669212341,-0.018813781440258026,-0.2704847455024719,0.2806403636932373,-0.20724523067474365,0.3125380873680115,0.7194269555332105,0.27053632806296646,-0.539970109731297,0.34302683227848235
1728328203707821000,2.528821044921875,0.021657118573784828,-0.14281408488750458,1.137708067893982,-0.96322101354599,-0.00852933432906866,-0.26857513189315796,0.2887977361679077,-0.13528481125831604,0.3284049928188324,0.716969496064214,0.26811304254512996,-0.5420588770133786,0.3467597593881091
1728328203717852200,2.53885205078125,0.04748418554663658,-0.05333772301673889,1.2703907489776611,-0.9636033177375793,0.003107630182057619,-0.26731833815574646,0.32567906379699707,-0.07419838756322861,0.3332364857196808,0.7144540277286971,0.26514510427466614,-0.5440945670455083,0.3510194997177582
1728328203727883000,2.548883056640625,0.16795973479747772,0.04107533395290375,1.3521974086761475,-0.9635300040245056,0.015525358729064465,-0.26714980602264404,0.33976584672927856,-0.03054005652666092,0.2903890907764435,0.7119447120348189,0.26194838978769586,-0.5457180059093025,0.3559630583716447
1728328203737913000,2.5589130859375,0.2454017996788025,0.14792145788669586,1.4660919904708862,-0.9629886150360107,0.02852386236190796,-0.26802876591682434,0.30713528394699097,-0.05568455904722214,0.2366110384464264,0.7093528446016096,0.25873830062908854,-0.5468456046420667,0.3617084583660903
1728328203747944200,2.568944091796875,0.16402198374271393,0.27057868242263794,1.5591753721237183,-0.9618910551071167,0.04258975014090538,-0.2700960636138916,0.31348395347595215,-0.09343208372592926,0.23283421993255615,0.7068729715921616,0.25495012654766924,-0.5476791109549064,0.36793849602010303
1728328203757975000,2.57897509765625,0.06594781577587128,0.3783932030200958,1.617013931274414,-0.9602094292640686,0.05764882639050484,-0.27326643466949463,0.32977724075317383,-0.07920955121517181,0.24508365988731384,0.7046658597860249,0.25034513712147277,-0.5483558065816306,0.374271744331299
1728328203768006100,2.589006103515625,0.07616343349218369,0.49055489897727966,1.6601417064666748,-0.9579504132270813,0.07320699095726013,-0.277438223361969,0.3422123193740845,-0.05280603468418121,0.21373289823532104,0.7026489517412439,0.24528970258434477,-0.5487384158635612,0.38079354455164666
1728328203778037000,2.599037109375,0.1301339864730835,0.5216307640075684,1.7187775373458862,-0.9551270008087158,0.0891895592212677,-0.2824496924877167,0.34352409839630127,-0.028032377362251282,0.1472111940383911,0.7007093050549812,0.23993795599419046,-0.5488213981878428,0.3875970193779623
1728328203788068000,2.609068115234375,0.5488004684448242,0.4724019169807434,1.6961894035339355,-0.9520703554153442,0.10466931760311127,-0.28741368651390076,0.3609447479248047,0.025274500250816345,0.10230940580368042,0.6983045190739207,0.23538685803448323,-0.5485309347094992,0.3950668078450506
1728328203798099000,2.619098876953125,1.066816806793213,0.5819836854934692,1.663584589958191,-0.9486822485923767,0.11823056638240814,-0.2932981252670288,0.3377659320831299,0.04924986511468887,0.07582998275756836,0.6954225230640573,0.23261211346511862,-0.5470306635631049,0.4037780724992772
1728328203808130000,2.629130126953125,1.3820961713790894,0.6781088709831238,1.7225594520568848,-0.9446636438369751,0.1306588053703308,-0.3008973002433777,0.27544349431991577,0.028139382600784302,0.10408961772918701,0.6922616577330185,0.23095037596380452,-0.544254788287791,0.4137905602082279
1728328203818161000,2.639160888671875,1.5298175811767578,0.720085859298706,1.6945384740829468,-0.9401818513870239,0.14238053560256958,-0.3094930648803711,0.2714500427246094,0.07081522047519684,0.12300032377243042,0.6888516506595826,0.22990658290220117,-0.540736927311949,0.4245350907491667
1728328203828191000,2.64919091796875,1.4967677593231201,0.7117539048194885,1.5777876377105713,-0.9354830384254456,0.15300394594669342,-0.31852999329566956,0.2849702835083008,0.113078773021698,0.1219206154346466,0.6855166400674468,0.22916684636132328,-0.5368589771945399,0.4351229523403918
1728328203838222000,2.65922216796875,1.3238118886947632,0.6343087553977966,1.4421968460083008,-0.9309130311012268,0.16259393095970154,-0.32705405354499817,0.30940717458724976,0.11046208441257477,0.09986609220504761,0.6823430023595073,0.2284891636248215,-0.5331657062344498,0.4448991031597181
1728328203848253000,2.6692529296875,1.0903738737106323,0.5246009230613708,1.2735908031463623,-0.9267159104347229,0.17124637961387634,-0.334473192691803,0.3203926682472229,0.08829033374786377,0.019806593656539917,0.6794536905719583,0.22767555644870568,-0.5300257019650549,0.45340855043190287
1728328203858284000,2.679283935546875,0.7879649996757507,0.3874605596065521,1.1402246952056885,-0.9230694770812988,0.17917245626449585,-0.34035295248031616,0.3045543432235718,0.04240038990974426,-0.0313052237033844,0.6768260426244779,0.2266774132481965,-0.5276749663394629,0.460524793390693
1728328203868315000,2.68931494140625,0.45698416233062744,0.21269886195659637,1.0935999155044556,-0.9199986457824707,0.1873246729373932,-0.34425562620162964,0.3158268332481384,-0.012443721294403076,-0.04270711541175842,0.6743293778842704,0.2251426217826196,-0.5264817034510823,0.46626999426537435
1728328203878346200,2.69934619140625,0.31378093361854553,0.05176994949579239,1.0900166034698486,-0.9174758791923523,0.19610418379306793,-0.34609419107437134,0.335368275642395,-0.07417123019695282,-0.05185481905937195,0.6716721223167056,0.22321950776398342,-0.5264275423566149,0.47106656028295674
1728328203888377000,2.709377197265625,0.3860010504722595,0.06409665942192078,0.9798834919929504,-0.9151740670204163,0.2045404016971588,-0.3473038077354431,0.32433831691741943,-0.1295739859342575,-0.036820828914642334,0.6689329851546272,0.2214933277607218,-0.5265821922138298,0.47558462964751064
1728328203898408200,2.719408203125,0.47620177268981934,0.1676434576511383,0.4431326687335968,-0.9132879972457886,0.20989784598350525,-0.3490675687789917,0.21286362409591675,-0.07432352006435394,-0.00530242919921875,0.6669314836653448,0.22071458915214268,-0.5260715561857607,0.4793082387898063
1728328203908439000,2.72943896484375,0.2909288704395294,0.1955813467502594,-0.17214646935462952,-0.9123532772064209,0.20933449268341064,-0.3518391251564026,0.04612696170806885,0.25445640087127686,-0.02349644899368286,0.6667584224325924,0.22137151240687858,-0.5244760213786477,0.48099161316698263
1728328203918470100,2.73947021484375,0.20584966242313385,0.07645942270755768,-0.1440490484237671,-0.9122663736343384,0.2069496065378189,-0.3534715175628662,0.08009767532348633,0.5529990792274475,-0.06686216592788696,0.6673387331520726,0.22218917512578218,-0.5233509462322703,0.481035241823216
1728328203928500200,2.749500244140625,0.7018370032310486,-0.06071574240922928,0.03625600039958954,-0.9123263955116272,0.20487581193447113,-0.3545232117176056,0.29309403896331787,0.3826791048049927,-0.17709285020828247,0.6669868008781871,0.22380909517150868,-0.5221569509395829,0.48206889022124594
1728328203938531000,2.759531005859375,0.7298749685287476,-0.21626132726669312,0.07007627934217453,-0.9126693606376648,0.20284904539585114,-0.35480573773384094,0.31222057342529297,-0.014341995120048523,-0.2633886933326721,0.6656067946311969,0.2264695481049084,-0.520872995673706,0.48411838850220246
1728328203948562200,2.769562255859375,0.697104275226593,-0.22486761212348938,-0.29667404294013977,-0.9137087464332581,0.19953982532024384,-0.35400626063346863,0.1623658537864685,-0.09280461072921753,-0.048367857933044434,0.6644004045110593,0.2296180579459028,-0.5198773168040235,0.485361127565501
1728328203958593000,2.779593017578125,1.0576497316360474,0.03422855958342552,-0.607602596282959,-0.9150102138519287,0.19210761785507202,-0.3547549843788147,-0.03555142879486084,0.042908236384391785,0.04947251081466675,0.6643401713408292,0.23392685495261714,-0.5175912857868973,0.485828913678244
1728328203968624000,2.7896240234375,1.689029574394226,0.06176218390464783,-0.4061371386051178,-0.9157512187957764,0.18231767416000366,-0.35799482464790344,-0.09302276372909546,0.06446270644664764,-0.1086188554763794,0.6641747429842887,0.23971969952564362,-0.5133585985718331,0.48771873214560485
1728328203978655000,2.799655029296875,2.1080925464630127,-0.06065608561038971,-0.09517819434404373,-0.9162153601646423,0.17320160567760468,-0.3613183796405792,0.05020260810852051,0.07559293508529663,-0.09748274087905884,0.6624199579632943,0.24671298316410165,-0.5084029053207527,0.49179184943503496
1728328203988686000,2.80968603515625,2.324479103088379,0.05509501323103905,-0.022266965359449387,-0.9163093566894531,0.16478779911994934,-0.36499640345573425,0.0923345685005188,0.08797402679920197,0.08313614130020142,0.6596971554022736,0.25418527623521486,-0.5028833352200403,0.4972906904739933
1728328203998717200,2.81971728515625,2.6327085494995117,0.2907063066959381,-0.14986726641654968,-0.915825605392456,0.15487706661224365,-0.3705088496208191,-0.01731055974960327,0.013381585478782654,0.17373162508010864,0.6571395053192728,0.2621365232880406,-0.4960141294469637,0.5034106619467804
1728328204008748000,2.829748046875,2.770601749420166,0.48548805713653564,-0.09539417177438736,-0.9145612716674805,0.14339008927345276,-0.37817612290382385,-0.09625732898712158,-0.10287801921367645,0.1427178978919983,0.6548025293943909,0.27045373856827076,-0.48761327868743626,0.5102175186608409
1728328204018778000,2.839778076171875,2.613537549972534,0.5860477089881897,0.05816236510872841,-0.9125347137451172,0.13282965123653412,-0.3868294954299927,-0.06596583127975464,-0.11126899719238281,0.21611428260803223,0.6524212454397463,0.277998319850746,-0.4788550743177532,0.5174568450132502
1728328204028809000,2.84980908203125,2.2366783618927,0.8353115916252136,0.08493165671825409,-0.9096346497535706,0.12410197407007217,-0.39643898606300354,-0.05482792854309082,-0.08427653461694717,0.3813328742980957,0.6504502165809165,0.2838724543641628,-0.47031577967286997,0.5245324452671667
1728328204038840000,2.859840087890625,2.015695095062256,1.0028468370437622,-0.12302127480506897,-0.9059149026870728,0.11552979052066803,-0.4073958694934845,-0.09399378299713135,-0.06381775438785553,0.43817293643951416,0.6496026118543946,0.2883211769447943,-0.46170657207399063,0.5307680200678451
1728328204048871200,2.86987109375,2.02134370803833,1.0656551122665405,-0.32146620750427246,-0.9018162488937378,0.10512516647577286,-0.4191378057003021,-0.1285032033920288,-0.03404972702264786,0.2894534468650818,0.6497134007522655,0.2925682451633186,-0.45258691337271373,0.5361358995849475
1728328204058902000,2.879902099609375,2.2262985706329346,0.9397104382514954,-0.30386215448379517,-0.8978608250617981,0.0931500494480133,-0.4303130805492401,-0.0749024748802185,-0.013453401625156403,0.065582275390625,0.6497176996010893,0.2974912560041437,-0.4431054182103032,0.541316688242022
1728328204068933000,2.88993310546875,2.1820321083068848,0.8090384602546692,-0.2252802550792694,-0.8942526578903198,0.08101175725460052,-0.4401700496673584,0.0676228404045105,0.029477111995220184,-0.05345165729522705,0.6489891220383267,0.3029686264001982,-0.43373377349601244,0.546716067885266
1728328204078964000,2.8999638671875,1.859805941581726,0.4377026855945587,-0.22544270753860474,-0.8916076421737671,0.07007692009210587,-0.44735339283943176,0.13959342241287231,0.06520747393369675,-0.1312749981880188,0.6478496978375773,0.3082681377025225,-0.42578640218052916,0.5513324928569072
1728328204088995000,2.9099951171875,1.4805208444595337,0.16242185235023499,-0.2936673164367676,-0.8904280066490173,0.060246724635362625,-0.45111918449401855,0.1539928913116455,0.07067365944385529,-0.12929445505142212,0.6465795910638211,0.31341842115427554,-0.41977290869540274,0.5545220112122937
1728328204099026200,2.920026123046875,1.1299355030059814,0.02446509152650833,-0.333082377910614,-0.8902521133422852,0.05148665979504585,-0.4525488615036011,0.15227586030960083,0.026684090495109558,-0.0875968337059021,0.6455627724152266,0.3180975023646489,-0.41537879715032067,0.5563481752739017
1728328204109056000,2.930055908203125,0.8166151642799377,-0.04847702383995056,-0.30803215503692627,-0.8904598355293274,0.044215403497219086,-0.4529087245464325,0.12466686964035034,-0.09806369245052338,-0.09060919284820557,0.6448950649651354,0.32192259891658925,-0.4122032013919059,0.5572833903865853
1728328204119087000,2.940087158203125,0.4372202455997467,-0.03483381122350693,-0.27127012610435486,-0.8908127546310425,0.03874771669507027,-0.4527154862880707,0.1163070797920227,-0.20068927109241486,0.02571365237236023,0.6445445248555373,0.32473284302754335,-0.4101107685645965,0.5576021196271194
1728328204129118200,2.9501181640625,0.06340429931879044,0.05256527662277222,-0.3587968051433563,-0.8908911943435669,0.034932300448417664,-0.45287173986434937,0.06780147552490234,-0.20129890739917755,0.19896560907363892,0.6450258610577912,0.3261106646510126,-0.40892048274430615,0.5571155585718066
1728328204139149300,2.9601494140625,-0.06692973524332047,0.17459078133106232,-0.46175673604011536,-0.8904897570610046,0.03129090368747711,-0.453926146030426,-0.04998582601547241,-0.155329629778862,0.2594835162162781,0.6464567045566044,0.32657827589750876,-0.40790141105656025,0.5559288619880095
1728328204149180200,2.97018017578125,0.006673640571534634,0.22821086645126343,-0.44918927550315857,-0.8897057771682739,0.02734535001218319,-0.4557146728038788,-0.11499398946762085,-0.11309976875782013,0.1808888018131256,0.6482186360881248,0.3268334674665427,-0.4065987580500939,0.5546800495190477
1728328204159211300,2.980211181640625,0.03226262331008911,0.2593885064125061,-0.40492406487464905,-0.8886584043502808,0.023397434502840042,-0.4579727053642273,-0.07156205177307129,-0.05368615686893463,0.11397868394851685,0.6498614875728139,0.32710589740351237,-0.4049881194099228,0.553774866987519
1728328204169242000,2.9902421875,-0.042510680854320526,0.1822574883699417,-0.3674163818359375,-0.8877450227737427,0.01997692696750164,-0.45990195870399475,-0.0240744948387146,-0.007022242993116379,0.09041053056716919,0.6513672901883146,0.3272825267271629,-0.4036522949138691,0.552875825159877
1728328204179273200,3.000273193359375,-0.17613531649112701,0.11486966162919998,-0.40834489464759827,-0.8871182799339294,0.01711306720972061,-0.46122482419013977,0.014269709587097168,0.0398784801363945,0.1062903106212616,0.6529164965756177,0.3272605166005174,-0.4028500267757302,0.5516452984486819
1728328204189304000,3.010303955078125,-0.1377466470003128,0.04789968580007553,-0.4655650556087494,-0.8868069052696228,0.013947656378149986,-0.4619297385215759,0.010753929615020752,0.07479743659496307,0.08505302667617798,0.6545740271061448,0.32738387246528444,-0.40231197640983296,0.5499980635955154
1728328204199334100,3.020334228515625,-0.03458777815103531,-0.1211782842874527,-0.426108717918396,-0.8870211839675903,0.010321504436433315,-0.4616134762763977,-0.01756572723388672,0.04932507127523422,-0.033335745334625244,0.6558963036113472,0.32810505493688374,-0.4019208130990824,0.5482762722589835
1728328204209365200,3.030365234375,0.03833702951669693,-0.21168901026248932,-0.3680872321128845,-0.8878329992294312,0.006819038186222315,-0.4601154625415802,-0.026687443256378174,0.008134547621011734,-0.04560643434524536,0.6566281664345831,0.32936708022781097,-0.40182036073793775,0.5467150065584441
1728328204219396000,3.04039599609375,-0.02452908642590046,-0.21524257957935333,-0.3580673635005951,-0.8888686299324036,0.003505127504467964,-0.4581489562988281,-0.060334980487823486,-0.0321916863322258,0.059986263513565063,0.6571326315225815,0.330771752818912,-0.4018899935666606,0.5452075932126429
1728328204229427200,3.05042724609375,-0.2927946150302887,-0.14934371411800385,-0.3325002193450928,-0.8896867036819458,0.0010964826215058565,-0.45657023787498474,-0.11470788717269897,-0.06406953930854797,0.12609553337097168,0.6579750530166896,0.3314580447126951,-0.4023064159174703,0.5434647751703198
1728328204239458000,3.0604580078125,-0.6309971809387207,-0.14544107019901276,-0.30275723338127136,-0.8903684020042419,0.00040740356780588627,-0.4552408456802368,-0.11663562059402466,-0.07810518890619278,0.1652781367301941,0.6593028178218691,0.3309651563708286,-0.4035364290100811,0.5412397649399894
1728328204249489200,3.0704892578125,-0.8828880190849304,-0.10072632879018784,-0.34648367762565613,-0.8909521102905273,0.001052353996783495,-0.4540961682796478,-0.07796585559844971,-0.049804218113422394,0.21447232365608215,0.6611862746316667,0.32941286406320874,-0.4055108850452724,0.5384058712856129
1728328204259520000,3.08052001953125,-0.886924147605896,-0.09764505177736282,-0.3877978026866913,-0.8913869261741638,0.0018499792786315084,-0.4532395899295807,-0.06138724088668823,-0.014285924844443798,0.18413567543029785,0.6634833527749517,0.3274191043362282,-0.40764805136430604,0.5351727157891215
1728328204269551000,3.090551025390625,-0.5557840466499329,-0.07293970882892609,-0.3497982323169708,-0.8918126225471497,0.0018885961035266519,-0.45240113139152527,-0.05711632966995239,0.02026713453233242,0.06554514169692993,0.6655180741258204,0.3259479880126855,-0.409337690525752,0.5322465542925131
1728328204279582000,3.10058203125,-0.3403880000114441,-0.0001583881676197052,-0.31639260053634644,-0.8918837308883667,0.0009520180756226182,-0.4522639811038971,-0.03559136390686035,0.06427927315235138,-0.022055327892303467,0.6670684433694095,0.3251992040587416,-0.4100164525924695,0.5302375904929842
1728328204289612000,3.110612060546875,-0.0033963704481720924,-0.17204546928405762,-0.3982160985469818,-0.8922773599624634,-0.001380674191750586,-0.4514857530593872,-0.04227781295776367,0.08592958748340607,-0.17484164237976074,0.6681244333859937,0.32554584911913903,-0.4102158200088712,0.5285383652119169
1728328204299643100,3.12064306640625,0.2614964544773102,-0.30018356442451477,-0.5221524238586426,-0.8934174180030823,-0.006160953547805548,-0.44918525218963623,-0.0079803466796875,0.1220666840672493,-0.19743627309799194,0.6686016865240184,0.32763974058645695,-0.4099506944637425,0.5268438602991219
1728328204309674000,3.130674072265625,0.5004470348358154,-0.29555684328079224,-0.5115002989768982,-0.8946879506111145,-0.012560354545712471,-0.44651541113853455,-0.0367545485496521,0.17077869176864624,-0.10960632562637329,0.6687674004389884,0.33075160683735216,-0.4090790588357714,0.5253647438244288
1728328204319705000,3.140705078125,0.6661918759346008,-0.2992487847805023,-0.35148507356643677,-0.8959661722183228,-0.019205907359719276,-0.4437069296836853,-0.1006617546081543,0.06278497725725174,-0.18651145696640015,0.6682957760901072,0.33447503641649096,-0.40776584886913897,0.5246277993373998
1728328204329736200,3.150736083984375,0.2734805643558502,-0.37431105971336365,-0.15608547627925873,-0.8973817825317383,-0.023652231320738792,-0.4406207501888275,-0.11096495389938354,-0.07606399059295654,-0.17360639572143555,0.6674215321782077,0.3375324303191895,-0.4071381550105933,0.5242699399626434
1728328204339767600,3.160767578125,-0.24019485712051392,-0.41321948170661926,-0.2046298384666443,-0.8991492986679077,-0.025097670033574104,-0.4369220733642578,-0.06126964092254639,-0.06795046478509903,0.005205273628234863,0.667021464406734,0.33892455958906365,-0.4082512702139518,0.5230139773995185
1728328204349798400,3.17079833984375,-0.5451819896697998,-0.3878970742225647,-0.3381437063217163,-0.9007724523544312,-0.025767548009753227,-0.43352657556533813,-0.0536038875579834,-0.08081512898206711,0.09768074750900269,0.6676111956657189,0.33914578643220405,-0.41014248098545003,0.5206330957958696
1728328204359829500,3.18082958984375,-0.6276741027832031,-0.34769296646118164,-0.4336441457271576,-0.9023012518882751,-0.026699736714363098,-0.43027859926223755,-0.040447890758514404,-0.031955085694789886,0.09016034007072449,0.6688947885007814,0.33890193930330165,-0.41231805146426476,0.5174157947163329
1728328204369860400,3.1908603515625,-0.2600361406803131,-0.30939990282058716,-0.45212382078170776,-0.9035812020301819,-0.028668148443102837,-0.42745688557624817,-0.02726614475250244,0.1040617823600769,0.10358923673629761,0.6701670623434796,0.3390730596805271,-0.41388527116562496,0.5143974350785673
1728328204379890400,3.200890380859375,0.3566175103187561,-0.30232691764831543,-0.4495354890823364,-0.9047294855117798,-0.033014241605997086,-0.424705445766449,-0.05790179967880249,0.1745242178440094,-0.0551832914352417,0.6706366935204465,0.3409575306043452,-0.4139990756524245,0.5124444054375251
1728328204389921500,3.210921630859375,0.8934309482574463,-0.33456340432167053,-0.41346031427383423,-0.9059520959854126,-0.03957413136959076,-0.4215266704559326,-0.06993907690048218,0.2822498679161072,-0.19631677865982056,0.6699836691506227,0.3447930362249924,-0.41274015334491054,0.5117472488577346
1728328204399952400,3.220952392578125,1.3549362421035767,-0.2387876808643341,-0.3996976315975189,-0.9070214629173279,-0.04808159917593002,-0.41833043098449707,-0.02013319730758667,0.38365283608436584,-0.1209760308265686,0.6684275470711669,0.3502244946422691,-0.4100946124434943,0.5122205801534553
1728328204409983500,3.2309833984375,1.3935856819152832,-0.13067053258419037,-0.41796451807022095,-0.9075778126716614,-0.057660073041915894,-0.41590628027915955,0.01052868366241455,0.3241547644138336,-0.07913446426391602,0.6666190602934221,0.35622500803220625,-0.40638726205991194,0.5133929209715979
1728328204420014300,3.241014404296875,1.2150509357452393,-0.0935683399438858,-0.4510931670665741,-0.9077538251876831,-0.06703145056962967,-0.4141136109828949,0.04422825574874878,0.21133378148078918,-0.0009710788726806641,0.6651739262394711,0.3617319487535833,-0.40260798958489014,0.5143935068322897
1728328204430045400,3.25104541015625,0.8354934453964233,-0.054447297006845474,-0.4471767246723175,-0.9077734351158142,-0.07551697641611099,-0.41260722279548645,0.07159167528152466,0.03909420967102051,0.0748540461063385,0.6642581493877365,0.366361432743498,-0.3993440698735062,0.5148444492227932
1728328204440076300,3.261076171875,0.42263737320899963,-0.02976139448583126,-0.45014429092407227,-0.9075760245323181,-0.08201365172863007,-0.4118005931377411,0.08621054887771606,-0.13923883438110352,0.12804827094078064,0.6642153667345734,0.3693366295976999,-0.3971022080857212,0.5145079421319461
1728328204450107400,3.271107421875,0.2435762733221054,0.010321308858692646,-0.5086032748222351,-0.9072084426879883,-0.08775410056114197,-0.41142717003822327,0.08713990449905396,-0.2038719207048416,0.09697413444519043,0.6647999594742212,0.37143567139261585,-0.3953757219240018,0.5135706533483584
1728328204460138200,3.28113818359375,0.06694942712783813,-0.008733874186873436,-0.4876493215560913,-0.9067670702934265,-0.09300175309181213,-0.41124725341796875,0.05381590127944946,-0.20387329161167145,0.0868149995803833,0.6658157762956168,0.37295832890320896,-0.39405388310179207,0.5121651417012103
1728328204470169300,3.29116943359375,0.05488664656877518,0.009809182956814766,-0.37435656785964966,-0.906314492225647,-0.09707513451576233,-0.41130340099334717,0.0625033974647522,-0.11163461953401566,0.1038236916065216,0.6668677723868918,0.37391082366836054,-0.3931144877945838,0.5108219552956781
1728328204480199400,3.301199462890625,0.3513760268688202,-0.05711312219500542,-0.2830412983894348,-0.9061040878295898,-0.10084641724824905,-0.4108595550060272,0.10619246959686279,0.02594096213579178,0.06689608097076416,0.6672807564148518,0.3752781523197772,-0.3920924991587373,0.5100650559744657
1728328204490230300,3.311230224609375,0.5593385696411133,-0.14962626993656158,-0.22890695929527283,-0.9062438607215881,-0.10506024956703186,-0.4094931185245514,0.13465255498886108,0.04289589822292328,-0.01682204008102417,0.6668426127315408,0.37759258988227284,-0.39073940271699054,0.5099682885729073
1728328204500261400,3.321261474609375,0.434882253408432,-0.2291954606771469,-0.23491370677947998,-0.9067856669425964,-0.10930927097797394,-0.4071747958660126,0.12420803308486938,-0.027684174478054047,-0.1404019594192505,0.6660547350364293,0.38029450393245884,-0.38960067915408825,0.5098613242614455
1728328204510292200,3.331292236328125,-0.011992454528808594,-0.23450420796871185,-0.14136938750743866,-0.9075557589530945,-0.11207688599824905,-0.4046991467475891,0.07610422372817993,-0.07223407179117203,-0.06548497080802917,0.665667151546645,0.3820680508157265,-0.3894540082949582,0.5091530833976915
1728328204520323300,3.3413232421875,-0.2752430737018585,-0.3082437813282013,0.05066476762294769,-0.9084382057189941,-0.11146869510412216,-0.4028831720352173,0.06584775447845459,-0.08939805626869202,0.1316888928413391,0.6656180558246129,0.3820541523770407,-0.3906315823855383,0.5083249875262272
1728328204530354200,3.351354248046875,-0.1362130045890808,-0.31670063734054565,-0.2532879412174225,-0.9097709655761719,-0.1114649772644043,-0.39986562728881836,0.11391818523406982,-0.03958181291818619,0.1506592333316803,0.6655634549097309,0.3824362410335941,-0.39218579890413136,0.5069104905125694
1728328204540385300,3.36138525390625,-0.09112834930419922,-0.07663430273532867,-0.33013904094696045,-0.9101966619491577,-0.11397016793489456,-0.39818739891052246,-0.10603886842727661,-0.05117575079202652,0.10201442241668701,0.6661859465219968,0.38322001499829195,-0.392490400097706,0.5052625644737573
1728328204550416100,3.371416015625,-0.02645242027938366,0.14008201658725739,-0.128774493932724,-0.9098314642906189,-0.11582158505916595,-0.39848753809928894,-0.19167011976242065,0.046592406928539276,0.14172804355621338,0.6669617583513562,0.383382297550159,-0.39214058708356303,0.5043868030614176
1728328204560447500,3.381447509765625,0.1615358591079712,0.25081557035446167,-0.03561951965093613,-0.9089078307151794,-0.1167043074965477,-0.40033334493637085,-0.11822241544723511,0.15686538815498352,0.1432381570339203,0.6674258622195189,0.3831986242673076,-0.3911421067325246,0.5046874678777661
1728328204570477300,3.391477294921875,0.45714807510375977,0.22329898178577423,-0.13063311576843262,-0.9078599810600281,-0.11857619136571884,-0.4021567106246948,-0.07089990377426147,0.19424447417259216,0.12383657693862915,0.6675073903687915,0.38373566678667254,-0.389446509654806,0.5054822491711121
1728328204580508200,3.401508056640625,0.8255473375320435,0.2328944057226181,-0.22545044124126434,-0.9067521095275879,-0.12284663319587708,-0.40337255597114563,-0.03340303897857666,0.1784496307373047,0.15376946330070496,0.6671315329493519,0.3857108352648452,-0.38670515172804837,0.5065785752424748
1728328204590539500,3.41153955078125,0.8833690881729126,0.2873952090740204,-0.2571476399898529,-0.9053581953048706,-0.1286104917526245,-0.4047050178050995,-0.023383378982543945,0.14898093044757843,0.10558712482452393,0.6665878061086874,0.38841387752214046,-0.38312157877891023,0.5079502735149451
1728328204600570400,3.4215703125,0.8356938362121582,0.20117083191871643,-0.22690080106258392,-0.9040404558181763,-0.13430698215961456,-0.4057988226413727,-0.05480670928955078,0.11444000899791718,0.015921682119369507,0.6659967276210419,0.3911238587537753,-0.3796349698892432,0.5092621440595645
1728328204610601500,3.4316015625,0.7213441133499146,0.09489340335130692,-0.15359196066856384,-0.9031671285629272,-0.13923916220664978,-0.40608087182044983,-0.057389020919799805,0.0345943421125412,0.011229336261749268,0.6652109572273587,0.39373519490075165,-0.3767388408746901,0.510426225031838
1728328204620632300,3.44163232421875,0.44549715518951416,-0.022075245156884193,-0.11050868034362793,-0.9028376936912537,-0.14279942214488983,-0.4055767357349396,-0.04807484149932861,-0.10773466527462006,0.0260755717754364,0.6644418861517551,0.3958480539021736,-0.37485457963191104,0.5111804049408394
1728328204630663400,3.451663330078125,0.12293001264333725,-0.14329542219638824,-0.12345590442419052,-0.9030508995056152,-0.14497314393520355,-0.4043290913105011,-0.051294922828674316,-0.21905583143234253,0.030641496181488037,0.6640206741666843,0.39722191410147495,-0.37423281710519674,0.5111176338123935
1728328204640694300,3.4616943359375,-0.15201246738433838,-0.10954038053750992,-0.0797872543334961,-0.9034084677696228,-0.14588375389575958,-0.403201162815094,-0.07666367292404175,-0.2653558850288391,0.11023262143135071,0.6640667415698167,0.39771320455662745,-0.374464456217136,0.5105056807955548
1728328204650725400,3.471725341796875,-0.5224986672401428,-0.12355846911668777,-0.01214668620377779,-0.9038282632827759,-0.14490315318107605,-0.4026136100292206,-0.08488041162490845,-0.21946153044700623,0.12800133228302002,0.6646241764849492,0.39697240657614113,-0.37564091599277616,0.5094915844277702
1728328204660755500,3.48175537109375,-0.7095803022384644,-0.1210392639040947,-0.0019220118410885334,-0.9043271541595459,-0.14234967529773712,-0.40240421891212463,-0.08450359106063843,-0.09873923659324646,0.12467914819717407,0.6656452010740067,0.395179328613816,-0.37766543677585696,0.5080538722883627
1728328204670786300,3.491786376953125,-0.6720247268676758,-0.13894397020339966,-0.03462030366063118,-0.9048211574554443,-0.1397126466035843,-0.4022180736064911,-0.09673541784286499,-0.036221250891685486,0.09029799699783325,0.666837844147584,0.39320775342466674,-0.3798402676008285,0.5063957324453295
1728328204680817400,3.5018173828125,-0.5329282283782959,-0.16732735931873322,-0.007941555231809616,-0.9054070115089417,-0.13748563826084137,-0.4016664922237396,-0.0951424241065979,-0.012981310486793518,0.02057841420173645,0.6677918777451249,0.391618715677573,-0.38183966384387663,0.5048636822921707
1728328204690848300,3.51184814453125,-0.3459962010383606,-0.2146136462688446,0.030828477814793587,-0.9061967730522156,-0.13557863235473633,-0.40053194761276245,-0.0660017728805542,0.02028319239616394,-0.016688913106918335,0.6682618157549417,0.3905901311813291,-0.3836318239328647,0.5036786285295698
1728328204700879400,3.52187939453125,-0.11095545440912247,-0.251149982213974,0.03502242639660835,-0.9071874618530273,-0.13434486091136932,-0.3987009823322296,-0.06444656848907471,0.02644990384578705,-0.06435734033584595,0.6681660705420599,0.390352062541534,-0.3850646367769912,0.5028962854931384
1728328204710910200,3.53191015625,0.007093155290931463,-0.28030121326446533,0.07443054765462875,-0.9083092212677002,-0.13372309505939484,-0.3963490128517151,-0.09208762645721436,0.012888699769973755,-0.10540556907653809,0.6676163093762723,0.39077765749056864,-0.3861584048983839,0.5024569845414808
1728328204720941300,3.54194140625,0.010182022117078304,-0.33631226420402527,0.17623867094516754,-0.9096947312355042,-0.1326455920934677,-0.3935234546661377,-0.10692214965820312,0.0013589411973953247,-0.0912785530090332,0.6666652287008328,0.39136941831161887,-0.3873864310127366,0.5023138877056872
1728328204730972400,3.551972412109375,-0.05086242035031319,-0.40843573212623596,0.20700617134571075,-0.9114226698875427,-0.13073477149009705,-0.39015066623687744,-0.07342565059661865,-0.0020625293254852295,-0.05584836006164551,0.6654917384664686,0.39183626856818754,-0.38908740282317916,0.5021915633647006
1728328204741003300,3.562003173828125,-0.08067797869443893,-0.4079712927341461,0.18325451016426086,-0.9132922291755676,-0.1286885142326355,-0.3864412307739258,-0.06504040956497192,-0.033939704298973083,-0.004137873649597168,0.6643115966345093,0.39228286161554865,-0.39101603019129305,0.5019072866182189
1728328204751033300,3.572033447265625,-0.22454006969928741,-0.37932100892066956,0.180067241191864,-0.9150469899177551,-0.1264672875404358,-0.38300830125808716,-0.057609498500823975,-0.06327581405639648,0.039471983909606934,0.663365276768704,0.39243658656928976,-0.39305137144597196,0.5014488568115913
1728328204761064200,3.582064208984375,-0.40891313552856445,-0.36319518089294434,0.20142126083374023,-0.916709303855896,-0.12346836179494858,-0.3799995481967926,-0.04169529676437378,-0.04006011039018631,0.06478369235992432,0.6627779488711237,0.3919211769417606,-0.39547189039920094,0.5007246715533417
1728328204771095300,3.59209521484375,-0.5011364817619324,-0.3430955111980438,0.17771007120609283,-0.9182949662208557,-0.11995764076709747,-0.3772857189178467,-0.03840065002441406,-0.008063651621341705,0.0791597068309784,0.6624908069474221,0.39090478952841795,-0.39818410810623533,0.4997487502495067
1728328204781126100,3.602126220703125,-0.5046138763427734,-0.32820045948028564,0.17876814305782318,-0.9197728037834167,-0.11642657965421677,-0.37478408217430115,-0.07217073440551758,0.004198133945465088,0.055005788803100586,0.6623739897574501,0.38970738499058416,-0.4009190865216961,0.49865110299708026
1728328204791157200,3.6121572265625,-0.4412202537059784,-0.2624403238296509,0.3644445240497589,-0.9211001992225647,-0.11202279478311539,-0.37286126613616943,-0.08753639459609985,0.030632369220256805,0.019330501556396484,0.6620568836029042,0.3882203202391405,-0.403552161940006,0.4981079448875127
1728328204801188400,3.622188232421875,-0.36127373576164246,-0.2789281904697418,0.36102741956710815,-0.9225527048110962,-0.10710759460926056,-0.3707084655761719,-0.04456472396850586,0.05428162217140198,-0.019641757011413574,0.6613436998208773,0.38683851850461526,-0.40620405547448873,0.49797489215150864
1728328204811219500,3.632219482421875,-0.2997552454471588,-0.29809442162513733,0.29215699434280396,-0.9239546060562134,-0.10287852585315704,-0.36840754747390747,-0.07097965478897095,0.06613531708717346,-0.0366673469543457,0.6605904546714633,0.38579368675466236,-0.40860671952579497,0.49781943004534884
1728328204821250600,3.64225048828125,-0.24558323621749878,-0.30807429552078247,0.20722375810146332,-0.9253465533256531,-0.09958227723836899,-0.3658106327056885,-0.08040624856948853,0.06541778892278671,-0.040805429220199585,0.6598520146791763,0.3851663606775354,-0.4107816383742802,0.4974946336699707
1728328204831281400,3.652281494140625,-0.23124104738235474,-0.31992802023887634,0.21939173340797424,-0.9266842603683472,-0.09682018309831619,-0.3631558418273926,-0.08181494474411011,0.03502204269170761,-0.05507209897041321,0.6591512278239744,0.38474236021596886,-0.4127897633690945,0.49708913978314323
1728328204841311500,3.6623115234375,-0.27010029554367065,-0.31551554799079895,0.28337177634239197,-0.928101658821106,-0.0935705229640007,-0.3603779077529907,-0.05546480417251587,0.017474889755249023,-0.03029268980026245,0.6583283937950103,0.3842054887428476,-0.41496649016472503,0.4967825755524399
1728328204851342300,3.67234228515625,-0.3568996489048004,-0.26942023634910583,0.3163403868675232,-0.9294431209564209,-0.08961819857358932,-0.35791677236557007,-0.027267932891845703,0.024814069271087646,0.021063894033432007,0.6575561976781192,0.38327778578619254,-0.41730055286614937,0.496566765601497
1728328204861373400,3.68237353515625,-0.4250645339488983,-0.2360103279352188,0.2765524685382843,-0.9306115508079529,-0.08542720228433609,-0.3558996617794037,-0.03261488676071167,0.04297720640897751,0.03355783224105835,0.6570353396816981,0.38198669708626243,-0.41968599977833787,0.4962404216942592
1728328204871404300,3.692404296875,-0.4465125501155853,-0.2309953272342682,0.20297734439373016,-0.9316530227661133,-0.08162154257297516,-0.3540630340576172,-0.034060537815093994,0.04934915900230408,0.032117992639541626,0.6567773043644781,0.3806224645122037,-0.4220130528897867,0.49565629230602043
1728328204881435400,3.702435302734375,-0.4865332841873169,-0.22390130162239075,0.15953080356121063,-0.9325988292694092,-0.07830877602100372,-0.35231727361679077,-0.019153058528900146,0.05288758873939514,0.030265390872955322,0.6567352857515143,0.3792798640735334,-0.42425010486521086,0.4948309457663687
1728328204891466500,3.712466552734375,-0.5472168326377869,-0.20519553124904633,0.152221217751503,-0.9334930777549744,-0.07503914088010788,-0.3506566286087036,0.0011809468269348145,0.0604974627494812,0.023798227310180664,0.6568687957363751,0.3777883531480276,-0.4265532245393086,0.4938136626907446
1728328204901497300,3.722497314453125,-0.5936852097511292,-0.1727634072303772,0.1713254153728485,-0.934268593788147,-0.07151367515325546,-0.3493255078792572,0.0012544989585876465,0.05437801033258438,0.02417612075805664,0.6571423478906057,0.3760237325975698,-0.42888623276378873,0.49277469367310783
1728328204911528400,3.732528564453125,-0.6497202515602112,-0.18482352793216705,0.20149129629135132,-0.935036301612854,-0.06755641102790833,-0.3480567932128906,-0.013724863529205322,0.03592488914728165,0.008426785469055176,0.657454072503497,0.3740091633718448,-0.4313800539764296,0.4917140733383894
1728328204921559300,3.742559326171875,-0.6831088662147522,-0.15715940296649933,0.20280317962169647,-0.9357731938362122,-0.06332630664110184,-0.346869558095932,-0.022875607013702393,0.03688278794288635,0.023642808198928833,0.6578243735048943,0.3717960925509261,-0.43397336267322933,0.4906139321813469
1728328204931590400,3.75259033203125,-0.6741331815719604,-0.15993733704090118,0.17958040535449982,-0.9364405870437622,-0.059159182012081146,-0.3458024263381958,-0.024756431579589844,0.05183492600917816,0.009361594915390015,0.6582797494660918,0.3695130076397338,-0.4365305603943071,0.48945791577086084
1728328204941620200,3.7626201171875,-0.6234373450279236,-0.16558904945850372,0.17526103556156158,-0.9371169805526733,-0.05525464192032814,-0.34461405873298645,-0.013093709945678711,0.06694284081459045,-0.0034387409687042236,0.6586885063907183,0.3673838072008126,-0.439001263292803,0.4882996658274729
1728328204951651300,3.7726513671875,-0.5154112577438354,-0.15546824038028717,0.17662270367145538,-0.9377809762954712,-0.051590725779533386,-0.34337344765663147,0.023291170597076416,0.1062324196100235,0.009541839361190796,0.6589343539133637,0.3655017547647277,-0.44127286306788766,0.48733180109241514
1728328204961682400,3.782682373046875,-0.3647441864013672,-0.10071641951799393,0.12367238849401474,-0.9383174777030945,-0.04862304404377937,-0.3423399031162262,0.042336344718933105,0.1550683081150055,0.005700618028640747,0.6590754628430185,0.36402194036178076,-0.4430779641793483,0.48661053783607533
1728328204971713300,3.79271337890625,-0.2073710709810257,-0.023042667657136917,0.06405273824930191,-0.9385673999786377,-0.04677470400929451,-0.3419117331504822,0.021422505378723145,0.17040136456489563,-0.003653883934020996,0.6592307773145,0.3630251751351552,-0.4441360714185258,0.4861798686106572
1728328204981744400,3.802744384765625,-0.11796649545431137,0.0030002789571881294,0.06231636181473732,-0.9386307597160339,-0.04566381871700287,-0.34188804030418396,0.0004286766052246094,0.1545047163963318,-0.032303035259246826,0.6593456003870698,0.3623952488499177,-0.4446635332010574,0.48601197746280633
1728328204991775200,3.812775146484375,-0.1569085568189621,-0.009136278182268143,0.07963170111179352,-0.9386729001998901,-0.04453850910067558,-0.3419206440448761,0.0050637125968933105,0.1091136634349823,-0.026380598545074463,0.6594001496835882,0.36181054355414277,-0.44512112437408075,0.4859546299056582
1728328205001806300,3.822806396484375,-0.2843587100505829,-0.009000509977340698,0.07061930000782013,-0.9387513995170593,-0.043034523725509644,-0.341897577047348,0.011520445346832275,0.05476849898695946,-0.0015623271465301514,0.6595769055995881,0.36093565278273343,-0.4458437687152381,0.4857027816784313
1728328205011837200,3.832837158203125,-0.44592657685279846,-0.008087843656539917,0.04783569276332855,-0.9388084411621094,-0.041209448128938675,-0.34196579456329346,0.0081290602684021,0.01249236986041069,0.015900880098342896,0.6600631411135687,0.359618028537296,-0.44686908340590226,0.48507692539361413
1728328205021868300,3.842868408203125,-0.5783196091651917,0.004038006998598576,0.02531733177602291,-0.9388437867164612,-0.03910093009471893,-0.3421166241168976,0.015519022941589355,0.00992608442902565,0.03817695379257202,0.6608983472070626,0.3578358109582301,-0.44821336693539776,0.4840164243558918
1728328205031898400,3.8528984375,-0.6324453949928284,0.04645124450325966,0.011324550956487656,-0.9387804865837097,-0.03682120889425278,-0.34254270792007446,0.030653536319732666,0.034135621041059494,0.044935405254364014,0.661985737990732,0.35572063433680484,-0.44965707214477424,0.4827487322427602
1728328205041929200,3.86292919921875,-0.6539844274520874,0.09092715382575989,-0.008516797795891762,-0.9385493993759155,-0.034598834812641144,-0.34340646862983704,0.04404860734939575,0.04912516102194786,0.024497896432876587,0.6632826690431223,0.3534146614611084,-0.45099317553050744,0.48141394161042095
1728328205051960300,3.872960205078125,-0.661186933517456,0.10580597072839737,-0.03620222210884094,-0.9381945729255676,-0.03252415359020233,-0.344576895236969,0.054176509380340576,0.055137645453214645,0.007174700498580933,0.6647305757084331,0.35102077344749183,-0.4522123082789512,0.48002268032775347
1728328205061991400,3.882991455078125,-0.6048118472099304,0.11638942360877991,-0.08397107571363449,-0.9378004670143127,-0.03085697628557682,-0.34580090641975403,0.0655164122581482,0.06604370474815369,-0.009194642305374146,0.6662213160035305,0.3487742567809762,-0.4532726104208814,0.47859136320691825
1728328205072022500,3.8930224609375,-0.5165954232215881,0.13293138146400452,-0.13805268704891205,-0.9373404383659363,-0.029941776767373085,-0.3471260666847229,0.054909348487854004,0.07016390562057495,-0.03664758801460266,0.6677449074545581,0.34685170735106063,-0.4540163699414268,0.477158065634267
1728328205082053400,3.903053466796875,-0.4039090871810913,0.15135852992534637,-0.13963699340820312,-0.9368067979812622,-0.02964457869529724,-0.3485892713069916,0.034691810607910156,0.06647925078868866,-0.056668758392333984,0.6692002533659128,0.34528648030699854,-0.4544035818421584,0.47588425586480776
1728328205092084500,3.91308447265625,-0.32196974754333496,0.1685234010219574,-0.13223926723003387,-0.936211109161377,-0.029646271839737892,-0.3501857817173004,0.0382007360458374,0.05900414288043976,-0.05942097306251526,0.6705003789714695,0.34400954124142535,-0.4544937206103288,0.4748919121095766
1728328205102115300,3.923115234375,-0.33776742219924927,0.16337215900421143,-0.1464240550994873,-0.9355834722518921,-0.02977829985320568,-0.3518478572368622,0.040457069873809814,0.043572209775447845,-0.05688914656639099,0.6717665245862781,0.34282599331919966,-0.4544737800121428,0.4739764667005361
1728328205112146400,3.933146484375,-0.388375461101532,0.15159966051578522,-0.17545437812805176,-0.9349824786186218,-0.029978612437844276,-0.35342520475387573,0.046508729457855225,0.031992729753255844,-0.01867547631263733,0.6731246454243122,0.3415883374142063,-0.45453800787688353,0.47288063688545606
1728328205122177300,3.94317724609375,-0.41959869861602783,0.13383910059928894,-0.19611278176307678,-0.9344238042831421,-0.03028019890189171,-0.35487374663352966,0.05908799171447754,0.022742312401533127,0.0056307315826416016,0.6745785636016168,0.3403084608862864,-0.4547013126209871,0.471572628475603
1728328205132207400,3.953207275390625,-0.4506133496761322,0.1055469959974289,-0.21528194844722748,-0.9339406490325928,-0.03064141236245632,-0.35611242055892944,0.0763508677482605,0.01832752488553524,0.007525533437728882,0.6760749068248116,0.3390179502816358,-0.4549841958755662,0.47008407102961197
1728328205142238500,3.963238525390625,-0.4730249345302582,0.09254859387874603,-0.2374194860458374,-0.933535635471344,-0.03111237660050392,-0.3571319878101349,0.08485698699951172,0.02825893647968769,0.029587000608444214,0.6776033806811546,0.33774973869127084,-0.4553670211971547,0.4684225403858277
1728328205152269300,3.973269287109375,-0.4694485664367676,0.08939487487077713,-0.2431468814611435,-0.9331426024436951,-0.03166722506284714,-0.35810938477516174,0.08061861991882324,0.038091134279966354,0.04306131601333618,0.6791755314011138,0.3364763812688819,-0.45577292149602994,0.4666642134165962
1728328205162300400,3.983300537109375,-0.4439987242221832,0.08629469573497772,-0.23058634996414185,-0.932755172252655,-0.032218124717473984,-0.35906824469566345,0.0745549201965332,0.0247412770986557,0.04603433609008789,0.680687342196756,0.3352557537406713,-0.4561463080289041,0.46497205238935874
1728328205172331300,3.993331298828125,-0.4728439748287201,0.0906233936548233,-0.23636087775230408,-0.9323678016662598,-0.03273149952292442,-0.36002662777900696,0.06508857011795044,0.019059576094150543,0.044429242610931396,0.6821818794170048,0.33402960819113836,-0.4565204348620689,0.46329403927460067
1728328205182362400,4.0033623046875,-0.5139819979667664,0.11192724108695984,-0.25551193952560425,-0.931928813457489,-0.033223554491996765,-0.3611164093017578,0.05685240030288696,0.021611571311950684,0.04883015155792236,0.6838080819238492,0.33265782906268804,-0.4569251241887339,0.46148115781885757
1728328205192393200,4.013393310546875,-0.5097696781158447,0.10312522947788239,-0.2600712776184082,-0.9314491748809814,-0.03379479795694351,-0.3622991442680359,0.044074058532714844,0.00013386085629463196,0.024347573518753052,0.6855076789226173,0.33124687165020084,-0.4573029003362025,0.45959663789537347
1728328205202424300,4.02342431640625,-0.5487896800041199,0.017522497102618217,-0.23177970945835114,-0.931139349937439,-0.034175317734479904,-0.3630591928958893,0.04248255491256714,-0.026310566812753677,-0.01372593641281128,0.6870894435754625,0.3298547784702338,-0.45789324427817685,0.4576439597652357
1728328205212455200,4.033455078125,-0.596002459526062,-0.028039660304784775,-0.23401649296283722,-0.9311078190803528,-0.034231655299663544,-0.363134503364563,0.06364554166793823,-0.017648275941610336,-0.00043648481369018555,0.6885350532639402,0.3284312934968168,-0.4588743043563806,0.45550737810658604
1728328205222485200,4.0434853515625,-0.5989075899124146,-0.007752979174256325,-0.2548680007457733,-0.9310939311981201,-0.034328196197748184,-0.3631608188152313,0.06776678562164307,-0.011112522333860397,0.02231016755104065,0.6900385714272234,0.3269588521520699,-0.45991031800259874,0.45324080279510814
1728328205232516400,4.053516357421875,-0.5803102254867554,-0.003779275342822075,-0.24896109104156494,-0.9310246706008911,-0.03453034907579422,-0.3633192777633667,0.06093788146972656,-0.03105197474360466,0.02352142333984375,0.6915662618667037,0.325504663408138,-0.4608547304393188,0.450994326419506
1728328205242547200,4.063547119140625,-0.5165546536445618,-0.02408348023891449,-0.2467980682849884,-0.9309985041618347,-0.034798771142959595,-0.3633609414100647,0.07717752456665039,-0.06911362707614899,0.04895371198654175,0.6929826997929214,0.32418594361187536,-0.4617607637397199,0.44883819017590754
1728328205252578300,4.073578369140625,-0.4850423038005829,-0.05195851996541023,-0.24710939824581146,-0.9310426115989685,-0.03530139848589897,-0.3631993234157562,0.0733000636100769,-0.116264209151268,0.052103251218795776,0.6942503240484466,0.3231246167758542,-0.462591413882331,0.44678449486400496
1728328205262609200,4.083609130859375,-0.6272005438804626,-0.10895491391420364,-0.2298867255449295,-0.9312642216682434,-0.035590726882219315,-0.36260247230529785,0.03261286020278931,-0.12531325221061707,-0.019889503717422485,0.6954828971315512,0.3219761506637224,-0.4637134043682967,0.4445278933870426
1728328205272640300,4.09364013671875,-0.7936143279075623,-0.09386410564184189,-0.09966375678777695,-0.9315832257270813,-0.03454142436385155,-0.3618835210800171,-0.008083641529083252,-0.05292200297117233,-0.054940640926361084,0.6967698805635477,0.3200872543456044,-0.46540561344714587,0.44210134195502193
