time,seconds_elapsed,rotationRateX,rotationRateY,rotationRateZ,gravityX,gravityY,gravityZ,accelerationX,accelerationY,accelerationZ,quaternionW,quaternionX,quaternionY,quaternionZ
1728065279677673000,0.1276728515625,0.037346482276916504,-0.14855419099330902,-0.0684932991862297,-0.10552918165922165,-0.38827288150787354,-0.9154822826385498,0.01475464552640915,-0.00010907649993896484,-0.014006853103637695,0.9786425707083679,0.19837318373263585,-0.05391610060723487,-2.2216033080144993e-17
1728065279687703800,0.137703857421875,0.06517745554447174,-0.13010668754577637,-0.05557430908083916,-0.10632652789354324,-0.38868942856788635,-0.9152132272720337,0.010943830013275146,0.0067161619663238525,-0.02501809597015381,0.9785737373874872,0.19857585144822235,-0.05441528231066805,-0.00043359507530778925
1728065279697735200,0.147735107421875,0.060553934425115585,-0.10603783279657364,-0.047263383865356445,-0.10713181644678116,-0.3892715275287628,-0.914871871471405,-0.0011598095297813416,0.004414379596710205,-0.032393813133239746,0.978486345268173,0.19887067284683843,-0.0549047659939954,-0.0007927516821181123
1728065279707764700,0.1577646484375,0.06531040370464325,-0.09734953194856644,-0.03403652831912041,-0.10784980654716492,-0.38985341787338257,-0.914539635181427,-0.00790337473154068,0.0005864500999450684,-0.029430091381072998,0.978401153414413,0.19916848732252548,-0.055336163214420135,-0.0010848160823561607
1728065279717795800,0.1677958984375,0.06302487850189209,-0.09186874330043793,0.0031459960155189037,-0.10860758274793625,-0.390444815158844,-0.9141976237297058,-0.0036513283848762512,-0.003064066171646118,-0.02556067705154419,0.9783135256432082,0.19947891947046079,-0.05576160888543553,-0.0012459654759177541
1728065279727826000,0.177825927734375,0.056857336312532425,-0.09146874397993088,0.035178497433662415,-0.10937632620334625,-0.3909216523170471,-0.9139021039009094,0.008500456809997559,-0.006844460964202881,-0.023613154888153076,0.978237984775429,0.1997381645862148,-0.05615694756990619,-0.001235102752953892
1728065279737856800,0.187856689453125,0.04977705702185631,-0.08273863792419434,0.051196079701185226,-0.11012933403253555,-0.3913917541503906,-0.9136104583740234,0.01784418523311615,-0.005153626203536987,-0.015909194946289062,0.9781635749418391,0.20000013458717783,-0.05652193707467212,-0.001115166589618506
1728065279747887900,0.197887939453125,0.0649958923459053,-0.07846202701330185,0.049671951681375504,-0.11074395477771759,-0.39191851019859314,-0.9133102893829346,0.01748223602771759,0.00031694769859313965,-0.0003859996795654297,0.9780869875949911,0.20029387930427414,-0.05680870138427264,-0.0009579667311512762
1728065279757918000,0.20791796875,0.07854446023702621,-0.08846006542444229,0.0332341231405735,-0.11120851337909698,-0.39234066009521484,-0.9130725264549255,0.011019304394721985,0.008673667907714844,0.013826310634613037,0.9780263466635576,0.20052766462347374,-0.0570296528403908,-0.0008589718489120889
1728065279767948800,0.21794873046875,0.10001019388437271,-0.09855519980192184,0.007604127284139395,-0.11160161346197128,-0.3925921320915222,-0.9129164814949036,0.006804250180721283,0.015959471464157104,0.019819557666778564,0.9779864643084091,0.20066398684859862,-0.057233951688742145,-0.0008632497919412011
1728065279777979000,0.227978759765625,0.12288915365934372,-0.10326100140810013,-0.03417474403977394,-0.11217008531093597,-0.39278459548950195,-0.9127640128135681,0.0009029805660247803,0.01671651005744934,0.019224584102630615,0.9779473312902318,0.20076121739676123,-0.0575580554944574,-0.0010146648783349271
1728065279788010000,0.238010009765625,0.13574989140033722,-0.09725307673215866,-0.0422917939722538,-0.11292700469493866,-0.39334386587142944,-0.9124298095703125,-0.0064882636070251465,0.013934105634689331,0.0123138427734375,0.9778616062447787,0.2010501650236167,-0.05799949188942565,-0.001253285477754854
1728065279798040800,0.248040771484375,0.13929055631160736,-0.0848962739109993,-0.03298058360815048,-0.1134505346417427,-0.394204705953598,-0.9119932055473328,-0.008894436061382294,0.011407464742660522,0.010687053203582764,0.9777496303743369,0.2014989134257884,-0.05832308062199561,-0.001489350071235986
1728065279808071000,0.25807080078125,0.10321304947137833,-0.08011467754840851,-0.025723734870553017,-0.11339472979307175,-0.39507752656936646,-0.9116224050521851,-0.00235845148563385,0.007229626178741455,0.005967497825622559,0.9776544728860084,0.2019498709492606,-0.0583528263262498,-0.0017407163059550935
1728065279818101800,0.268101806640625,0.06879781931638718,-0.08756859600543976,-0.007093592081218958,-0.11307956278324127,-0.39567363262176514,-0.9114030003547668,0.002026088535785675,0.0009593069553375244,0.0033524036407470703,0.9775978904698676,0.20225284911233557,-0.05824342272294505,-0.0019721224604423633
1728065279828131800,0.2781318359375,0.026962019503116608,-0.09731794893741608,0.01457282155752182,-0.11310014873743057,-0.3959580361843109,-0.9112768769264221,0.0071736350655555725,-0.006690889596939087,0.01003175973892212,0.9775653250345551,0.20239671921660557,-0.05828480648791728,-0.0021103628896325896
1728065279838163000,0.288162841796875,0.008063430897891521,-0.09328112751245499,0.008759940043091774,-0.11355327069759369,-0.3958553373813629,-0.9112651944160461,0.010480150580406189,-0.005466043949127197,0.005717039108276367,0.9775622215421853,0.20233987925560706,-0.05853193805894939,-0.0021843226669728214
1728065279848193800,0.29819384765625,-0.005092117935419083,-0.0828547477722168,0.005107680801302195,-0.11412119120359421,-0.39547643065452576,-0.9113587141036987,0.0022284910082817078,0.0011130571365356445,0.007916390895843506,0.9775860054170001,0.20213597499883337,-0.05883601164366562,-0.0022591963999575534
1728065279858223900,0.308223876953125,-0.029914909973740578,-0.0715126097202301,0.013844713568687439,-0.11483645439147949,-0.3949171006679535,-0.9115114212036133,-0.004426248371601105,0.006718277931213379,0.01931476593017578,0.9776249675790575,0.20183948949316002,-0.05920395154455566,-0.002284166030076884
1728065279868255000,0.3182548828125,-0.049506254494190216,-0.07991509884595871,0.03212624788284302,-0.1158575490117073,-0.3941710591316223,-0.9117051362991333,0.003262929618358612,0.011175453662872314,0.0297013521194458,0.9776746828243638,0.20144997242978863,-0.05971050427085849,-0.0022272302967685873
1728065279878285000,0.32828515625,-0.07466886192560196,-0.09145164489746094,0.03989069163799286,-0.11704248189926147,-0.3933766186237335,-0.9118968844413757,0.012168817222118378,0.00809219479560852,0.04101675748825073,0.9777239375938376,0.20103877107322274,-0.06029073062468277,-0.002121234241042717
1728065279888316000,0.33831591796875,-0.08356902003288269,-0.1032247394323349,0.03268178179860115,-0.11806195229291916,-0.3925514221191406,-0.912121057510376,0.015568658709526062,0.004764556884765625,0.04484200477600098,0.977781366686818,0.20060745332482846,-0.060795818971069816,-0.0020639395591735134
1728065279898347000,0.348346923828125,-0.08004938811063766,-0.10153496265411377,0.021279726177453995,-0.11897576600313187,-0.3918401598930359,-0.9123080968856812,0.009371884167194366,0.0037176311016082764,0.04167211055755615,0.9778291202977375,0.20023200275036163,-0.06126250618305421,-0.00207949148043773
1728065279908376800,0.358376953125,-0.0718042328953743,-0.08957800269126892,0.016633043065667152,-0.11971300095319748,-0.39135950803756714,-0.9124179482460022,0.0036393925547599792,0.0018179118633270264,0.025119364261627197,0.9778571364749498,0.199976390713743,-0.061647860653773326,-0.0021317434529039433
1728065279918408000,0.368407958984375,-0.04748984053730965,-0.08640004694461823,0.010384734719991684,-0.12029816210269928,-0.39100754261016846,-0.9124919176101685,0.00262238085269928,0.003083348274230957,0.009339451789855957,0.9778758162574847,0.1997870661885576,-0.06196109757265653,-0.002208247437246556
1728065279928438000,0.37843798828125,-0.03882052004337311,-0.09492211788892746,-0.0038812870625406504,-0.12100579589605331,-0.39075586199760437,-0.912506103515625,0.0023687034845352173,0.0010159015655517578,0.0034942626953125,0.9778791623455699,0.1996501151443959,-0.062343931076737,-0.0023137080535595178
1728065279938468900,0.38846875,-0.037715308368206024,-0.10040903091430664,-0.0012969556264579296,-0.12189754843711853,-0.39051365852355957,-0.9124911427497864,0.0007122382521629333,0.000605851411819458,0.00035125017166137695,0.9778750649661512,0.19951754713709266,-0.06282659078402082,-0.0024448165286802648
1728065279948500000,0.3985,-0.0324014388024807,-0.0963917002081871,0.016048746183514595,-0.12269902974367142,-0.3903164863586426,-0.9124680757522583,0.008166559040546417,0.007656574249267578,0.0005570650100708008,0.9778689217456368,0.1994109578287659,-0.06325526558396173,-0.002536680747071844
1728065279958530000,0.408530029296875,-0.06323924660682678,-0.1007600799202919,0.004604875575751066,-0.12332034111022949,-0.39015892148017883,-0.9124516844749451,0.017134428024291992,0.005271285772323608,0.007102012634277344,0.9778645355950619,0.1993251699033064,-0.06358949649030501,-0.0026175492421754085
1728065279968561000,0.418560791015625,-0.10873016715049744,-0.12161838263273239,-0.026032395660877228,-0.12396267056465149,-0.38970306515693665,-0.912559449672699,0.0017550289630889893,-0.0037295520305633545,0.028144776821136475,0.9778914278644621,0.1990700026606514,-0.06396402562986304,-0.0028559615323278426
1728065279978591000,0.428591064453125,-0.1487598717212677,-0.13166303932666779,-0.041754100471735,-0.12480711936950684,-0.3888486325740814,-0.9128088355064392,-0.004816301167011261,-0.008139252662658691,0.033734679222106934,0.9779540710899958,0.19859508199258838,-0.06446383054163254,-0.0032181275372420103
1728065279988621800,0.438621826171875,-0.19196519255638123,-0.1314934939146042,-0.04705379158258438,-0.12574350833892822,-0.3875347673892975,-0.9132389426231384,-0.0005687475204467773,-0.007057517766952515,0.03247112035751343,0.9780626013620668,0.19787201745635624,-0.06501679121368267,-0.003632339841674459
1728065279998653000,0.44865283203125,-0.22939325869083405,-0.14070403575897217,-0.04603486880660057,-0.12669788300991058,-0.38574331998825073,-0.9138652682304382,0.0003551095724105835,-0.00713995099067688,0.028779208660125732,0.9782209160364672,0.19689255208767348,-0.06557956399189689,-0.00407513286317946
1728065280008683000,0.45868310546875,-0.26794350147247314,-0.16085904836654663,-0.03940945491194725,-0.12779513001441956,-0.38363170623779297,-0.9146010875701904,0.006075754761695862,-0.0030870437622070312,0.00894618034362793,0.9784069260566961,0.19574243796453267,-0.06621445789855597,-0.004532076131135077
1728065280018713900,0.4687138671875,-0.29063576459884644,-0.18497370183467865,-0.0344085693359375,-0.12911580502986908,-0.38123196363449097,-0.9154186844825745,0.01675008237361908,0.0041567981243133545,-0.007722795009613037,0.9786135428061394,0.1944402174721162,-0.06696023919434568,-0.004990211793610551
1728065280028744000,0.478743896484375,-0.28636398911476135,-0.20165111124515533,-0.02087731473147869,-0.13044625520706177,-0.3786994516849518,-0.9162808060646057,0.021086513996124268,0.010245472192764282,-0.018396317958831787,0.9788313821545772,0.1930681081777212,-0.06770746382138991,-0.005443993810293164
1728065280038775000,0.488775146484375,-0.26620760560035706,-0.22027833759784698,-0.020785968750715256,-0.1316588968038559,-0.37652677297592163,-0.9170024991035461,0.017706260085105896,0.009674996137619019,-0.024876773357391357,0.9790129904378004,0.1918864091708678,-0.06839857742316091,-0.005907921852260467
1728065280048806000,0.498805908203125,-0.25361931324005127,-0.2238629013299942,-0.030529676005244255,-0.13337157666683197,-0.3751182556152344,-0.9173321723937988,0.00643371045589447,0.010128021240234375,-0.023601055145263672,0.9790942601880783,0.19111178547822003,-0.0693555283953368,-0.006382711674057956
1728065280058836000,0.5088359375,-0.27170270681381226,-0.21290212869644165,-0.06190517544746399,-0.13516195118427277,-0.3740909993648529,-0.9174896478652954,-0.004700109362602234,0.009939998388290405,-0.00482785701751709,0.9791305450076399,0.1905320832202252,-0.07037550874658557,-0.0069585776168575916
1728065280068867000,0.5188671875,-0.34791603684425354,-0.21072866022586823,-0.10059850662946701,-0.1365690678358078,-0.3726033568382263,-0.91788649559021,-0.0084962397813797,0.007811486721038818,0.01860976219177246,0.9792261331535559,0.18969206614249237,-0.07122961691725542,-0.007724978185302698
1728065280078897000,0.52889697265625,-0.39517223834991455,-0.2692367136478424,-0.11483363807201385,-0.13810092210769653,-0.3703138828277588,-0.9185835719108582,0.0011532902717590332,0.007215768098831177,0.048115432262420654,0.9793960221697244,0.18841219692129244,-0.07217379049112826,-0.00868448180625783
1728065280088928000,0.538927978515625,-0.4301982820034027,-0.34527304768562317,-0.08817406743764877,-0.14057223498821259,-0.3666861653327942,-0.9196633696556091,0.02462068200111389,0.003984779119491577,0.06552213430404663,0.9796628357643575,0.1864268907599548,-0.07357532921435199,-0.009617183049452726
1728065280098958800,0.548958740234375,-0.4740821123123169,-0.40476086735725403,-0.09376510232686996,-0.14373701810836792,-0.3626111149787903,-0.9207892417907715,0.03573530912399292,0.004350006580352783,0.054166316986083984,0.9799400885130096,0.18420315421730435,-0.0753297461130956,-0.010586832626932675
1728065280108989000,0.558989013671875,-0.4475594758987427,-0.4239727556705475,-0.08499132096767426,-0.1472628116607666,-0.3584620952606201,-0.9218560457229614,0.020904764533042908,0.005434751510620117,0.029552578926086426,0.9802007602638075,0.18193731493743345,-0.07727085783499406,-0.011594918613561449
1728065280119020000,0.56902001953125,-0.39656180143356323,-0.4182097017765045,-0.06221170723438263,-0.15092752873897552,-0.3546694815158844,-0.9227299094200134,-0.001614585518836975,-0.0029354989528656006,-0.008666574954986572,0.9804125614782132,0.17986708826065745,-0.07926464313276389,-0.012499699669656186
1728065280129050000,0.579050048828125,-0.3740580976009369,-0.39599013328552246,-0.03729809820652008,-0.1545226275920868,-0.3511834144592285,-0.9234679341316223,-0.021579056978225708,-0.0037055015563964844,-0.038079917430877686,0.9805908109782434,0.17796910343098532,-0.08119750153496295,-0.01326189311067281
1728065280139081000,0.5890810546875,-0.35992711782455444,-0.37587395310401917,0.027910197153687477,-0.1580883264541626,-0.3477986752986908,-0.9241451025009155,-0.034050360321998596,-0.001246124505996704,-0.06552469730377197,0.9807559573694875,0.1761427134423963,-0.08307341351213998,-0.013798944832673958
1728065280149112000,0.599112060546875,-0.3969639539718628,-0.34634944796562195,0.18683619797229767,-0.1618165224790573,-0.34417980909347534,-0.9248543977737427,-0.021060064435005188,-0.005246460437774658,-0.07775485515594482,0.9809371918082624,0.17424234904960811,-0.08492582806876886,-0.01376612735386021
1728065280159142100,0.60914208984375,-0.4917445480823517,-0.4732477366924286,0.45985016226768494,-0.16643281280994415,-0.33931925892829895,-0.9258307814598083,0.04475921392440796,-0.01103779673576355,-0.06672298908233643,0.9812024656213583,0.17179819847744102,-0.08700576459803751,-0.0125371893294624
1728065280169173000,0.619173095703125,-0.48529961705207825,-0.5987101793289185,0.5956633687019348,-0.17317841947078705,-0.3338716924190521,-0.9265737533569336,0.15901824831962585,-0.010915875434875488,-0.0659799575805664,0.9814141039634146,0.1691201591075431,-0.09006380247267895,-0.010647328997494836
1728065280179203000,0.629203125,-0.5078096985816956,-0.653372585773468,0.7076815366744995,-0.18119029700756073,-0.3281073570251465,-0.927100658416748,0.11202219128608704,-0.05095145106315613,-0.08286333084106445,0.9815715942659342,0.16634844036489319,-0.09369022174733427,-0.008226779233922055
1728065280189234000,0.63923388671875,-0.49470481276512146,-0.5777018666267395,0.7637410759925842,-0.18935377895832062,-0.3220413327217102,-0.9275960922241211,0.035377323627471924,-0.06374660134315491,-0.0891733169555664,0.9817175565312035,0.16348875109898142,-0.0973312997180461,-0.005351770098647168
1728065280199265000,0.64926513671875,-0.3603193163871765,-0.39767375588417053,0.4755324423313141,-0.19622281193733215,-0.3166305124759674,-0.9280310869216919,-0.02975986897945404,-0.09750828146934509,-0.1132591962814331,0.981839444911863,0.16097374574693984,-0.10035884020213638,-0.0026393426526321777
1728065280209295000,0.659295166015625,-0.39553290605545044,-0.39758777618408203,-0.8547519445419312,-0.1971691995859146,-0.3135607838630676,-0.9288724064826965,-0.08527100086212158,-0.18598142266273499,-0.15346401929855347,0.9820474653239678,0.15919667499631523,-0.1010950696185236,-0.004369183363953053
1728065280219326000,0.669325927734375,-0.4668952226638794,-0.7444447875022888,-0.7061728239059448,-0.20041348040103912,-0.3112331032752991,-0.928960919380188,-0.04487156867980957,-0.2933353781700134,-0.126611590385437,0.9820353415413119,0.15747831694302625,-0.10353796501764614,-0.009342244057734003
1728065280229356000,0.67935595703125,-0.5398569107055664,-0.9764297008514404,0.17345301806926727,-0.20752687752246857,-0.3070516586303711,-0.9287905693054199,0.3033825755119324,-0.1669626235961914,-0.06647920608520508,0.9819679423625187,0.15507575998992318,-0.10749990387582373,-0.011594485765636875
1728065280239387100,0.68938720703125,-0.4228437542915344,-0.9433654546737671,0.6826803088188171,-0.21817834675312042,-0.301381379365921,-0.9282066226005554,0.37465721368789673,-0.045893341302871704,-0.10421836376190186,0.9818339908477755,0.1522995709587954,-0.11270110757013516,-0.010273202811065663
1728065280249418000,0.69941796875,-0.08986559510231018,-0.8216361999511719,0.5766614675521851,-0.22836565971374512,-0.297453910112381,-0.9270222783088684,0.18944047391414642,-0.01741120219230652,-0.1580607295036316,0.9815547083238294,0.1505813594672194,-0.11753343368782605,-0.007853986055404006
1728065280259448000,0.709447998046875,0.20018407702445984,-0.5900921821594238,0.4681895673274994,-0.23647738993167877,-0.2969593405723572,-0.9251452088356018,-0.002749919891357422,-0.040549784898757935,-0.22806835174560547,0.9810894896441325,0.15059657913594152,-0.12144165820324393,-0.00601898350278121
1728065280269479000,0.71947900390625,0.38156965374946594,-0.7076773643493652,0.4422035217285156,-0.24377956986427307,-0.29864755272865295,-0.922703206539154,0.03928126394748688,-0.05967456102371216,-0.22446781396865845,0.9804773207259304,0.1517870378657258,-0.12493636906138497,-0.004002276442570401
1728065280279509000,0.729509033203125,0.4203106462955475,-0.7884214520454407,0.6049474477767944,-0.2522122263908386,-0.301065593957901,-0.9196458458900452,0.16831937432289124,-0.069082111120224,-0.18745559453964233,0.9797037924162977,0.15340985568780835,-0.12900576350563697,-0.0018338354555383878
1728065280289540000,0.7395400390625,0.42672452330589294,-0.8587249517440796,0.7807562351226807,-0.261972576379776,-0.303182989358902,-0.9162153005599976,0.181314617395401,-0.12478023767471313,-0.19091665744781494,0.9788289093477733,0.1550449171079242,-0.13361673966875426,0.0012793874539171694
1728065280299571000,0.749571044921875,0.4192168116569519,-0.9293022155761719,0.8022570013999939,-0.27261167764663696,-0.30488321185112,-0.9125399589538574,0.17582517862319946,-0.15539810061454773,-0.18355989456176758,0.9778789617219247,0.15656699939988816,-0.13862470422773915,0.004775292637304725
1728065280309601000,0.75960107421875,0.4338064193725586,-0.9864606857299805,0.8014431595802307,-0.28382810950279236,-0.30653300881385803,-0.9085588455200195,0.14057859778404236,-0.18135148286819458,-0.20417314767837524,0.9768373564403295,0.15811786340855366,-0.14394211298605575,0.008259807350057805
1728065280319632100,0.769632080078125,0.480327844619751,-1.0442731380462646,0.8282175064086914,-0.29558348655700684,-0.3082956373691559,-0.9042035937309265,0.12590575218200684,-0.18190819025039673,-0.223466694355011,0.9756860986208643,0.15979251566049202,-0.14954779172004073,0.011765558749877243
1728065280329662000,0.779661865234375,0.5130022168159485,-1.065017580986023,0.8777539134025574,-0.30778566002845764,-0.3101959824562073,-0.8994700908660889,0.12257444858551025,-0.16651907563209534,-0.24051403999328613,0.974420793692833,0.16163506212888817,-0.15536751686387182,0.015463801691492815
1728065280339693000,0.789693115234375,0.5896072387695312,-1.1082953214645386,0.9364531636238098,-0.3203992545604706,-0.31227126717567444,-0.8943327069282532,0.11901375651359558,-0.14425644278526306,-0.23706072568893433,0.9730304361777692,0.16368858231859007,-0.161368188226999,0.019448342311198682
1728065280349724200,0.79972412109375,0.623895525932312,-1.1299800872802734,0.9436349272727966,-0.3333941698074341,-0.3146551251411438,-0.8887296915054321,0.1181994378566742,-0.11762633919715881,-0.25712907314300537,0.9714971273784746,0.16601854715872613,-0.16754994066663198,0.023628653987745964
1728065280359753700,0.809753662109375,0.6352762579917908,-1.1800073385238647,0.9375437498092651,-0.3466322124004364,-0.31702351570129395,-0.8828036189079285,0.11721628904342651,-0.06597205996513367,-0.27468234300613403,0.9698613285762112,0.16841544886609552,-0.17388050120972845,0.02776544564279791
1728065280369785000,0.81978515625,0.6923156380653381,-1.2429851293563843,0.9744932651519775,-0.3603794574737549,-0.3194533586502075,-0.876399576663971,0.13599893450737,-0.00922095775604248,-0.25041621923446655,0.9680798475709975,0.1709514484793787,-0.18048771782069092,0.03195766606994762
1728065280379816000,0.82981591796875,0.78729647397995,-1.3001195192337036,1.0455275774002075,-0.3747921586036682,-0.32216882705688477,-0.8693320155143738,0.1640987992286682,0.01610809564590454,-0.24007350206375122,0.9660943395203274,0.17380685170980847,-0.1874171271833194,0.03643959594385214
1728065280389845800,0.839845703125,0.8837740421295166,-1.32977294921875,1.1142988204956055,-0.3897477388381958,-0.3252519369125366,-0.8615729212760925,0.1628190279006958,0.011897444725036621,-0.22796565294265747,0.9638872830611169,0.17706176558548967,-0.19458330641470006,0.04132739651838832
1728065280399877000,0.849877197265625,0.9595252871513367,-1.3347266912460327,1.1357799768447876,-0.40494391322135925,-0.32868096232414246,-0.8532228469848633,0.12865298986434937,-0.024712562561035156,-0.22192668914794922,0.9614828854089911,0.18068555918822857,-0.20184473488777493,0.04649903044298144
1728065280409907000,0.859906982421875,0.9787946939468384,-1.3371031284332275,1.108412265777588,-0.4200715124607086,-0.33227360248565674,-0.8444727659225464,0.08167731761932373,-0.06718623638153076,-0.2189427614212036,0.9589390456274809,0.18452195537939622,-0.20908199317898787,0.051695056461559884
1728065280419937800,0.869937744140625,0.9565829038619995,-1.3441888093948364,1.0699663162231445,-0.43505173921585083,-0.3357331454753876,-0.8354718685150146,0.04207688570022583,-0.09856250882148743,-0.21511101722717285,0.9563042061084547,0.1883675916968144,-0.21629080755873656,0.056729857690207657
1728065280429968000,0.8799677734375,0.8954834342002869,-1.3449524641036987,1.0065737962722778,-0.44980093836784363,-0.33885249495506287,-0.8263522982597351,0.01912158727645874,-0.10493412613868713,-0.1851986050605774,0.9536251499152615,0.19206354781186644,-0.22346237826762144,0.061443826324754154
1728065280439999000,0.8899990234375,0.8432996273040771,-1.3432976007461548,0.9806584715843201,-0.46430787444114685,-0.34140121936798096,-0.8172290921211243,0.0035992562770843506,-0.08190804719924927,-0.15840256214141846,0.9509338806189856,0.19548215074160136,-0.23059091399895124,0.06587417792717792
1728065280450029800,0.90002978515625,0.8571279644966125,-1.3368539810180664,0.9890612363815308,-0.47864845395088196,-0.34358495473861694,-0.8079882860183716,-0.0004622936248779297,-0.05340293049812317,-0.12107360363006592,0.9481890045006686,0.1987829258085118,-0.2376788117412076,0.07022631985251541
1728065280460060000,0.910059814453125,0.9673274755477905,-1.3204231262207031,1.0009483098983765,-0.4928276240825653,-0.34598127007484436,-0.7983846068382263,-0.01463395357131958,-0.03550371527671814,-0.11869919300079346,0.9453094517006327,0.20233783512608494,-0.244677560203336,0.07471562664760392
1728065280470090800,0.9200908203125,1.1672868728637695,-1.2918989658355713,1.015677809715271,-0.5067980885505676,-0.3493059575557709,-0.7881250381469727,-0.03716248273849487,-0.02075016498565674,-0.17179012298583984,0.9422019116059138,0.2065853681646597,-0.25151534793626823,0.07948678252890339
1728065280480121900,0.930121826171875,1.4145864248275757,-1.234226942062378,1.0116177797317505,-0.5203526020050049,-0.35410135984420776,-0.777074933052063,-0.06300622224807739,-0.013223469257354736,-0.223352313041687,0.938817392385865,0.21184540931953877,-0.2580388830084825,0.08461312622781013
1728065280490152000,0.94015185546875,1.6788955926895142,-1.184965968132019,1.0299222469329834,-0.5334180593490601,-0.3604937493801117,-0.7651858925819397,-0.08196890354156494,-0.009150415658950806,-0.2342800498008728,0.9351287325949811,0.21821860366555743,-0.2641736084777709,0.09015137504774674
1728065280500182800,0.950182861328125,1.882737159729004,-1.1558576822280884,1.0700321197509766,-0.546225905418396,-0.3682654798030853,-0.7523415684700012,-0.07958287000656128,-0.020360589027404785,-0.2513510584831238,0.931084986106362,0.22565530142433282,-0.2700164972502487,0.09618494602039694
1728065280510212900,0.960212890625,1.9428186416625977,-1.1153888702392578,1.090246319770813,-0.5587819218635559,-0.37656429409980774,-0.7388924956321716,-0.06417340040206909,-0.04489868879318237,-0.2325887680053711,0.9267835280503185,0.23365580215062215,-0.2756060886819321,0.10256016688282876
1728065280520244000,0.970243896484375,1.898924708366394,-1.107297658920288,1.1022648811340332,-0.5711149573326111,-0.38445740938186646,-0.7252725958824158,-0.055685579776763916,-0.061068713665008545,-0.155800461769104,0.9223622881707974,0.24162506656806637,-0.2810356563398115,0.1090151512096472
1728065280530274800,0.98027490234375,1.799842357635498,-1.127791404724121,1.1214582920074463,-0.583509624004364,-0.39131876826286316,-0.7116082310676575,-0.048188984394073486,-0.08242082595825195,-0.11720341444015503,0.9178699507373274,0.24919331823251864,-0.2865285087858498,0.11540798791917574
1728065280540305000,0.990304931640625,1.712050437927246,-1.125873327255249,1.1611478328704834,-0.5960201621055603,-0.39695417881011963,-0.6979880928993225,-0.0463595986366272,-0.09685072302818298,-0.08782428503036499,0.913328361588056,0.25625666751427534,-0.29212749853196124,0.121759819250958
1728065280550336000,1.0003359375,1.5960406064987183,-1.0723090171813965,1.1391652822494507,-0.6083312630653381,-0.40147820115089417,-0.6846520900726318,-0.04764413833618164,-0.09746894240379333,-0.08700013160705566,0.908799844096299,0.2628371940715952,-0.29764167765673266,0.12809800257612333
1728065280560365800,1.01036572265625,1.5834805965423584,-1.005630373954773,1.1518430709838867,-0.6199383735656738,-0.4051872491836548,-0.6719374060630798,-0.07009464502334595,-0.05352243781089783,-0.09321463108062744,0.9043929549910368,0.2689810380932037,-0.30278789806422823,0.13432151983619706
1728065280570397000,1.02039697265625,1.6267019510269165,-1.014477014541626,1.1939697265625,-0.6314449310302734,-0.4085442125797272,-0.6590667963027954,-0.04761695861816406,0.004323631525039673,-0.10547482967376709,0.8998550420911345,0.2751367739302181,-0.30784145414409825,0.14069289765548135
1728065280580427800,1.030427734375,1.691601276397705,-1.0315585136413574,1.207939624786377,-0.6431100964546204,-0.411681205034256,-0.645699679851532,-0.025514841079711914,0.04458525776863098,-0.14385110139846802,0.8950751345323059,0.281461276009952,-0.31293722892269965,0.14727678760681753
1728065280590457900,1.040457763671875,1.6986451148986816,-0.9984523057937622,1.159813404083252,-0.6545543074607849,-0.4148469567298889,-0.632029116153717,-0.03430378437042236,0.0826784074306488,-0.15616369247436523,0.8901420937785132,0.28795974427014925,-0.31790665605384893,0.1538237819314158
1728065280600489000,1.050489013671875,1.6644501686096191,-0.9504054188728333,1.146834135055542,-0.665464460849762,-0.41775980591773987,-0.6185740232467651,-0.05610841512680054,0.10797587037086487,-0.09524738788604736,0.8852183071318439,0.2943579174468251,-0.32259323846949506,0.1602362185929964
1728065280610518800,1.060518798828125,1.6380531787872314,-0.936638593673706,1.1922216415405273,-0.676145076751709,-0.4200119972229004,-0.6053245067596436,-0.06256341934204102,0.09130716323852539,-0.08298420906066895,0.8802704427109272,0.30052000738500145,-0.32714747610103234,0.16669204596170048
1728065280620549600,1.070549560546875,1.615888237953186,-0.9504433274269104,1.225868821144104,-0.6869345903396606,-0.4215003550052643,-0.5919952988624573,-0.05627530813217163,0.04672923684120178,-0.0819091796875,0.8751952394894035,0.30649408354730634,-0.3317585515355098,0.17329464941167436
1728065280630580700,1.080580810546875,1.498111605644226,-0.9424604177474976,1.2050386667251587,-0.6976728439331055,-0.42221173644065857,-0.5787831544876099,-0.05708795785903931,0.01403912901878357,-0.05285441875457764,0.870098937887021,0.3121333474821682,-0.33642414486499644,0.1797761359739437
1728065280640610800,1.09061083984375,1.386621356010437,-0.9099639654159546,1.1979809999465942,-0.7080514430999756,-0.4220040738582611,-0.5661941170692444,-0.06540131568908691,0.01799711585044861,0.00407564640045166,0.8651663728582748,0.3171886824813111,-0.34101945346539686,0.1859686938660183
1728065280650641700,1.1006416015625,1.3573778867721558,-0.9278733730316162,1.2358591556549072,-0.7183613181114197,-0.42097151279449463,-0.5538411736488342,-0.06023365259170532,0.013561874628067017,-0.007590770721435547,0.8602409004475174,0.32187410236009645,-0.3456537127090758,0.1921099190572611
1728065280660671700,1.110671630859375,1.3463116884231567,-0.8614365458488464,1.2523430585861206,-0.7285525798797607,-0.4193686842918396,-0.5416097640991211,-0.04316073656082153,0.0050162672996521,-0.016144752502441406,0.8552506084051491,0.3264052580824762,-0.3502209867271555,0.19837175049885103
1728065280670702600,1.12070263671875,1.2968508005142212,-0.7834688425064087,1.249413013458252,-0.7382052540779114,-0.4172588288784027,-0.5300454497337341,-0.03936737775802612,0.01891288161277771,-0.0065604448318481445,0.8503592637215669,0.330675314146076,-0.3544448106503465,0.20472410521722895
1728065280680733700,1.130733642578125,1.2224764823913574,-0.7533324956893921,1.2163546085357666,-0.7473881840705872,-0.4147050678730011,-0.5190672278404236,-0.03163409233093262,0.0396898090839386,-0.049551546573638916,0.8455992467802822,0.3346318164995501,-0.35845214415801163,0.21093995718360162
1728065280690763800,1.140763671875,1.147916555404663,-0.7506397366523743,1.1758238077163696,-0.7561948895454407,-0.41178953647613525,-0.5085260272026062,-0.0061342716217041016,0.06829893589019775,-0.05594229698181152,0.8409692436231502,0.33827752036630376,-0.3623607216300833,0.21687289120316205
1728065280700794600,1.150794677734375,1.1098560094833374,-0.7678227424621582,1.1649665832519531,-0.7648265957832336,-0.40855246782302856,-0.4981217682361603,0.026545286178588867,0.10104209184646606,-0.05612325668334961,0.8363774761878312,0.3417112783196365,-0.36629567452100387,0.22256167204579425
1728065280710824700,1.16082470703125,1.0917726755142212,-0.7614211440086365,1.1550630331039429,-0.7733569145202637,-0.40503183007240295,-0.4877176284790039,0.061091840267181396,0.11780038475990295,-0.055281639099121094,0.8317529321993481,0.34503648016263594,-0.3702580286294227,0.22813600499703704
1728065280720855800,1.170855712890625,1.0973085165023804,-0.7795833945274353,1.1223863363265991,-0.7816608548164368,-0.40141579508781433,-0.4773593246936798,0.06573355197906494,0.12515535950660706,-0.06397682428359985,0.8271112888967056,0.3483294310666283,-0.37414829863146676,0.233595342882575
1728065280730886700,1.18088671875,1.147986650466919,-0.77947998046875,1.0759339332580566,-0.7898074984550476,-0.39803192019462585,-0.466663658618927,0.04893207550048828,0.13020959496498108,-0.05820822715759277,0.8223551996920627,0.3518143056019932,-0.37801437083707584,0.2388807684392561
1728065280740916700,1.190916748046875,1.1977670192718506,-0.7709658741950989,1.0533775091171265,-0.7976006865501404,-0.39497873187065125,-0.45587852597236633,0.041191816329956055,0.13577759265899658,-0.009529829025268555,0.8175219169692898,0.3555368741798544,-0.3816467757052495,0.24412581032254863
1728065280750947800,1.20094775390625,1.2828177213668823,-0.7580693364143372,1.0733040571212769,-0.8052766919136047,-0.39202451705932617,-0.4447990357875824,0.04218471050262451,0.14960816502571106,0.011083245277404785,0.8125045479591013,0.35950672621170954,-0.38516931243824165,0.24947105822271531
1728065280760977700,1.210977783203125,1.4218922853469849,-0.6457960605621338,1.1222140789031982,-0.812680721282959,-0.38904985785484314,-0.43380916118621826,0.04722350835800171,0.15232497453689575,0.02433955669403076,0.8073038282721218,0.36374315590406653,-0.38831217003631174,0.255274801813153
1728065280771008800,1.2210087890625,1.5563422441482544,-0.6100702285766602,1.123603105545044,-0.8197482228279114,-0.3861992359161377,-0.4229220449924469,0.0337679386138916,0.1284172534942627,-0.023092329502105713,0.8018871098658205,0.36835461700346694,-0.39096528028777194,0.26160688060428894
1728065280781039600,1.23103955078125,1.6249263286590576,-0.5854639410972595,1.0517125129699707,-0.8264808058738708,-0.38385945558547974,-0.411802738904953,0.01672738790512085,0.09380513429641724,-0.076020747423172,0.7962878396011223,0.37339790666007794,-0.39328442693330384,0.26800575985913294
1728065280791069700,1.241069580078125,1.6010061502456665,-0.5637672543525696,0.9945161938667297,-0.8327265977859497,-0.3819347321987152,-0.40086451172828674,0.01770883798599243,0.07349357008934021,-0.06158357858657837,0.7907287177627375,0.3785751104142544,-0.395282968686487,0.2741905106123659
1728065280801100800,1.251100830078125,1.528334379196167,-0.4937330484390259,1.0278908014297485,-0.8386804461479187,-0.3797173798084259,-0.390422523021698,0.06000924110412598,0.09054809808731079,-0.010105371475219727,0.7852820028483314,0.38350243755916275,-0.39713299878032815,0.280255920270971
1728065280811131000,1.261130859375,1.4289019107818604,-0.5353505611419678,1.087429165840149,-0.8446463346481323,-0.37645167112350464,-0.3806007504463196,0.11817532777786255,0.12536826729774475,0.03840714693069458,0.7799172192412351,0.38788522741177284,-0.39905473505988615,0.2864081681507536
1728065280821161700,1.27116162109375,1.3284800052642822,-0.5489936470985413,1.0721498727798462,-0.8507881164550781,-0.37239381670951843,-0.3707866370677948,0.1407049298286438,0.15239256620407104,0.0781230628490448,0.7745612719676294,0.39184817224163654,-0.4013249131432578,0.29231556079361215
1728065280831192800,1.28119287109375,1.329501986503601,-0.5659868121147156,1.032218337059021,-0.8567606806755066,-0.3681963086128235,-0.3610995411872864,0.10326635837554932,0.1484544575214386,0.07672148942947388,0.7692560523168515,0.3956646224178727,-0.40360840075397825,0.2979850050199762
1728065280841222700,1.29122265625,1.2723530530929565,-0.457324743270874,1.0001029968261719,-0.8623427152633667,-0.364062637090683,-0.35188570618629456,0.0546034574508667,0.1279175877571106,0.04860204458236694,0.7640787825758563,0.3993783054301172,-0.4056526979509337,0.30352362418626816
1728065280851253800,1.301253662109375,1.1351721286773682,-0.32645341753959656,0.9892860651016235,-0.867318868637085,-0.35958561301231384,-0.3441750407218933,0.030953943729400635,0.13128358125686646,0.07908406853675842,0.759333668684513,0.4025321402803937,-0.4072841238699924,0.30903094572129985
1728065280861283800,1.311283935546875,0.9601728320121765,-0.2844385802745819,0.9388976693153381,-0.8718230724334717,-0.3546847701072693,-0.3378213942050934,0.037090957164764404,0.1379946768283844,0.09204810857772827,0.7550884536899966,0.4049774300659355,-0.408757363342664,0.31424853497741506
1728065280871314700,1.321314697265625,0.7846288681030273,-0.27168822288513184,0.88532954454422,-0.8759848475456238,-0.3495416045188904,-0.3323723375797272,0.057518601417541504,0.14640134572982788,0.11107414960861206,0.7513076381867315,0.40679343702888915,-0.41028395620456304,0.31894061005388646
1728065280881345800,1.331345703125,0.6183536052703857,-0.24845506250858307,0.8560675382614136,-0.8798807859420776,-0.34405869245529175,-0.32777053117752075,0.08245646953582764,0.15158435702323914,0.10918840765953064,0.7479555578244292,0.4079800295296955,-0.41190657380072954,0.323183930539046
1728065280891375900,1.3413759765625,0.45252808928489685,-0.26303234696388245,0.8092275857925415,-0.8836051225662231,-0.3382324278354645,-0.32379159331321716,0.08572298288345337,0.1630614995956421,0.09146130084991455,0.7449850256638281,0.4085752837974252,-0.41372748843175333,0.32694530386800397
1728065280901406700,1.35140673828125,0.41213300824165344,-0.22781416773796082,0.7725121974945068,-0.8870841860771179,-0.3323901891708374,-0.32031017541885376,0.07032692432403564,0.1836475133895874,0.08021312952041626,0.7423137212920587,0.4088270477103967,-0.4155783449453064,0.33034163142984463
1728065280911436800,1.361436767578125,0.4893001616001129,-0.14232280850410461,0.7465242743492126,-0.8902117609977722,-0.3269149959087372,-0.31725355982780457,0.05975210666656494,0.2121230959892273,0.06087535619735718,0.7397602416469553,0.4091368553511433,-0.4171094113163459,0.3337390175533579
1728065280921468000,1.371468017578125,0.6312692761421204,-0.07619385421276093,0.6866965889930725,-0.8929223418235779,-0.32216906547546387,-0.3144785463809967,0.04688352346420288,0.23707082867622375,0.04361984133720398,0.737163545535386,0.4098587940856895,-0.418062794455514,0.33738573300453395
1728065280931498800,1.381498779296875,0.7246406674385071,0.014409221708774567,0.5808937549591064,-0.895080029964447,-0.3185614049434662,-0.3120105266571045,0.037764906883239746,0.2615850865840912,0.05908083915710449,0.734611626996446,0.411073808542125,-0.4183456176309236,0.3411028842431741
1728065280941528800,1.39152880859375,0.7589914202690125,0.11254750937223434,0.47914183139801025,-0.8965595364570618,-0.3161082863807678,-0.3102523982524872,0.022047817707061768,0.2705608010292053,0.09255528450012207,0.732303909622085,0.4125787295749475,-0.4179145735759197,0.3447567600232124
1728065280951559700,1.4015595703125,0.6704870462417603,0.13886672258377075,0.3900742530822754,-0.8975461721420288,-0.31442075967788696,-0.3091127574443817,0.010262787342071533,0.24723628163337708,0.0738375186920166,0.7303099876155171,0.41409674579655176,-0.4170941132662916,0.34814352224402395
1728065280961589800,1.41158984375,0.478574275970459,0.19350120425224304,0.3181726336479187,-0.8981499671936035,-0.31300273537635803,-0.3087981939315796,0.01204138994216919,0.22643956542015076,0.0930846631526947,0.7288390697717861,0.41516617783168897,-0.4162186368217039,0.3509885364113449
1728065280971620900,1.421620849609375,0.24665217101573944,0.21531334519386292,0.2800827920436859,-0.8984555602073669,-0.31141725182533264,-0.3095110356807709,0.009112238883972168,0.21507325768470764,0.10919368267059326,0.72797722383908,0.4155050441114531,-0.41545161200993375,0.3532772030736539
1728065280981651700,1.431651611328125,-0.028020936995744705,0.2257888913154602,0.23146173357963562,-0.8985901474952698,-0.30940404534339905,-0.3111351430416107,0.0067596435546875,0.21171724796295166,0.0963066816329956,0.7277325972445573,0.4149815838366201,-0.414997248013257,0.3549267029401102
1728065280991681800,1.441681884765625,-0.3532605469226837,0.2585955262184143,0.18127019703388214,-0.8984652161598206,-0.3069349527359009,-0.31392884254455566,0.006253242492675781,0.21538221836090088,0.12418580055236816,0.7282747996758642,0.4134090229488153,-0.4148837840322229,0.35578131848671674
1728065281001713000,1.451712890625,-0.6691729426383972,0.272067666053772,0.16349945962429047,-0.8981474041938782,-0.30375829339027405,-0.31790265440940857,0.01948535442352295,0.21154943108558655,0.15884509682655334,0.7295804436507087,0.41070209653815065,-0.4151776239905709,0.35589845247762597
1728065281011742500,1.461742431640625,-0.939801812171936,0.2671535313129425,0.1736258566379547,-0.8978025317192078,-0.2996252477169037,-0.32276222109794617,0.04578220844268799,0.2028082013130188,0.18676066398620605,0.7314905957095482,0.4069089782199687,-0.4159855404471522,0.35539088859799983
1728065281021773800,1.47177392578125,-1.1345385313034058,0.27482664585113525,0.2161746472120285,-0.8975083827972412,-0.2944420278072357,-0.32830294966697693,0.06640785932540894,0.18984302878379822,0.20293676853179932,0.733826714223023,0.4021750965924834,-0.41725736787364365,0.3544714139238269
1728065281031805000,1.481804931640625,-1.180794596672058,0.3009835183620453,0.241073340177536,-0.8972316384315491,-0.28844329714775085,-0.33432918787002563,0.0802760124206543,0.15489837527275085,0.17579036951065063,0.736360652652494,0.39685742421452574,-0.418735706066567,0.3534653104412253
1728065281041834500,1.49183447265625,-1.219215989112854,0.2646457552909851,0.1863219439983368,-0.8968983888626099,-0.28240832686424255,-0.3403218388557434,0.07998853921890259,0.10986194014549255,0.11476641893386841,0.7389361782794964,0.3914606161840698,-0.4202352577705152,0.3523270505737405
1728065281051865900,1.501865966796875,-1.258162021636963,0.26304036378860474,0.13987162709236145,-0.8964483737945557,-0.2766786813735962,-0.3461635112762451,0.06980353593826294,0.09931054711341858,0.1104762852191925,0.7416321134163715,0.3860389989906213,-0.42177260315271325,0.3508041342048158
1728065281061895700,1.511895751953125,-1.1111375093460083,0.22640323638916016,0.1583092212677002,-0.8959912657737732,-0.27111440896987915,-0.3517056405544281,0.07415282726287842,0.09002313017845154,0.07625395059585571,0.7442107549723304,0.3807979385829332,-0.42324947297701343,0.3492897673781257
1728065281071926500,1.521926513671875,-0.8347261548042297,0.1213325783610344,0.16033588349819183,-0.8958021998405457,-0.26622113585472107,-0.3558999300003052,0.09747761487960815,0.06250110268592834,-0.028896182775497437,0.7461406230995236,0.3765264191716781,-0.42459144778529406,0.3481725372695133
1728065281081958000,1.5319580078125,-0.7049245238304138,0.04585753381252289,0.14671994745731354,-0.8959289789199829,-0.26209506392478943,-0.3586326539516449,0.12395632266998291,0.08542883396148682,-0.021112769842147827,0.7474676012006847,0.3732078452098653,-0.4259102891937335,0.34728731719661227
1728065281091987700,1.54198779296875,-0.6653411984443665,-0.026009149849414825,0.1229696050286293,-0.8962557315826416,-0.2583608329296112,-0.3605213463306427,0.14598089456558228,0.14869588613510132,0.0914936363697052,0.7485336151201842,0.3703064212741206,-0.42733180931397946,0.3463500394393062
1728065281102018600,1.5520185546875,-0.5111276507377625,-0.08942566812038422,0.07667373865842819,-0.896731436252594,-0.2552576959133148,-0.3615471124649048,0.12858867645263672,0.17629346251487732,0.12944567203521729,0.7493326384383582,0.3679409193127164,-0.4287725836762522,0.3453609306480515
1728065281112048600,1.562048583984375,-0.30884701013565063,-0.06411370635032654,0.02275272086262703,-0.8971909880638123,-0.2532972991466522,-0.36178576946258545,0.09224402904510498,0.14027541875839233,0.12057483196258545,0.7497966413907683,0.3664502669975062,-0.4299085014506155,0.3445257214060618
1728065281122079500,1.57207958984375,-0.2457817643880844,0.08630216121673584,-0.014378935098648071,-0.8971821069717407,-0.2523023784160614,-0.3625022768974304,0.05910831689834595,0.0535871684551239,0.15629500150680542,0.7502873424665849,0.3654373283728595,-0.43035383013860057,0.34397697799061666
1728065281132110600,1.582110595703125,-0.4224432110786438,0.22737106680870056,-0.01641811802983284,-0.8965561985969543,-0.2512618601322174,-0.36476632952690125,0.033320724964141846,-0.035969555377960205,0.19365432858467102,0.7512469804827535,0.36398279013408896,-0.43027126823878326,0.34352755870319
1728065281142140700,1.592140625,-0.7184053659439087,0.2912176847457886,-0.015118494629859924,-0.8955596089363098,-0.24929040670394897,-0.3685477077960968,0.04068589210510254,-0.07939918339252472,0.2163718342781067,0.7528697982142606,0.3614156618459705,-0.43023814585555215,0.342725851196994
1728065281152171500,1.602171630859375,-0.9499639868736267,0.2424355149269104,-0.018442386761307716,-0.8944945931434631,-0.24628396332263947,-0.3731268346309662,0.07523494958877563,-0.08838705718517303,0.22218695282936096,0.7550109903279831,0.35778591011101607,-0.43061099524549984,0.3413529049790734
1728065281162201600,1.61220166015625,-1.0242507457733154,0.10368403047323227,-0.019338540732860565,-0.8937986493110657,-0.24271412193775177,-0.3771125376224518,0.11299115419387817,-0.06189708411693573,0.16919633746147156,0.7571966365547511,0.35375479990816444,-0.43162630860279105,0.33942529224561724
1728065281172232700,1.622232666015625,-0.994249701499939,0.07042226195335388,0.019105788320302963,-0.893498957157135,-0.23886023461818695,-0.3802701532840729,0.1464744210243225,0.012419790029525757,0.1285306215286255,0.759153602434689,0.3497681217034586,-0.43304409826253853,0.3373735284195723
1728065281182263600,1.632263671875,-0.9863076210021973,0.1719217300415039,0.12155172973871231,-0.8932072520256042,-0.23442985117435455,-0.3836970925331116,0.15358322858810425,0.12478019297122955,0.11212119460105896,0.761027784964413,0.3456284146988256,-0.4343874525215705,0.33568625974255584
1728065281192293600,1.642293701171875,-0.7351957559585571,0.2159014344215393,0.09653719514608383,-0.8927660584449768,-0.22995352745056152,-0.38741469383239746,0.1487627625465393,0.1979101002216339,0.09053972363471985,0.7627453420984065,0.34169677827629147,-0.43535728593950185,0.33455477573015824
1728065281202324700,1.65232470703125,-0.36084794998168945,0.25577452778816223,-0.045697443187236786,-0.8918934464454651,-0.22750908136367798,-0.3908524513244629,0.09863483905792236,0.18702751398086548,-0.013123959302902222,0.764154314223536,0.33911736396365993,-0.4354000273076214,0.33390778569496055
1728065281212354600,1.6623544921875,-0.13032527267932892,0.20970399677753448,-0.19064104557037354,-0.8907034993171692,-0.22770008444786072,-0.3934461176395416,0.061006903648376465,0.1493156999349594,-0.06433272361755371,0.7652590126974177,0.3381100251531396,-0.4346936329678514,0.33331912996529617
1728065281222385700,1.6723857421875,-0.045497994869947433,0.17096085846424103,-0.21716132760047913,-0.8894869685173035,-0.22924871742725372,-0.39529502391815186,0.07315695285797119,0.12373420596122742,-0.036605000495910645,0.7661522252682609,0.33794312588170483,-0.4337590671812241,0.3326536087901653
1728065281232416500,1.68241650390625,-0.06040024757385254,0.1753436177968979,-0.1675298660993576,-0.8883537650108337,-0.23076684772968292,-0.3969564437866211,0.12257611751556396,0.07009179890155792,0.005248069763183594,0.766937311930572,0.3378769324143045,-0.43285211551834346,0.3320926448776538
1728065281242446600,1.692446533203125,-0.12412276864051819,0.1735347956418991,-0.11500275135040283,-0.8873441815376282,-0.23163777589797974,-0.3987034857273102,0.1468808650970459,0.006341755390167236,0.03194326162338257,0.7676926089031781,0.33754490007487103,-0.43210148560196865,0.33166245749007084
1728065281252477700,1.702477783203125,-0.22057314217090607,0.15943363308906555,-0.09170621633529663,-0.8864212036132812,-0.23185350000858307,-0.4006263017654419,0.14116668701171875,-0.010532334446907043,0.04437938332557678,0.7685242364204479,0.336816943035159,-0.43155670954417197,0.33118528533014174
1728065281262507800,1.7125078125,-0.1391581892967224,0.019733786582946777,-0.10823432356119156,-0.885810911655426,-0.23189674317836761,-0.4019489586353302,0.12783056497573853,0.0038999170064926147,0.0430012047290802,0.7692414801507488,0.33607563218004516,-0.43136839859401255,0.33051782657737355
1728065281272538600,1.72253857421875,0.3254830241203308,0.02174527198076248,-0.0953877717256546,-0.8855577707290649,-0.23314227163791656,-0.40178632736206055,0.11038070917129517,-0.04198893904685974,0.03345441818237305,0.7692894768227391,0.33659810765490283,-0.4310551565418006,0.33028313068441206
1728065281282569700,1.73256982421875,0.9164876937866211,0.08140833675861359,0.018757978454232216,-0.8852177858352661,-0.23605327308177948,-0.40083470940589905,0.11994367837905884,-0.1409761607646942,-0.05247342586517334,0.768427547418497,0.3390111623897762,-0.42971395361364134,0.3315668024051318
1728065281292599600,1.742599609375,1.1792399883270264,0.03564856946468353,0.12410517781972885,-0.8851704597473145,-0.23967903852462769,-0.3987824618816376,0.17586547136306763,-0.2065337598323822,-0.17078238725662231,0.7665751469332788,0.3428989333309251,-0.4278189936201615,0.3342962455554993
1728065281302630700,1.752630615234375,0.9968137145042419,-0.0672794058918953,0.07118869572877884,-0.8854619264602661,-0.24312812089920044,-0.3960376977920532,0.2385808229446411,-0.21043935418128967,-0.09000048041343689,0.7644606560311716,0.3469304014773885,-0.4261695058623774,0.3370738174118431
1728065281312660700,1.76266064453125,0.5394163131713867,-0.30515027046203613,-0.0711524710059166,-0.8861926198005676,-0.24624362587928772,-0.3924626410007477,0.26047539710998535,-0.20135769248008728,0.08342641592025757,0.762694230880351,0.35025350812864564,-0.4255480722411715,0.3384212652794264
1728065281322691600,1.772691650390625,0.0034889860544353724,-0.5213497281074524,-0.10854591429233551,-0.8875836133956909,-0.24817268550395966,-0.38807952404022217,0.22988402843475342,-0.25001150369644165,0.17784395813941956,0.7615029949630836,0.3521901571492975,-0.4265235378150729,0.3378653317749182
1728065281332722700,1.78272265625,-0.4259832203388214,-0.543740451335907,-0.012500874698162079,-0.8895437121391296,-0.24793511629104614,-0.38371899724006653,0.14688313007354736,-0.34042853116989136,0.16750198602676392,0.7608241700171823,0.3524324112217023,-0.4288728164918427,0.33616385927603215
1728065281342752800,1.792752685546875,-0.810774564743042,-0.329394668340683,0.10710594803094864,-0.8913739919662476,-0.24510198831558228,-0.3812841475009918,0.04173398017883301,-0.3661193549633026,0.13898974657058716,0.7608708715630779,0.35070664881176367,-0.4316975546003581,0.33424206472943363
1728065281352783600,1.80278369140625,-1.046571969985962,-0.04228484630584717,0.17560192942619324,-0.8924393057823181,-0.2402263581752777,-0.3818943500518799,-0.05137777328491211,-0.2606433629989624,0.15397387742996216,0.7618753555801048,0.34711326893021044,-0.43424094397900703,0.33240500576058696
1728065281362813700,1.812813720703125,-1.0772627592086792,0.23020510375499725,0.1742999106645584,-0.8924187421798706,-0.23460127413272858,-0.385423481464386,-0.08769911527633667,-0.09439347684383392,0.129197895526886,0.7636781467015601,0.34247893180402755,-0.43588581531358017,0.33091932508174504
1728065281372844800,1.8228447265625,-0.9726725816726685,0.3084690272808075,0.2724267244338989,-0.8918466567993164,-0.22867010533809662,-0.3902813792228699,-0.0635061264038086,0.052766814827919006,0.07245609164237976,0.7656915852005974,0.33758792871161497,-0.43691383805095435,0.32993503767200866
1728065281382875600,1.832875732421875,-0.6522245407104492,0.12950779497623444,0.38055264949798584,-0.8916690349578857,-0.22235481441020966,-0.394315630197525,0.015906035900115967,0.17213815450668335,0.009351670742034912,0.7670618100096406,0.33323910744066626,-0.43794278179753526,0.32980925547621337
1728065281392905700,1.84290576171875,-0.06359351426362991,-0.05773304030299187,0.2924196124076843,-0.892316997051239,-0.21778914332389832,-0.3953964412212372,0.04284489154815674,0.233154758810997,-0.09566187858581543,0.7671650807744751,0.3310104196096241,-0.4390146676530161,0.330387745300004
1728065281402936600,1.8529365234375,0.47773924469947815,-0.11303198337554932,0.09689725190401077,-0.8931317329406738,-0.21694739162921906,-0.3940172791481018,-0.013469219207763672,0.21618445217609406,-0.1946209967136383,0.7662541562558423,0.3316106160698417,-0.4393469646049885,0.33145630175625823
1728065281412966700,1.862966552734375,0.6814411878585815,0.02259966731071472,-0.028228171169757843,-0.8933849930763245,-0.21902701258659363,-0.39228877425193787,-0.05432313680648804,0.18689200282096863,-0.16650328040122986,0.7650998857393748,0.3339181296465895,-0.4385821381252762,0.33281614662378795
1728065281422997800,1.872997802734375,0.6930794715881348,0.12043861299753189,-0.11817403882741928,-0.8929363489151001,-0.22241388261318207,-0.39140352606773376,-0.0813678503036499,0.18443477153778076,-0.08584558963775635,0.7642170019687526,0.3366177345342093,-0.437020293881209,0.33417683410233096
1728065281433028600,1.883028564453125,0.6370309591293335,0.29170963168144226,-0.13879142701625824,-0.8918384313583374,-0.22620491683483124,-0.39173418283462524,-0.0929638147354126,0.15458014607429504,-0.024113595485687256,0.7637599113506576,0.33910816208446,-0.4349006295450059,0.33546689652967454
1728065281443058700,1.89305859375,0.6373148560523987,0.3054475486278534,-0.07607106119394302,-0.890338659286499,-0.22968481481075287,-0.39311841130256653,-0.08976393938064575,0.06734657287597656,-0.04557180404663086,0.7635409223394406,0.34125736025146225,-0.4324167146568604,0.3369933436935636
1728065281453089800,1.90308984375,0.4675346910953522,0.19269299507141113,-0.055740758776664734,-0.8892428874969482,-0.23249933123588562,-0.3939431607723236,-0.05515414476394653,-0.01359441876411438,-0.0752798318862915,0.7631821286387835,0.3431792392626587,-0.43041424773243697,0.33841489800720187
1728065281463120000,1.913119873046875,0.03595132380723953,0.18873287737369537,-0.007038198411464691,-0.8883998990058899,-0.2338334172964096,-0.39505404233932495,-0.0017826557159423828,-0.03935994207859039,0.05768221616744995,0.7632135259013758,0.3439135807822399,-0.42918110908741663,0.3391640200702789
1728065281473150700,1.923150634765625,-0.2015884518623352,0.0633641928434372,0.10762979090213776,-0.8879827857017517,-0.2329643815755844,-0.39650243520736694,0.03027099370956421,-0.054282307624816895,0.07120034098625183,0.7636031929230829,0.34316673230776584,-0.42893516854877706,0.3393543592847103
1728065281483181800,1.933181884765625,-0.12706255912780762,-0.13949543237686157,0.17275847494602203,-0.8884872198104858,-0.23094810545444489,-0.39655226469039917,0.039091289043426514,-0.0964445024728775,-0.1203087568283081,0.7635611616634547,0.34225125815576274,-0.4296369846900166,0.3394859478755633
1728065281493211600,1.943211669921875,-0.09524071961641312,-0.28364047408103943,0.12558616697788239,-0.8897059559822083,-0.22916379570960999,-0.3948512673377991,0.024944543838500977,-0.10968814790248871,-0.20684856176376343,0.7630011086104083,0.3419006676548596,-0.430904045819354,0.3394925058768576
1728065281503242800,1.95324267578125,-0.2250424027442932,-0.3532067835330963,0.09096959233283997,-0.8912352323532104,-0.2276039570569992,-0.39229634404182434,-0.021438777446746826,-0.031200364232063293,-0.13527631759643555,0.7623811828513655,0.3416316937364989,-0.43259636972898635,0.33900329938688134
1728065281513272800,1.96327294921875,-0.2962726354598999,-0.2787652909755707,0.14159229397773743,-0.8927661180496216,-0.2254963517189026,-0.3900258243083954,-0.05437749624252319,0.05543714761734009,-0.05983376502990723,0.7619554557813915,0.34087686599014194,-0.4344997627397977,0.33828514324394937
1728065281523303700,1.9733037109375,-0.16963639855384827,-0.1494256854057312,0.20777636766433716,-0.893997848033905,-0.2229567915201187,-0.3886622488498688,-0.060714125633239746,0.06768336892127991,-0.04343611001968384,0.7615975169351862,0.33993092117689133,-0.43602275371824983,0.3380836145233842
1728065281533334800,1.983334716796875,-0.10492690652608871,-0.02885095402598381,0.195737823843956,-0.8947902321815491,-0.22060443460941315,-0.3881809115409851,-0.03501945734024048,0.053917378187179565,-0.03593719005584717,0.7612744512346622,0.33913934291331843,-0.4369142424840966,0.3384552139128335
1728065281543364900,1.99336474609375,-0.21213270723819733,-0.012283960357308388,0.12564289569854736,-0.8952182531356812,-0.21855373680591583,-0.38835394382476807,-0.004531562328338623,0.06125088036060333,0.044024109840393066,0.7612134473208192,0.3382381220822235,-0.4375134367216276,0.3387199739039598
1728065281553395700,2.003395751953125,-0.2949174642562866,-0.042557232081890106,0.045529671013355255,-0.8954965472221375,-0.2167471945285797,-0.38872459530830383,0.034748196601867676,0.07604590058326721,0.10028767585754395,0.7614640465694876,0.33707772814351666,-0.43819666188345424,0.3384301836166792
1728065281563425800,2.01342578125,-0.1714855581521988,-0.06231628730893135,-0.0021800599060952663,-0.8957697153091431,-0.21561527252197266,-0.38872459530830383,0.06437927484512329,0.05980776250362396,0.08768397569656372,0.7617140503439175,0.3361992525820617,-0.438871006357884,0.337867071625384
1728065281573456600,2.02345654296875,-0.02335161715745926,-0.0353311151266098,0.04675792157649994,-0.895971953868866,-0.215152308344841,-0.38851484656333923,0.07359951734542847,0.0375705361366272,0.03632673621177673,0.7617252059277009,0.3359305338100201,-0.43919615083761243,0.3376864844323126
1728065281583487700,2.03348779296875,-0.04742153361439705,-0.04742160439491272,0.1362883448600769,-0.8963949084281921,-0.2140772044658661,-0.3881329894065857,0.08078205585479736,0.026775553822517395,-0.007863104343414307,0.7615330552922781,0.3356035300968535,-0.4396632610377785,0.3378371406448765
1728065281593517800,2.043517822265625,0.18760961294174194,-0.004272586666047573,0.15778563916683197,-0.8967761993408203,-0.21299418807029724,-0.3878478705883026,0.10257142782211304,-0.07078875601291656,0.0348663330078125,0.761111826163518,0.3355828930775344,-0.43984108791627247,0.33857458234785115
1728065281603548700,2.053548583984375,-0.0920124351978302,-0.02450195699930191,0.16166028380393982,-0.8972011804580688,-0.21192464232444763,-0.3874506950378418,0.09149134159088135,-0.16826331615447998,0.0021815598011016846,0.7606473445437317,0.33560982048436133,-0.440046256849274,0.3393243187756729
1728065281613577500,2.063577392578125,-0.6991991996765137,-0.03928346186876297,0.2681584656238556,-0.8977241516113281,-0.20845328271389008,-0.38812196254730225,0.06592178344726562,-0.16383063793182373,0.11917057633399963,0.7609236254754765,0.3336338987504875,-0.44116600444675796,0.3391994661603138
1728065281623608300,2.0736083984375,-0.8105297088623047,-0.13102270662784576,0.33017498254776,-0.8987066149711609,-0.20259296894073486,-0.38895076513290405,0.05053150653839111,-0.18250836431980133,0.07461971044540405,0.7615228488570657,0.3300762789137482,-0.44336695961087014,0.3384648839946402
1728065281633639400,2.083639404296875,-0.7720109224319458,-0.20965072512626648,0.26685139536857605,-0.8999875783920288,-0.1968347579240799,-0.3889455795288086,0.016747772693634033,-0.2197759598493576,-0.1120920181274414,0.7619050501673748,0.3267262563525318,-0.44584432046638095,0.33759992433192537
1728065281643669200,2.093669189453125,-0.9344877600669861,-0.23906055092811584,0.22612395882606506,-0.9013540744781494,-0.19135236740112305,-0.38851672410964966,0.005495250225067139,-0.14243364334106445,-0.05186718702316284,0.7623653708592212,0.32333199524049633,-0.44855106542104234,0.33624026869535734
1728065281653700400,2.103700439453125,-0.9909870028495789,-0.20537278056144714,0.25042927265167236,-0.9026748538017273,-0.1853611320257187,-0.38835495710372925,0.03066551685333252,-0.009402036666870117,0.09643906354904175,0.7630482001346777,0.3194028897663978,-0.4514469073992847,0.33456699960783615
1728065281663730400,2.11373046875,-0.7008278965950012,-0.09655282646417618,0.2712189853191376,-0.9037656784057617,-0.17961972951889038,-0.38851577043533325,0.009600579738616943,0.09330075979232788,0.06229811906814575,0.7636178567564513,0.3157781930841722,-0.4539011416387853,0.33338537912357336
1728065281673761300,2.12376123046875,-0.3735050559043884,0.039414383471012115,0.221516415476799,-0.9043113589286804,-0.17527218163013458,-0.3892308473587036,-0.04988175630569458,0.14173337817192078,-0.039785236120224,0.7639750231035196,0.31321819094417963,-0.4552789720172324,0.33310297813340956
1728065281683792400,2.13379248046875,-0.17482389509677887,0.10527489334344864,0.12671694159507751,-0.9043315649032593,-0.17264880239963531,-0.39035481214523315,-0.091716468334198,0.147487074136734,-0.034312546253204346,0.7642638290205176,0.311681953792654,-0.4557158615210674,0.33328407961932116
1728065281693822500,2.143822509765625,-0.12592725455760956,0.2226618230342865,0.04530064016580582,-0.9038503766059875,-0.17128613591194153,-0.39206600189208984,-0.08264565467834473,0.08809521794319153,0.031531333923339844,0.7647116438795939,0.3106570642744195,-0.45547687842165835,0.33354054140233835
1728065281703853300,2.153853271484375,-0.24418573081493378,0.23289954662322998,0.0080142542719841,-0.9029342532157898,-0.1703781634569168,-0.3945642411708832,-0.04434657096862793,-0.028977900743484497,0.043306976556777954,0.7654952903933583,0.30952768901697486,-0.45487413837733376,0.3336151580183481
1728065281713883400,2.16388330078125,-0.48600926995277405,0.19185324013233185,0.05715383589267731,-0.9021596312522888,-0.16872186958789825,-0.3970402777194977,0.006804406642913818,-0.13701844215393066,0.05976000428199768,0.7664818173301281,0.3077410277096545,-0.4547255505235531,0.3332053069597507
1728065281723914500,2.17391455078125,-0.786189079284668,0.170582577586174,0.21300815045833588,-0.9016411304473877,-0.16497302055358887,-0.39978405833244324,0.08251875638961792,-0.21304820477962494,0.11696243286132812,0.7676556588904583,0.30468502642191764,-0.4552746515218016,0.3325611717744488
1728065281733945300,2.1839453125,-1.098150610923767,0.05950958654284477,0.2924419641494751,-0.9016013741493225,-0.15873654186725616,-0.40239009261131287,0.1320701241493225,-0.24458377063274384,0.13067680597305298,0.7689294574493752,0.3002064345344336,-0.45681621835794006,0.3315760141269851
1728065281743975400,2.193975341796875,-0.7912575602531433,0.02063382789492607,0.2858565151691437,-0.9019290804862976,-0.1521269977092743,-0.40420451760292053,0.11149328947067261,-0.23941348493099213,0.1325065791606903,0.7699779118166384,0.29570492392135794,-0.45875520772232614,0.3305090753807972
1728065281754006300,2.20400634765625,-0.4134519100189209,-0.01847682148218155,0.2915085256099701,-0.9023430943489075,-0.14716736972332,-0.4051160216331482,0.049803972244262695,-0.11371216177940369,-0.03360468149185181,0.7703821515473934,0.29277291150171525,-0.46013695510249936,0.3302567694542142
1728065281764036400,2.214036376953125,-0.17731182277202606,-0.03531439229846001,0.4278948903083801,-0.9029830098152161,-0.1427387148141861,-0.40527448058128357,0.01908707618713379,0.1570362150669098,-0.09960830211639404,0.7701595730870063,0.29085003637676066,-0.4612689231796829,0.330894999294734
1728065281774067500,2.2240673828125,0.25775882601737976,-0.048338741064071655,0.4282573461532593,-0.9038116335868835,-0.13888098299503326,-0.40476730465888977,0.014971911907196045,0.38575291633605957,-0.06390637159347534,0.7692613844889034,0.290041321010545,-0.4620523597068989,0.33259671753502806
1728065281784098300,2.234098388671875,0.6959918141365051,0.017962517216801643,0.2167094200849533,-0.9043611288070679,-0.13784967362880707,-0.4038916528224945,-0.035198867321014404,0.4058855473995209,-0.0897454023361206,0.7679395344936174,0.29119575647719187,-0.4617999611750865,0.33498465419747236
1728065281794128400,2.24412841796875,0.8432667255401611,0.10261759161949158,0.01843120902776718,-0.904291033744812,-0.14004971086978912,-0.4032912850379944,-0.09035313129425049,0.2872665524482727,-0.07148590683937073,0.7667134118252807,0.2939010685552035,-0.46040907493725186,0.33733703987895497
1728065281804159500,2.254159423828125,0.5904584527015686,0.20810779929161072,-0.07146912068128586,-0.9035999774932861,-0.14330920577049255,-0.4036950170993805,-0.06997185945510864,0.15688952803611755,0.01194089651107788,0.7660441691674245,0.296530678845521,-0.45849977562507954,0.3391517394997394
1728065281814189300,2.264189208984375,0.21191003918647766,0.20195280015468597,-0.06892234086990356,-0.9026362299919128,-0.1455991417169571,-0.4050295352935791,-0.031583189964294434,0.05657936632633209,0.0953676700592041,0.7660548350683332,0.2978817022580614,-0.45689356583483776,0.3401101761514017
1728065281824220400,2.274220458984375,-0.2314404994249344,0.20828820765018463,-0.022965500131249428,-0.901740312576294,-0.1460224986076355,-0.40686824917793274,-0.005516767501831055,-0.017505913972854614,0.11664614081382751,0.7666094207916712,0.2976291167132971,-0.45605129690632745,0.3402118028692029
1728065281834251500,2.28425146484375,-0.6851258873939514,0.18455353379249573,0.030922764912247658,-0.9009167551994324,-0.1440664529800415,-0.4093821346759796,0.0025403499603271484,-0.03490385413169861,0.10962331295013428,0.7677590328489678,0.29547616916339703,-0.45607319557607756,0.3394658413023488
1728065281844281300,2.29428125,-0.8943094611167908,0.1174788773059845,0.04704740643501282,-0.9003649353981018,-0.14034484326839447,-0.4118816554546356,-0.0006056427955627441,0.03266356885433197,0.05775564908981323,0.7692229243793863,0.29200077053600726,-0.4569406156645254,0.33798980123742517
1728065281854312400,2.3043125,-0.7998644709587097,0.10604038834571838,0.014757644385099411,-0.8999451994895935,-0.1364615261554718,-0.41409754753112793,-0.004275321960449219,0.1533225029706955,-0.035182178020477295,0.7706808224865992,0.2883978358560297,-0.45801518856458723,0.3363030841691722
1728065281864342500,2.314342529296875,-0.4444586932659149,0.06405618786811829,-0.07437356561422348,-0.8995667695999146,-0.13399818539619446,-0.4157213568687439,-0.022125184535980225,0.25303199887275696,-0.1484723687171936,0.7718338697430989,0.28583023392175333,-0.45873783962772596,0.3348630789439796
1728065281874373400,2.324373291015625,0.13218937814235687,-0.02575252763926983,-0.20537151396274567,-0.8992902636528015,-0.13459086418151855,-0.41612786054611206,-0.049165546894073486,0.26456525921821594,-0.24746158719062805,0.7723493886351067,0.28549194870674993,-0.4587269572982435,0.33397667251991026
1728065281884404500,2.334404541015625,0.4665820002555847,-0.1421622335910797,-0.23443619906902313,-0.8993080854415894,-0.13797886669635773,-0.41497811675071716,-0.054869771003723145,0.21048864722251892,-0.25233444571495056,0.7720778106870214,0.2874029900114046,-0.45815986996407304,0.33374385330794504
1728065281894434600,2.3444345703125,0.5593088865280151,-0.19688928127288818,-0.1514236032962799,-0.8997805118560791,-0.14189285039901733,-0.412627637386322,-0.030334293842315674,0.16592545807361603,-0.11399894952774048,0.7712494617536806,0.290147293174452,-0.4577124946031644,0.33389850796099313
1728065281904465400,2.35446533203125,0.6660068035125732,-0.17309926450252533,-0.06219759210944176,-0.9004152417182922,-0.1453087478876114,-0.4100460410118103,-0.032232463359832764,0.07873468101024628,-0.01642182469367981,0.7700888253981363,0.29305330944947194,-0.4572709727874093,0.3346433817401476
1728065281914496500,2.36449658203125,0.8239395022392273,-0.04239291325211525,-0.07734618335962296,-0.9007940888404846,-0.14892761409282684,-0.40790992975234985,-0.0723198652267456,-0.06153684854507446,-0.04089680314064026,0.7688388282730273,0.2962515613767744,-0.4563770846685232,0.335919354038091
1728065281924526300,2.3745263671875,0.9171006083488464,0.022193536162376404,-0.0708794966340065,-0.9006668925285339,-0.15323708951473236,-0.4065927267074585,-0.09127652645111084,-0.20763327181339264,-0.062996506690979,0.7676471258893123,0.29983892547583174,-0.4547529528242304,0.3376601380182967
1728065281934557400,2.384557373046875,0.6116006374359131,-0.045944880694150925,-0.06178133934736252,-0.9005975127220154,-0.15700994431972504,-0.40530478954315186,-0.026419639587402344,-0.25380241870880127,-0.06022554636001587,0.7665469896081014,0.30302330670968897,-0.4533480852859394,0.3392021256485512
1728065281944587500,2.39458740234375,0.13648737967014313,-0.1603604108095169,-0.06535183638334274,-0.9009284973144531,-0.15904732048511505,-0.4037720263004303,0.058673858642578125,-0.18636585772037506,0.05866405367851257,0.765850333887609,0.30475252122039376,-0.4530340845530484,0.3396458769696459
1728065281954618400,2.404618408203125,-0.13306818902492523,-0.21401573717594147,-0.06302929669618607,-0.9016031622886658,-0.15956196188926697,-0.4020593762397766,0.10887855291366577,-0.08889687061309814,0.117025226354599,0.7655439150010082,0.30516771412300847,-0.4536992176847935,0.33907553129202367
1728065281964649500,2.4146494140625,-0.2161436378955841,-0.226394921541214,-0.061996255069971085,-0.9024242162704468,-0.159401535987854,-0.4002770781517029,0.0986064076423645,-0.006049513816833496,0.07946103811264038,0.7654040438978306,0.30500703459106776,-0.4547880455656416,0.3380758368085527
1728065281974679600,2.424679443359375,-0.2563321590423584,-0.11581237614154816,-0.023590276017785072,-0.9030516147613525,-0.15884923934936523,-0.3990800082683563,0.04778110980987549,0.03656528890132904,0.056855857372283936,0.7654401354719345,0.30449659843978244,-0.455787024742336,0.3371076671269071
1728065281984710400,2.43471044921875,-0.3383050560951233,-0.013250581920146942,0.008357269689440727,-0.9033080339431763,-0.15770667791366577,-0.3989529609680176,-0.021222054958343506,0.046348050236701965,0.027660846710205078,0.7657466461107912,0.30348455928051765,-0.4565310910925629,0.3363165170734324
1728065281994740500,2.444740478515625,-0.4535742998123169,0.10662394016981125,-0.019954528659582138,-0.9031344056129456,-0.15612761676311493,-0.3999656140804291,-0.07577800750732422,0.02159087359905243,-0.0017219781875610352,0.7664476777536935,0.3018924560966625,-0.45703187542056445,0.33547105116882264
1728065282004771600,2.454771484375,-0.6429474353790283,0.19517698884010315,-0.05571279302239418,-0.9024453163146973,-0.15429146587848663,-0.4022272229194641,-0.07866436243057251,-0.016286522150039673,0.00014287233352661133,0.7676895409141737,0.2996296190528718,-0.45728381191950035,0.3343149031784651
1728065282014802400,2.464802490234375,-0.8328413963317871,0.18916143476963043,-0.06950636953115463,-0.9015482068061829,-0.15188604593276978,-0.40514394640922546,-0.024339914321899414,-0.04582206904888153,0.010582149028778076,0.7693596924545412,0.29659399402618936,-0.45766804028940133,0.33265255542093636
1728065282024832500,2.47483251953125,-0.9659059643745422,0.09114564955234528,-0.036913540214300156,-0.9008648991584778,-0.14869055151939392,-0.40784022212028503,0.05204892158508301,-0.05721154808998108,0.009006023406982422,0.7711208063748228,0.2929874657595909,-0.458517428104567,0.3305947550253096
1728065282034863400,2.48486328125,-1.1472679376602173,-0.03413722291588783,0.011195400729775429,-0.900757908821106,-0.14448648691177368,-0.40958377718925476,0.11406052112579346,-0.037733957171440125,0.007896214723587036,0.772720578798102,0.28891393290197476,-0.46014873159214986,0.3281688896010277
1728065282044893400,2.4948935546875,-1.3761062622070312,-0.0893155187368393,0.040951162576675415,-0.901037335395813,-0.1390475183725357,-0.4108499586582184,0.1396237015724182,-0.007528409361839294,0.06450599431991577,0.7743484099675271,0.2840586849136296,-0.462477763289257,0.3252840325045114
1728065282054924500,2.504924560546875,-1.582457423210144,-0.1260608583688736,0.03561205789446831,-0.9015900492668152,-0.13252979516983032,-0.4117904603481293,0.11362612247467041,0.025062158703804016,0.12770235538482666,0.7761010033017879,0.27836880878653353,-0.4654197838800335,0.3218114431920949
1728065282064954600,2.51495458984375,-1.4607850313186646,-0.016421448439359665,-0.002280461136251688,-0.9019151926040649,-0.12593387067317963,-0.41314634680747986,0.056776463985443115,0.024737581610679626,0.14277583360671997,0.7780468562997924,0.2723868269723875,-0.46822242727117597,0.3181453312502069
1728065282074985500,2.5249853515625,-0.9808759689331055,0.06972813606262207,-0.036309801042079926,-0.9017771482467651,-0.12099893391132355,-0.41491836309432983,-0.017122387886047363,-0.015262030065059662,0.013230770826339722,0.7798101536085058,0.26757901499462083,-0.4700449878932499,0.3152067793132795
1728065282085016600,2.5350166015625,-0.5785317420959473,0.10071907937526703,-0.050503384321928024,-0.901360273361206,-0.11817039549350739,-0.4166358709335327,-0.059851884841918945,-0.002206169068813324,-0.1008354127407074,0.7811024442203898,0.26454007918119454,-0.4708509356440888,0.3133639446343763
1728065282095046400,2.54504638671875,-0.2791309952735901,0.048465244472026825,-0.10541456937789917,-0.9009406566619873,-0.11702176183462143,-0.41786614060401917,-0.07797187566757202,0.07914943993091583,-0.09263193607330322,0.7819790331187613,0.2628904790176976,-0.47112155614506096,0.31215715243916287
1728065282105077500,2.555077392578125,0.06738301366567612,-0.0011832667514681816,-0.19184398651123047,-0.9006914496421814,-0.11791004985570908,-0.4181534945964813,-0.09198439121246338,0.13573235273361206,-0.10948014259338379,0.7823843485599821,0.26280634791812746,-0.471015998063645,0.31137063044549546
1728065282115107600,2.565107666015625,0.2460620105266571,-0.013373407535254955,-0.24982208013534546,-0.9004641771316528,-0.12064052373170853,-0.41786399483680725,-0.08195775747299194,0.13821867108345032,-0.12006932497024536,0.7824829045967432,0.2640200201820577,-0.470490627703353,0.310890126158726
1728065282125138400,2.575138427734375,0.20686639845371246,0.058870695531368256,-0.231307253241539,-0.9000955820083618,-0.12381613254547119,-0.4177289307117462,-0.042027831077575684,0.10486473888158798,-0.042720258235931396,0.7825910162040577,0.2654845096635699,-0.46973770436889983,0.31050887387916737
1728065282135169500,2.58516943359375,0.13962578773498535,0.034001193940639496,-0.20586234331130981,-0.8996000289916992,-0.12647998332977295,-0.41799813508987427,-0.01437079906463623,0.05206289887428284,0.001692652702331543,0.7828224245209764,0.2665836518719769,-0.4689713089254383,0.3101419420197119
1728065282145199600,2.59519970703125,0.0640183761715889,0.05705538019537926,-0.18120892345905304,-0.8991873860359192,-0.12866130471229553,-0.41822072863578796,-0.008085131645202637,-0.0038002431392669678,0.027290523052215576,0.7830758610658533,0.2673866831599173,-0.4683951310238584,0.30968170175108206
1728065282155230500,2.60523046875,-0.06631206721067429,0.046701058745384216,-0.14304502308368683,-0.8987399935722351,-0.1301143616437912,-0.418732225894928,0.003979861736297607,-0.04379001259803772,0.07045039534568787,0.7834627077478794,0.26767145205946336,-0.46795927191178827,0.30911540444356334
1728065282165260500,2.615260498046875,-0.11631184816360474,0.03828387334942818,-0.06594359129667282,-0.8984297513961792,-0.13065259158611298,-0.4192301630973816,0.013633549213409424,-0.049156948924064636,0.06899517774581909,0.7838606377795829,0.2674596563696773,-0.46781432743503626,0.3085087221193445
1728065282175291600,2.625291748046875,0.04202033206820488,-0.0037983846850693226,0.035588622093200684,-0.8983341455459595,-0.130525141954422,-0.41947466135025024,0.020694375038146973,-0.06199495494365692,-0.027775675058364868,0.7839916748391687,0.26724912782937243,-0.46780398273114243,0.3083738638720392
1728065282185322500,2.635322509765625,0.1974402815103531,-0.09939441084861755,0.0691271424293518,-0.8986252546310425,-0.1305365264415741,-0.41884729266166687,0.023426830768585205,-0.0932641327381134,-0.14705538749694824,0.7836083550936259,0.2676963607443418,-0.4678835468706972,0.3088393362376917
1728065282195352600,2.6453525390625,0.10722370445728302,-0.16678549349308014,0.05122031271457672,-0.8992910981178284,-0.13069899380207062,-0.4173648953437805,0.028532981872558594,-0.088142529129982,-0.13134115934371948,0.7829539925574792,0.26844228478430665,-0.46824810767799835,0.30929854918234034
1728065282205383400,2.655383544921875,-0.17193230986595154,-0.14747224748134613,0.02304886467754841,-0.9000256061553955,-0.13025054335594177,-0.4159192144870758,0.023957431316375732,-0.051817312836647034,-0.030873358249664307,0.7825532934162626,0.26849378912687,-0.4689898412067706,0.30914406406646305
1728065282215413500,2.66541357421875,-0.3656403124332428,-0.07267226278781891,0.00928005576133728,-0.9004939794540405,-0.12892355024814606,-0.4153182804584503,0.006344199180603027,-0.034986332058906555,0.009816020727157593,0.7826489377096899,0.26752120059168333,-0.46986516267476164,0.3084148791488935
1728065282225444600,2.675444580078125,-0.4570847451686859,-0.03227556496858597,0.013299563899636269,-0.9007424116134644,-0.12710492312908173,-0.41534027457237244,-0.00868147611618042,-0.037278011441230774,-0.009922146797180176,0.7830548115215333,0.2659566565957892,-0.47074081723848127,0.3074009515818819
1728065282235475500,2.685475341796875,-0.549441397190094,0.01153620332479477,0.027759728953242302,-0.9007973074913025,-0.12482675164937973,-0.41591155529022217,0.0021614432334899902,-0.013524681329727173,0.030642420053482056,0.7836762786480356,0.26394281096159017,-0.47157015617219333,0.3062796540806352
1728065282245505500,2.695505615234375,-0.5654182434082031,0.05330682173371315,0.02686011604964733,-0.900708794593811,-0.12219472974538803,-0.4168841540813446,0.01643127202987671,0.02730032056570053,0.04907101392745972,0.7844486737137367,0.26159975542201314,-0.47235949208222766,0.3050943581167943
1728065282255536600,2.70553662109375,-0.45902079343795776,0.06984851509332657,0.011538682505488396,-0.9004551768302917,-0.11985403299331665,-0.4181094169616699,0.019717872142791748,0.047542646527290344,0.01547577977180481,0.7852543300758139,0.2594126136338508,-0.4729168939447157,0.30402352983311703
1728065282265566500,2.71556640625,-0.3242824077606201,0.05973569303750992,0.015104388818144798,-0.9002102017402649,-0.11810480058193207,-0.41913339495658875,0.024737179279327393,0.05613889545202255,-0.02997848391532898,0.7858871346863796,0.25775393310174394,-0.47328238441772447,0.3032293262934714
1728065282275597600,2.72559765625,-0.23321989178657532,0.03725919872522354,0.03251373767852783,-0.900024950504303,-0.11671968549489975,-0.4199187159538269,0.0373845100402832,0.04923008382320404,-0.040042221546173096,0.7863256878829863,0.2565309055744785,-0.473531972821923,0.30273985284886784
1728065282285628700,2.735628662109375,-0.16279366612434387,-0.010981036350131035,0.04146488755941391,-0.9000147581100464,-0.11551853269338608,-0.42027243971824646,0.04338634014129639,0.03432653099298477,-0.039612144231796265,0.786555614634937,0.2556249666806193,-0.47383505088099276,0.3024343331046341
1728065282295658200,2.745658203125,-0.09013204276561737,-0.06707173585891724,0.024414001032710075,-0.9002277255058289,-0.11470046639442444,-0.420040488243103,0.03566467761993408,0.009842082858085632,-0.04977762699127197,0.7865647395141048,0.25512310722719395,-0.4742277470693593,0.30221893785765025
1728065282305689300,2.755689453125,-0.10163663327693939,-0.08124241232872009,0.018210699781775475,-0.900576651096344,-0.11412078887224197,-0.41944974660873413,0.01808464527130127,-0.005294464528560638,-0.04803374409675598,0.7864665944263984,0.2548263290815938,-0.4746985038013222,0.3019853655578449
1728065282315719400,2.765719482421875,-0.15733478963375092,-0.07541079074144363,0.023816121742129326,-0.9009194374084473,-0.11335904896259308,-0.4189198613166809,0.006250917911529541,-0.014143377542495728,-0.032190918922424316,0.7864179123339441,0.2543702226835999,-0.4752219027724461,0.30167333241952327
1728065282325750300,2.775750244140625,-0.22216464579105377,-0.13010358810424805,0.008729314431548119,-0.9013670682907104,-0.11239856481552124,-0.4182153046131134,-0.014297664165496826,-0.02676156908273697,-0.05738586187362671,0.7863899668659442,0.2537319558228127,-0.4759332282232139,0.3011619524385838
1728065282335781400,2.785781494140625,-0.2915493845939636,-0.17156507074832916,0.005825402680784464,-0.9020212292671204,-0.11127183586359024,-0.4171047508716583,-0.023775339126586914,-0.033350951969623566,-0.06595802307128906,0.7863352439292499,0.2529437738917837,-0.47693508789487843,0.3003819350112821
1728065282345811500,2.7958115234375,-0.36764654517173767,-0.1680275946855545,0.020927390083670616,-0.9027538299560547,-0.10974561423063278,-0.41592249274253845,-0.014345228672027588,-0.024455420672893524,-0.04725801944732666,0.7863262545497458,0.25184877142441914,-0.4781327739838997,0.29941995357454576
1728065282355842300,2.80584228515625,-0.3692418932914734,-0.1837553083896637,0.040781520307064056,-0.9035077095031738,-0.10790357738733292,-0.414765864610672,-0.0033984780311584473,-0.014960162341594696,-0.043837010860443115,0.786334097754229,0.25056012820245627,-0.4794128622925687,0.2984320915711222
1728065282365872400,2.815872314453125,-0.3538571000099182,-0.2065250724554062,0.06048890948295593,-0.9043717980384827,-0.10594139993190765,-0.41338616609573364,0.005613863468170166,-0.005554549396038055,-0.05931583046913147,0.7862454882392811,0.24929778537360398,-0.48078844086837896,0.29750831595599264
1728065282375903500,2.825903564453125,-0.19829000532627106,-0.2625284194946289,0.1166672334074974,-0.9054231643676758,-0.10394056886434555,-0.41158854961395264,0.018887579441070557,-0.003511786460876465,-0.057664960622787476,0.7859148671445533,0.24828894830282758,-0.4822430086776049,0.29687043044004796
1728065282385934300,2.835934326171875,-0.01230788603425026,-0.2956000864505768,0.1500566154718399,-0.906726598739624,-0.10229936987161636,-0.4091232419013977,0.04413199424743652,-0.015620522201061249,-0.0807144045829773,0.7851480476682552,0.24799677975828016,-0.48366928161626144,0.29682369178524526
1728065282395964400,2.84596435546875,0.026297761127352715,-0.26663410663604736,0.13883033394813538,-0.9080504179000854,-0.10103099048137665,-0.4064938426017761,0.048415958881378174,-0.016019150614738464,-0.023697197437286377,0.7842141720659451,0.24812863345298602,-0.48495902242111893,0.29707767065029633
1728065282405995300,2.855995361328125,0.1218048483133316,-0.2102896124124527,0.10774430632591248,-0.9091280102729797,-0.10016853362321854,-0.40429267287254333,0.02375197410583496,0.00412973016500473,0.05945932865142822,0.7833811631205821,0.2484279215067707,-0.4859395409418699,0.2974227788538227
1728065282416025300,2.866025390625,0.22198890149593353,-0.15024806559085846,0.09605702757835388,-0.9099804162979126,-0.09990955144166946,-0.4024345874786377,-0.000633537769317627,0.04322318732738495,0.06564262509346008,0.7825691817971402,0.24910849869589852,-0.4865466642401873,0.2979978487451028
1728065282426056400,2.876056396484375,0.5426710844039917,-0.08364799618721008,0.07457144558429718,-0.9105280041694641,-0.10057944059371948,-0.401027113199234,-0.019022226333618164,0.09131737053394318,0.061839520931243896,0.7816990786351897,0.25050254361179897,-0.48655412898519723,0.299099066661911
1728065282436087300,2.88608740234375,0.9878866672515869,0.032144010066986084,0.018531877547502518,-0.9107186794281006,-0.10319603234529495,-0.39992767572402954,-0.03918677568435669,0.10783472657203674,0.002817690372467041,0.7805760417397276,0.25342405621056746,-0.48560520349704284,0.3011061858284934
1728065282446117400,2.896117431640625,1.0659828186035156,0.12872913479804993,-0.01610865816473961,-0.9103740453720093,-0.1073540598154068,-0.39961788058280945,-0.050517737865448,0.128899484872818,-0.043344736099243164,0.7794297374629854,0.25739344277373716,-0.4836731115649272,0.303806579162
1728065282456148500,2.9061484375,1.385991096496582,0.040773771703243256,-0.1728987991809845,-0.9098460674285889,-0.11294388771057129,-0.39927929639816284,-0.04240924119949341,0.12055804580450058,-0.05259448289871216,0.7782705275822311,0.2621045792507831,-0.4813123102549657,0.3064877453944793
1728065282466178300,2.91617822265625,1.5261751413345337,-0.14057497680187225,-0.2912917733192444,-0.909831702709198,-0.12115476280450821,-0.39689797163009644,-0.027881979942321777,0.0396118089556694,-0.11642295122146606,0.7764771371696204,0.268657754150169,-0.4789300851112016,0.3090831527293599
1728065282476209400,2.92620947265625,0.9335470199584961,-0.18273888528347015,-0.2275892049074173,-0.9101038575172424,-0.1286102682352066,-0.39391693472862244,-0.0036993026733398438,-0.0014403760433197021,0.015987277030944824,0.7748207217212525,0.2744293956654473,-0.4772106856830378,0.31082381543884835
1728065282486240500,2.936240478515625,0.23303522169589996,-0.1176174208521843,-0.07835259288549423,-0.910594642162323,-0.1322515904903412,-0.3915700614452362,-0.009998679161071777,-0.034740567207336426,0.2081747055053711,0.773842151022214,0.27729608963588076,-0.47678280519881516,0.3113736577922839
1728065282496270300,2.946270263671875,-0.22667384147644043,0.10840214043855667,0.00258220499381423,-0.9105398058891296,-0.13245905935764313,-0.39162740111351013,-0.03846538066864014,-0.11433658003807068,0.2506667375564575,0.7739206349995781,0.27729762546079384,-0.4767518522889408,0.3112244397848087
1728065282506301400,2.956301513671875,-0.4636586904525757,0.15070484578609467,0.004649350885301828,-0.909997284412384,-0.13101837038993835,-0.3933689296245575,-0.05875271558761597,-0.20629239082336426,0.1676609218120575,0.7747292687049653,0.2757048942658761,-0.4767623652781424,0.31061064566038293
1728065282516331500,2.96633154296875,-0.7315098643302917,0.09213837236166,0.019433090463280678,-0.9095131754875183,-0.12857046723365784,-0.3952917754650116,-0.017488837242126465,-0.19709786772727966,0.09307622909545898,0.7758307201537341,0.27317483874405674,-0.47721024859762473,0.3094070106272451
1728065282526362400,2.9763623046875,-0.9714998602867126,0.011228341609239578,0.07199829816818237,-0.9093773365020752,-0.1247067004442215,-0.396838903427124,0.040450334548950195,-0.09802581369876862,0.09280756115913391,0.7770461492845929,0.2696293816380693,-0.47841462274687113,0.30760163691653913
1728065282536393500,2.9863935546875,-1.0254720449447632,-0.020714838057756424,0.08870989829301834,-0.9095186591148376,-0.1198902353644371,-0.39799776673316956,0.06210649013519287,-0.029630616307258606,0.05925267934799194,0.7782509293444304,0.2654896425047215,-0.48012119975221723,0.3054904516608455
1728065282546423600,2.996423583984375,-1.044230580329895,0.012566153891384602,0.08116968721151352,-0.9096533060073853,-0.11501522362232208,-0.39912718534469604,0.04724174737930298,-0.03333070129156113,0.016757190227508545,0.7794562228235021,0.2612902705512072,-0.48183379378617214,0.3033342942034727
1728065282556454400,3.006454345703125,-1.2123357057571411,0.034367430955171585,0.07709212601184845,-0.9096472859382629,-0.10977920889854431,-0.40061262249946594,0.028024911880493164,-0.044380322098731995,0.03301316499710083,0.7808489769075571,0.25666978397658974,-0.4835434948288289,0.30096720165348595
1728065282566484500,3.016484375,-1.3720430135726929,0.05322713777422905,0.04855715110898018,-0.9095408916473389,-0.10394488275051117,-0.4024063050746918,0.008555173873901367,-0.028562411665916443,0.05523839592933655,0.7825153966336212,0.2513441430254332,-0.48541010110370375,0.29811539123824055
1728065282576515300,3.026515380859375,-1.4144511222839355,0.07140113413333893,0.020397687330842018,-0.90934157371521,-0.09799457341432571,-0.4043452739715576,0.0009400248527526855,-0.027295313775539398,0.04165911674499512,0.7843438893812122,0.2456972411533529,-0.48729891325042696,0.2949192753938531
1728065282586546400,3.03654638671875,-1.5422642230987549,0.05511750280857086,0.06280799210071564,-0.9091067910194397,-0.09168427437543869,-0.40634843707084656,0.021945476531982422,-0.016302160918712616,0.033347368240356445,0.7862401998004365,0.2397235232476968,-0.48924269642000984,0.29154882903362467
1728065282596576500,3.046576416015625,-1.7789638042449951,0.006864486262202263,0.1413041353225708,-0.9090659618377686,-0.08393266052007675,-0.40811100602149963,0.06484287977218628,0.01889973133802414,0.06567329168319702,0.788131892728414,0.23286333756575645,-0.4916494304897225,0.28793014906866915
1728065282606607400,3.056607421875,-1.526755452156067,-0.10689270496368408,0.1812446266412735,-0.9093899130821228,-0.0754723846912384,-0.4090404510498047,0.09296834468841553,0.015932604670524597,0.09106254577636719,0.7897369992046978,0.22579747040003986,-0.49446463682919034,0.28431644076952683
1728065282616638000,3.066637939453125,-1.0108287334442139,-0.17897643148899078,0.18605749309062958,-0.9101166725158691,-0.06862641125917435,-0.40862974524497986,0.07953494787216187,0.024498023092746735,-0.02194279432296753,0.7905270047107065,0.22055102307222305,-0.4970335790974852,0.28174823428864615
1728065282626669000,3.0766689453125,-0.5691965818405151,-0.21338234841823578,0.1839141845703125,-0.9110676646232605,-0.0636255070567131,-0.4073178172111511,0.027614116668701172,0.1129266768693924,-0.13673436641693115,0.7906316522050083,0.21719652713464052,-0.49916607088392834,0.2802868690636874
1728065282636700000,3.086699951171875,0.012042060494422913,-0.19707143306732178,0.0832514837384224,-0.912011444568634,-0.061182934790849686,-0.4055759310722351,-0.03496426343917847,0.17797373235225677,-0.1320522129535675,0.7902124241252082,0.21602043480340818,-0.500546903290788,0.27991495439958164
1728065282646730000,3.09672998046875,0.24351149797439575,-0.09880931675434113,-0.04523032531142235,-0.912636399269104,-0.06169567257165909,-0.4040900468826294,-0.09304004907608032,0.17827282845973969,-0.11650937795639038,0.7896345272909508,0.21683423231110197,-0.5009370158666794,0.28021878013354246
1728065282656760800,3.1067607421875,0.14353184401988983,0.054004035890102386,-0.1118389144539833,-0.9126907587051392,-0.06326678395271301,-0.40372398495674133,-0.13426059484481812,0.1284218430519104,-0.006203353404998779,0.7894634830741429,0.2178786119133696,-0.5006664721677552,0.280373911381404
1728065282666791000,3.116791015625,-0.1322305053472519,0.20855925977230072,-0.14983528852462769,-0.9120467901229858,-0.06450305879116058,-0.40498146414756775,-0.13871920108795166,0.03216972202062607,0.046811968088150024,0.7899637231698122,0.21808569198521457,-0.4999478965298086,0.28008569547922735
1728065282676822000,3.126822021484375,-0.7544625997543335,0.02857644110918045,-0.2399180382490158,-0.9113550186157227,-0.06457947194576263,-0.40652400255203247,-0.11258608102798462,-0.011958591639995575,0.06120234727859497,0.7910445336771674,0.21671386862490416,-0.499773051007222,0.27840753976197097
1728065282686852000,3.13685205078125,-1.0183779001235962,-0.18987147510051727,-0.2028883844614029,-0.9116138815879822,-0.06280162930488586,-0.4062218964099884,-0.0799938440322876,0.04810744524002075,0.11822754144668579,0.7921374033601939,0.2136565852738435,-0.5012383822459027,0.2750079845773218
1728065282696883000,3.146883056640625,-0.4139707684516907,-0.25941047072410583,-0.055929310619831085,-0.9124388098716736,-0.06097068265080452,-0.4046455919742584,-0.040106356143951416,0.0613979697227478,-0.014925271272659302,0.7925617922227575,0.21131019207781818,-0.5030161091368441,0.27233927487583076
1728065282706914000,3.1569140625,0.2637299597263336,-0.21209272742271423,0.07346676290035248,-0.9134629368782043,-0.060565195977687836,-0.40238961577415466,-0.01875758171081543,0.06624149531126022,-0.19844043254852295,0.791963611047296,0.2113784747384539,-0.5041074541797683,0.2720083993537687
1728065282716944000,3.16694384765625,0.6142022609710693,-0.08068735897541046,0.07710304111242294,-0.9140942096710205,-0.06159045174717903,-0.40079742670059204,-0.03709298372268677,0.13240651786327362,-0.13106286525726318,0.7910035305325938,0.21314471308432045,-0.5041533601336271,0.2733354678017425
1728065282726975000,3.17697509765625,0.8525943160057068,0.045894816517829895,-0.027502993121743202,-0.9141930341720581,-0.06431730836629868,-0.40014323592185974,-0.08196181058883667,0.15429839491844177,-0.005038619041442871,0.7901114789441916,0.21605246763031552,-0.5032392222629292,0.2753101769612976
1728065282737005000,3.187005126953125,0.8837028741836548,0.18744134902954102,-0.09748447686433792,-0.9136922359466553,-0.06844589859247208,-0.40060192346572876,-0.110798180103302,0.08088183403015137,0.02258068323135376,0.7895255698817938,0.21954668516343953,-0.5014960530718301,0.2773995391902835
1728065282747036000,3.197035888671875,0.8089106678962708,0.26911890506744385,-0.10937415808439255,-0.9126659631729126,-0.07282302528619766,-0.40216630697250366,-0.10161632299423218,-0.023047931492328644,0.03439897298812866,0.7893274679714454,0.2228330876594955,-0.49926172286385767,0.27936603013103567
1728065282757067000,3.20706689453125,0.6326707601547241,0.31270837783813477,-0.09226494282484055,-0.9114454388618469,-0.07668431848287582,-0.40421128273010254,-0.057563960552215576,-0.09822714328765869,0.018453866243362427,0.789345282300398,0.2255886602956949,-0.496995086299723,0.2811399712040483
1728065282767097000,3.21709716796875,0.20571039617061615,0.322632372379303,-0.10803218930959702,-0.9100195169448853,-0.07928147166967392,-0.4069138467311859,0.011154770851135254,-0.1252778321504593,0.03789535164833069,0.789829645348517,0.2270280867716048,-0.49497608523836956,0.2821808606129112
1728065282777128000,3.2271279296875,0.028021227568387985,0.15794669091701508,-0.11158298701047897,-0.9089516997337341,-0.08068430423736572,-0.40901950001716614,0.08503806591033936,-0.15556751191616058,-0.006980836391448975,0.7904733757020251,0.22733888633731889,-0.49376844637306533,0.2822440034653084
1728065282787158000,3.237157958984375,-0.04393019527196884,0.011794796213507652,-0.0989936888217926,-0.9085009694099426,-0.0816139206290245,-0.40983572602272034,0.20368218421936035,-0.162297785282135,-0.06993108987808228,0.7908415577751077,0.2274607408636194,-0.4932988397508683,0.281935484343116
1728065282797189000,3.247189208984375,-0.2320849746465683,-0.13972207903862,-0.025246761739253998,-0.9087380170822144,-0.08163159340620041,-0.40930622816085815,0.2631080746650696,-0.0725736990571022,-0.020747482776641846,0.7909131834022888,0.22717479183173642,-0.4936987970657647,0.28126408316660556
1728065282807220000,3.257219970703125,-0.36845719814300537,-0.10785549134016037,0.0723615512251854,-0.9093106985092163,-0.08013053238391876,-0.4083296060562134,0.20707076787948608,0.04247187077999115,0.06314530968666077,0.7908914293342372,0.22608069146235452,-0.49469456980813875,0.2804559087596484
1728065282817250000,3.26725,-0.44920557737350464,0.06916370987892151,0.04115382954478264,-0.9094581007957458,-0.07780376821756363,-0.408451646566391,0.06853091716766357,0.09005659818649292,0.06668531894683838,0.7912066696900781,0.2242968413938873,-0.4954443526314271,0.2796747455623257
1728065282827281000,3.277281005859375,-0.3918653428554535,0.2579330801963806,-0.12584100663661957,-0.9087514877319336,-0.07636117935180664,-0.41029244661331177,-0.08639627695083618,0.08426524698734283,0.03593331575393677,0.7921584190420465,0.2224292213246103,-0.4953574648944321,0.2786242255664663
1728065282837311000,3.28731103515625,-0.21538476645946503,0.4122968316078186,-0.21926788985729218,-0.9072254300117493,-0.076780766248703,-0.41357800364494324,-0.133286714553833,0.049650661647319794,-0.000484466552734375,0.7935791407599098,0.22121950957499573,-0.49423974506420815,0.2775268638060346
1728065282847342000,3.297342041015625,-0.09843285381793976,0.3653431534767151,-0.19143173098564148,-0.9053874611854553,-0.0780407264828682,-0.4173527657985687,-0.05135387182235718,0.027412086725234985,-0.024785876274108887,0.7950353136687659,0.22056537772382467,-0.49262006786662843,0.27675872395853696
1728065282857373000,3.307373046875,0.024649199098348618,0.20963847637176514,-0.13900740444660187,-0.9040401577949524,-0.07935825735330582,-0.4200163781642914,0.04951739311218262,0.01412694901227951,0.0036956071853637695,0.7960228331885961,0.22040626665500587,-0.49133785206703734,0.2763257315491941
1728065282867403000,3.317403076171875,-0.08239389955997467,0.08956985920667648,-0.09611907601356506,-0.9033420085906982,-0.08037684112787247,-0.4213227331638336,0.09601467847824097,-0.015784017741680145,-0.002047598361968994,0.7965347970561747,0.22048079439979046,-0.49063923063626147,0.27603215308678736
1728065282877434000,3.32743408203125,-0.25270023941993713,0.0347239188849926,-0.1694002002477646,-0.9029905796051025,-0.08071213215589523,-0.42201152443885803,0.06007981300354004,-0.003974117338657379,0.00402754545211792,0.7970598029377166,0.2199563590507377,-0.4905236376439651,0.27513925203908796
1728065282887464000,3.3374638671875,-0.1415042281150818,0.029700931161642075,-0.2518170475959778,-0.9027025699615479,-0.08177851885557175,-0.4224221110343933,-0.031410038471221924,0.024161361157894135,-0.04410010576248169,0.7976470166992291,0.21962310299344018,-0.49046369896570896,0.2738071203413108
1728065282897495000,3.3474951171875,-0.060759108513593674,0.0124205332249403,-0.26166704297065735,-0.9023730158805847,-0.08374833315610886,-0.42274025082588196,-0.06599557399749756,0.05736590176820755,-0.10925740003585815,0.798179346423478,0.21984480214531296,-0.4902021407768321,0.2725435171051842
1728065282907526100,3.357526123046875,0.05239780619740486,-0.0185626819729805,-0.24930089712142944,-0.9022122025489807,-0.08598949760198593,-0.42263340950012207,-0.04273408651351929,0.09758620709180832,-0.07840418815612793,0.7985009153392381,0.22044655690449616,-0.489986335993952,0.27150151047495374
1728065282917556000,3.367555908203125,0.08302974700927734,-0.10637877136468887,-0.19213028252124786,-0.9022226929664612,-0.08838183432817459,-0.4221172630786896,-0.0020132064819335938,0.09150990843772888,-0.06898683309555054,0.7986143844983278,0.22136485324750826,-0.48983566252796934,0.2706912719223696
1728065282927587000,3.377587158203125,0.2549876570701599,-0.1404171586036682,-0.13073217868804932,-0.902685284614563,-0.0904359370470047,-0.4206905961036682,0.03705418109893799,0.055035561323165894,-0.0748995840549469,0.7982882170977054,0.22258307920636838,-0.49001171451885966,0.2703353380211144
1728065282937617200,3.3876171875,0.4456935524940491,-0.1433383822441101,-0.040770065039396286,-0.9031862020492554,-0.09266682714223862,-0.419127494096756,0.050585925579071045,-0.005874402821063995,-0.057908058166503906,0.7976787993566755,0.2243637546793344,-0.4899971039266927,0.2706889383095395
1728065282947648000,3.39764794921875,0.802916944026947,-0.09730777144432068,-0.006757501047104597,-0.9037045240402222,-0.0954337865114212,-0.4173853099346161,0.03990447521209717,-0.07824172079563141,-0.06920215487480164,0.7966970750040212,0.22704496545531042,-0.4896508253264616,0.2719676159415349
1728065282957679000,3.40767919921875,0.9502233266830444,-0.07102616131305695,-0.013672132045030594,-0.9040361642837524,-0.09931786358356476,-0.4157577157020569,0.018889129161834717,-0.15017855167388916,-0.07700955867767334,0.7954623669943891,0.23081602466365536,-0.48871780989671054,0.2740774472646657
1728065282967709200,3.417709228515625,0.6012448072433472,-0.07191511988639832,0.00874023325741291,-0.9043335318565369,-0.10268882662057877,-0.41428956389427185,0.010275304317474365,-0.12004368007183075,0.051176220178604126,0.7943676271802169,0.23409979669323866,-0.48790623946256795,0.2759072846433467
1728065282977740000,3.427739990234375,0.4720487892627716,-0.06323012709617615,0.07586467266082764,-0.9046537280082703,-0.10434623062610626,-0.4131750464439392,-0.008600115776062012,-0.042504340410232544,0.1664099097251892,0.7935586960562012,0.23606062997212002,-0.4875324222264254,0.2772222791349774
1728065282987769900,3.437769775390625,0.6874431371688843,0.0781664177775383,0.13880476355552673,-0.9047976136207581,-0.1057598888874054,-0.41249990463256836,-0.030886590480804443,-0.06120174378156662,0.05993035435676575,0.7927002618039674,0.23811092612538937,-0.48688112417619034,0.27906329352841835
1728065282997801000,3.447801025390625,0.7973507642745972,0.05124249681830406,0.14873622357845306,-0.9045908451080322,-0.10755699872970581,-0.41248875856399536,-0.004558384418487549,-0.1012595146894455,-0.05278223752975464,0.791810892933157,0.24061621421718693,-0.48565364562704666,0.2815670036302434
1728065283007832000,3.45783203125,0.7213262915611267,-0.016597270965576172,0.27170100808143616,-0.9048038125038147,-0.10892947018146515,-0.4116605222225189,0.0493960976600647,-0.07117000222206116,-0.024206727743148804,0.7905918029888899,0.243191679112379,-0.4847963925296446,0.28424430302157117
1728065283017862000,3.46786181640625,0.5112814903259277,-0.023713449016213417,0.3538193106651306,-0.9051674008369446,-0.10849560797214508,-0.41097527742385864,0.10994035005569458,-0.036676496267318726,0.04304012656211853,0.7893682538891257,0.24483197109515392,-0.48432392651566764,0.2870285200591974
1728065283027893000,3.47789306640625,0.4488900303840637,-0.22550861537456512,0.34831082820892334,-0.9060828685760498,-0.10724417865276337,-0.4092831015586853,0.11459416151046753,-0.09169988334178925,-0.0336490273475647,0.7879713373011119,0.2460192085383233,-0.484595707264256,0.28938348531821145
1728065283037922800,3.4879228515625,0.37373900413513184,-0.20087261497974396,0.373552531003952,-0.9073766469955444,-0.10571646690368652,-0.4068068861961365,0.10160571336746216,-0.1661188304424286,-0.013298094272613525,0.7863784952333149,0.2471525673018848,-0.48529595959442495,0.2915689470955717
1728065283047954000,3.497953857421875,-0.00843551754951477,-0.21621322631835938,0.4212154150009155,-0.9086443185806274,-0.10285142064094543,-0.4047064185142517,0.07023483514785767,-0.12734264135360718,0.08607238531112671,0.7850432271297384,0.24724257782079528,-0.4863310535964029,0.29336066566112234
1728065283057985000,3.507985107421875,-0.19856290519237518,-0.14786815643310547,0.3763698935508728,-0.9098262190818787,-0.09858053922653198,-0.40311065316200256,0.015844225883483887,-0.02716711163520813,0.10753268003463745,0.7841393068993061,0.24600232080082993,-0.48777815070148844,0.2944162645167417
1728065283068014800,3.518014892578125,-0.11908566951751709,-0.051374372094869614,0.23444899916648865,-0.91051185131073,-0.09511677920818329,-0.4023940861225128,-0.05549156665802002,0.020028315484523773,0.015477031469345093,0.7836388664815054,0.24477071045880547,-0.48876400337826187,0.2951392693778333
1728065283078046000,3.5280458984375,-0.24989089369773865,-0.03678685426712036,0.1272895187139511,-0.910832941532135,-0.09282857179641724,-0.4022020399570465,-0.08449804782867432,0.07671531289815903,-0.02652418613433838,0.7834937527527661,0.24372807659833956,-0.48938288607507296,0.29536206238382806
1728065283088075800,3.53807568359375,-0.37303224205970764,-0.02853211760520935,0.07217592746019363,-0.9110585451126099,-0.09059163182973862,-0.4022010862827301,-0.06062120199203491,0.1560671031475067,-0.00819927453994751,0.7836640526215883,0.24224258597195414,-0.4901203808389792,0.29490916457858424
1728065283098107000,3.54810693359375,-0.21050120890140533,-0.020685914903879166,0.03063727729022503,-0.9112204909324646,-0.08887901902198792,-0.40221625566482544,-0.019825100898742676,0.1607021689414978,-0.03781670331954956,0.7838826208249987,0.24096115598503393,-0.49074392227038727,0.29434038255250083
1728065283108137700,3.5581376953125,0.012598994188010693,-0.029427476227283478,-0.001980322878807783,-0.9113242626190186,-0.08835876733064651,-0.40209585428237915,0.01805943250656128,0.110682412981987,-0.09515756368637085,0.7839242263645692,0.24057693749387116,-0.4909937031494081,0.2941274092578245
1728065283118167800,3.568167724609375,0.13994815945625305,-0.11893206089735031,-0.0034770192578434944,-0.9116117358207703,-0.08875329047441483,-0.40135660767555237,0.03973960876464844,0.057091303169727325,-0.11602318286895752,0.7836517930227163,0.24103110817096624,-0.49114732735806077,0.2942249826338046
1728065283128199000,3.578198974609375,0.26169562339782715,-0.12477796524763107,0.035114046186208725,-0.9121456146240234,-0.08937445282936096,-0.40000325441360474,0.04971885681152344,0.008853860199451447,-0.052999645471572876,0.7830782189304429,0.2419328481220981,-0.49139279191126184,0.29460162695785425
1728065283138229000,3.58822900390625,0.4448767602443695,-0.14074042439460754,0.05503449589014053,-0.9127245545387268,-0.09031182527542114,-0.39846909046173096,0.025380253791809082,-0.060536548495292664,-0.06373482942581177,0.7822438028326358,0.24338735572301717,-0.49145503886759584,0.2955150068174598
1728065283148259800,3.598259765625,0.562393307685852,-0.06790882349014282,0.026203377172350883,-0.9131938219070435,-0.09196767956018448,-0.3970126807689667,-0.011641442775726318,-0.12263192236423492,-0.04741477966308594,0.7812915960763523,0.24544430558733457,-0.49117283965682457,0.29679925418550335
1728065283158290000,3.6082900390625,0.46169862151145935,-0.05766896903514862,0.02629712037742138,-0.9134473204612732,-0.0938442051410675,-0.39598917961120605,-0.03648865222930908,-0.0953189879655838,0.038140058517456055,0.7804599481265012,0.24753822001683232,-0.49064268192776317,0.2981223798251419
1728065283168320800,3.61832080078125,0.22056697309017181,-0.026766445487737656,0.06088918447494507,-0.9136772751808167,-0.09478140622377396,-0.3952345550060272,-0.02707284688949585,0.004174754023551941,0.1487288773059845,0.7798598866618909,0.24881763275683214,-0.4903799661401252,0.2990582793819403
1728065283178351900,3.628351806640625,0.13595622777938843,0.0039826263673603535,0.08703290671110153,-0.9137922525405884,-0.09472059458494186,-0.3949834406375885,0.00021797418594360352,0.10283828526735306,0.2418767213821411,0.7795072396025664,0.2492934458965881,-0.4902663196345846,0.2997671750036534
1728065283188382000,3.6383818359375,0.2987499237060547,0.0012936326675117016,0.06807386130094528,-0.913870096206665,-0.09480266273021698,-0.3947833478450775,-0.008554220199584961,0.16336043179035187,0.2130359709262848,0.7791388526981251,0.2498840919130422,-0.49006761822819667,0.3005566340346454
1728065283198412800,3.648412841796875,0.5574715733528137,0.13241292536258698,0.01710761897265911,-0.9136750102043152,-0.09602800756692886,-0.3949390649795532,-0.03973996639251709,0.19972676038742065,0.11523020267486572,0.7786842256282698,0.2513221308017813,-0.4892521420732589,0.301861883977276
1728065283208443000,3.65844287109375,1.0577399730682373,0.2741921842098236,-0.0961206704378128,-0.9128175377845764,-0.09947150945663452,-0.3960679769515991,-0.07386171817779541,0.20272774994373322,0.007319748401641846,0.7782623284103999,0.2541424906390891,-0.48721413442433853,0.3038782358704922
1728065283218474000,3.668473876953125,1.6564891338348389,0.34807953238487244,-0.1631937026977539,-0.9114141464233398,-0.10620871931314468,-0.39754754304885864,-0.08214664459228516,0.14511863887310028,-0.14291876554489136,0.7774655607114823,0.25937210440208075,-0.48368619812915115,0.3071175457530503
1728065283228504800,3.6785048828125,1.80036461353302,0.2687980532646179,-0.1478022336959839,-0.9099577069282532,-0.11467050015926361,-0.3985321521759033,-0.014267206192016602,0.0828712061047554,-0.19462275505065918,0.7761748372264393,0.26609633849385245,-0.47950668675779873,0.31115735165563485
1728065283238535000,3.688534912109375,1.5683444738388062,0.1358986794948578,-0.13829341530799866,-0.9090162515640259,-0.12269021570682526,-0.3982924222946167,0.08031123876571655,0.06546976417303085,-0.056739985942840576,0.7745597720896598,0.27271834524238514,-0.4758975651837792,0.31496599503093725
1728065283248566000,3.69856591796875,1.3628720045089722,0.0035670134238898754,-0.142861008644104,-0.9085635542869568,-0.12975019216537476,-0.39708608388900757,0.132013201713562,0.03052230179309845,0.04715627431869507,0.772946635865075,0.27856130452365907,-0.473139051299601,0.3179571080290736
1728065283258595800,3.708595947265625,1.3144665956497192,-0.15715204179286957,-0.1290770173072815,-0.9086982011795044,-0.13630343973636627,-0.39457443356513977,0.1421271562576294,-0.043963879346847534,-0.01520034670829773,0.7710907139777681,0.28418730811690657,-0.47111608276074995,0.3204782910875041
1728065283268627000,3.718626953125,1.1662062406539917,-0.2653919756412506,-0.05578816309571266,-0.909418523311615,-0.1421288549900055,-0.3908417224884033,0.11919641494750977,-0.12604433298110962,-0.058224380016326904,0.7689219793972599,0.2896218216489506,-0.46978542078496216,0.32276897659557646
1728065283278657800,3.72865771484375,0.6871654987335205,-0.29300999641418457,0.03773965686559677,-0.9105244874954224,-0.1458912044763565,-0.38686057925224304,0.06262403726577759,-0.154935821890831,0.00626063346862793,0.7668816297616096,0.2937413601837559,-0.46934606107258825,0.32453505652753767
1728065283288687900,3.73868798828125,0.15875467658042908,-0.19401976466178894,0.06709940731525421,-0.911577582359314,-0.14696070551872253,-0.383964866399765,-0.01482933759689331,-0.14046907424926758,0.1023181676864624,0.7655857522957197,0.29560326097198664,-0.4697193541640967,0.32536297994509233
1728065283298719000,3.748718994140625,-0.22303250432014465,-0.03252648934721947,0.03269723057746887,-0.9120924472808838,-0.14634253084659576,-0.3829771876335144,-0.07791322469711304,-0.13458703458309174,0.13586103916168213,0.7652878097500186,0.29552354245623047,-0.4702948452445531,0.32530507721566065
1728065283308749000,3.7587490234375,-0.5115202069282532,0.08836664259433746,0.010555176064372063,-0.9119905233383179,-0.14468048512935638,-0.38385000824928284,-0.08927595615386963,-0.10629603266716003,0.11361685395240784,0.7658965881587262,0.2939548410425296,-0.47081371449148185,0.3245418730349259
1728065283318780000,3.76877978515625,-0.534855842590332,0.05671636015176773,0.02931634895503521,-0.911698043346405,-0.1424538642168045,-0.38537463545799255,-0.05287104845046997,-0.04034639894962311,0.05447259545326233,0.7668546823098201,0.2917131742424006,-0.4713980307098906,0.3234520974412778
1728065283328811000,3.77881103515625,-0.4119512438774109,-0.06629132479429245,0.0757240578532219,-0.911772608757019,-0.14014483988285065,-0.3860444128513336,0.0012500882148742676,0.01703694462776184,-0.061007559299468994,0.7674650610431547,0.2897611934681529,-0.4722459512802412,0.32252087003764623
1728065283338841000,3.788841064453125,-0.32358428835868835,-0.18227790296077728,0.11951441317796707,-0.9123901724815369,-0.1378486454486847,-0.38541141152381897,0.042852818965911865,0.039871945977211,-0.10137444734573364,0.7675351410466559,0.2883388920277545,-0.4734500748394358,0.32186268604672774
1728065283348872000,3.798871826171875,-0.3702860176563263,-0.2762635052204132,0.1302506923675537,-0.9134634137153625,-0.13536475598812103,-0.38374602794647217,0.05144864320755005,0.04489542543888092,-0.09632596373558044,0.7672628743180396,0.28710528455525225,-0.47507635642625307,0.32121752356178324
1728065283358902000,3.808902099609375,-0.5630344152450562,-0.2910767197608948,0.10588755458593369,-0.9147377014160156,-0.13250981271266937,-0.3817014992237091,0.031986236572265625,0.02253974974155426,-0.04429331421852112,0.7670369654926262,0.28552190804709776,-0.47710218441036645,0.32016402390145765
1728065283368932900,3.818932861328125,-0.8615449666976929,-0.23052549362182617,0.0994994267821312,-0.9158748984336853,-0.12887310981750488,-0.38021719455718994,0.005840599536895752,-0.02205158770084381,0.007872164249420166,0.76725331139052,0.28297606290036914,-0.47939122814047236,0.3184826092075197
1728065283378964000,3.8289638671875,-1.2594658136367798,-0.21592454612255096,0.09930422157049179,-0.9168441295623779,-0.12387322634458542,-0.3795422613620758,-0.011500656604766846,-0.06861638277769089,0.016138970851898193,0.7680692732342776,0.2789648630366468,-0.48208658657598175,0.3159758687837721
1728065283388994000,3.838994140625,-0.9615406394004822,-0.24558044970035553,0.19745929539203644,-0.9178524613380432,-0.11811140924692154,-0.3789415955543518,-0.024133682250976562,-0.13858717679977417,0.03349786996841431,0.7689351236304747,0.2744571943734795,-0.48497675421059777,0.31338423898423734
1728065283399025000,3.84902490234375,-0.44208449125289917,-0.31281715631484985,0.2763146758079529,-0.9192426800727844,-0.11328510195016861,-0.377040296792984,-0.008674800395965576,-0.1320304274559021,-0.10963872075080872,0.7687705864388541,0.27169958730681787,-0.4875030108897621,0.3122690426214433
1728065283409055000,3.859054931640625,-0.2723487317562103,-0.23547416925430298,0.25523602962493896,-0.9205811619758606,-0.10944870114326477,-0.3749018609523773,0.0006897449493408203,0.04162340611219406,-0.1416691541671753,0.7681375527315749,0.2701274104316375,-0.4894693568777486,0.3121148550949186
1728065283419086000,3.869086181640625,-0.07608992606401443,-0.17075353860855103,0.05061870440840721,-0.9215415120124817,-0.1072591245174408,-0.37317150831222534,0.005922555923461914,0.2085317224264145,-0.0006535649299621582,0.7676204881962756,0.26934453791272617,-0.4907828022361443,0.31200120168511025
1728065283429117000,3.879116943359375,0.12431134283542633,-0.06123770773410797,-0.15337276458740234,-0.9218891859054565,-0.10791674256324768,-0.37212130427360535,-0.00026047229766845703,0.22702687978744507,0.06683877110481262,0.7673957761970783,0.2697857396965164,-0.49107535084747894,0.31171197139370643
1728065283439147000,3.88914697265625,0.17656642198562622,-0.037296317517757416,-0.2000044584274292,-0.9218692183494568,-0.1102079227566719,-0.3714987337589264,-0.015737593173980713,0.1601347029209137,0.05214759707450867,0.7673569874582685,0.2709109470854084,-0.4907727465862609,0.3113079262819714
1728065283449177900,3.899177734375,0.3184458017349243,0.0019437638111412525,-0.17102739214897156,-0.9217401742935181,-0.11282432079315186,-0.371033638715744,-0.02139037847518921,0.05343714356422424,0.004029214382171631,0.7672684066977004,0.2723263913619654,-0.4902259927189867,0.3111529749910968
1728065283459208000,3.9092080078125,0.4128831624984741,0.06427878141403198,-0.14115124940872192,-0.9214344024658203,-0.11568113416433334,-0.37091344594955444,-0.013273298740386963,-0.07673216611146927,-0.04948145151138306,0.7670790905469347,0.2741125115222949,-0.4892909271640788,0.3115230620227131
1728065283469239000,3.919239013671875,0.23584632575511932,0.022382192313671112,-0.0853753462433815,-0.9211029410362244,-0.11798585951328278,-0.3710103929042816,0.021139562129974365,-0.15665706992149353,-0.04630216956138611,0.7669151859331194,0.27561618327084864,-0.4883958717256287,0.3120036756569921
1728065283479269000,3.92926904296875,-0.12076325714588165,-0.1312883198261261,-0.013518733903765678,-0.9212301969528198,-0.11865410208702087,-0.37048089504241943,0.0660666823387146,-0.16670046746730804,-0.009325593709945679,0.7667862276311812,0.27604227234813694,-0.4884262682412118,0.3118963306949667
1728065283489300000,3.939300048828125,-0.4129626154899597,-0.3039895296096802,0.042695000767707825,-0.9220625162124634,-0.1174449473619461,-0.36879193782806396,0.0911908745765686,-0.145692840218544,0.027696967124938965,0.7666087435313567,0.275261048350433,-0.4897299187929335,0.31097763672509565
1728065283499331000,3.9493310546875,-0.3222354054450989,-0.36858099699020386,0.058879829943180084,-0.9233996272087097,-0.1154618039727211,-0.3660627603530884,0.07292044162750244,-0.11712789535522461,-0.003581404685974121,0.7662258795071619,0.2741231723926425,-0.49175716582166307,0.3097247537878552
1728065283509361200,3.959361083984375,0.034535784274339676,-0.31841954588890076,0.04635312035679817,-0.924719512462616,-0.11446014046669006,-0.3630327582359314,0.025854766368865967,-0.10421355813741684,-0.12956669926643372,0.7654840143246261,0.27399192867910105,-0.4933680567346159,0.30911277906794216
1728065283519392000,3.96939208984375,0.04758574068546295,-0.25159353017807007,0.02883405052125454,-0.9257897138595581,-0.11434876173734665,-0.3603304624557495,0.006264388561248779,-0.055298447608947754,-0.15576758980751038,0.7646251745648328,0.27460380079559576,-0.4943961208343492,0.30905298607700743
1728065283529422000,3.979422119140625,-0.23582573235034943,-0.25111764669418335,-0.0072176954708993435,-0.9267032742500305,-0.11390941590070724,-0.35811397433280945,0.011435389518737793,0.03264112025499344,-0.0036108195781707764,0.7641134636436533,0.2746092706733776,-0.4955126197830628,0.3085248028045999
1728065283539453000,3.989452880859375,-0.3851988613605499,-0.26605498790740967,-0.023368967697024345,-0.9276015758514404,-0.11291591078042984,-0.3560975193977356,0.005406081676483154,0.05745023488998413,0.0937684178352356,0.7639508895984272,0.273804746787362,-0.49697303777568197,0.3072911681677694
1728065283549484000,3.999484130859375,-0.34457606077194214,-0.3050077259540558,-0.009447026997804642,-0.9286074042320251,-0.11175445467233658,-0.35383498668670654,-0.0039182305335998535,0.023360319435596466,0.06761065125465393,0.7637720094338147,0.2728606669564126,-0.49862767984991774,0.3058917913915307
1728065283559514000,4.00951416015625,-0.1980421245098114,-0.24065561592578888,0.03267219662666321,-0.929604709148407,-0.11067080497741699,-0.3515496850013733,-0.018362879753112793,0.019179120659828186,0.05256897211074829,0.7634333514934607,0.2722033982011464,-0.500130444117251,0.30486796597773697
1728065283569545000,4.019544921875,0.03139824792742729,-0.15984705090522766,0.05145547166466713,-0.9303638339042664,-0.10992778837680817,-0.34977006912231445,-0.04787719249725342,0.05101361125707626,0.04044389724731445,0.7629810922179269,0.27205097836538267,-0.501102014513402,0.30454049826183804
1728065283579575000,4.029574951171875,0.3228481411933899,-0.050351664423942566,0.03326820954680443,-0.9307757019996643,-0.1101183220744133,-0.34861278533935547,-0.07418358325958252,0.0797075554728508,0.0009565055370330811,0.7624079316601275,0.2727733222098162,-0.5012866612646788,0.3050258385982265
1728065283589606100,4.039606201171875,0.4476425349712372,0.03574300557374954,-0.03994714841246605,-0.9308079481124878,-0.11154565215110779,-0.34807220101356506,-0.07944601774215698,0.10832606256008148,0.0012246966361999512,0.7618310007907694,0.27433770816023223,-0.5007022209605007,0.30602249516983293
1728065283599637000,4.049636962890625,0.34623607993125916,0.17316249012947083,-0.11100348085165024,-0.930361270904541,-0.11368661373853683,-0.34857335686683655,-0.07777172327041626,0.13060863316059113,0.06363075971603394,0.7616537403623759,0.2759149360876571,-0.4995840966171979,0.30687193030011495
1728065283609667000,4.0596669921875,0.2587169110774994,0.24669742584228516,-0.14413665235042572,-0.9294508695602417,-0.11590179800987244,-0.3502684235572815,-0.06713122129440308,0.11741242557764053,0.077456533908844,0.7619873384031464,0.2770199614078392,-0.4981222069478054,0.3074241652546689
1728065283619698700,4.06969873046875,0.2802594006061554,0.26089149713516235,-0.16450583934783936,-0.9283826351165771,-0.11828704178333282,-0.35229820013046265,-0.04224425554275513,0.07150360196828842,0.012713849544525146,0.7624801779100698,0.2780425510209135,-0.4965312140272143,0.30785257319691695
1728065283629728800,4.079728759765625,0.24706150591373444,0.184035062789917,-0.11149802803993225,-0.9273709654808044,-0.12055213004350662,-0.35418975353240967,-0.007397770881652832,0.030113309621810913,-0.05160248279571533,0.7629175301796487,0.2790481017133757,-0.4950124055178025,0.3083046457227936
1728065283639760000,4.089759765625,0.314861923456192,-0.0932527408003807,-0.04778163507580757,-0.9271144866943359,-0.12225089967250824,-0.3542790710926056,0.026906907558441162,0.01598871499300003,-0.12870734930038452,0.7627728172942477,0.28020981981995324,-0.49431054434084065,0.3087350326710811
1728065283649790700,4.099790771484375,0.4772079586982727,-0.297590434551239,-0.03493960574269295,-0.9277788996696472,-0.12399928271770477,-0.35192397236824036,0.03840512037277222,-0.01226169615983963,-0.17938700318336487,0.7617746032295617,0.2821267363696775,-0.49441128114193655,0.30929177580868006
1728065283659820800,4.10982080078125,0.5408170819282532,-0.4044986665248871,-0.04294400289654732,-0.9290010929107666,-0.12616829574108124,-0.3479062616825104,0.018600642681121826,-0.03340810537338257,-0.11075764894485474,0.7602001696525817,0.28475790949951935,-0.494934141670643,0.3099177289917198
1728065283669852000,4.119851806640625,0.4535578191280365,-0.3608294725418091,-0.03668078035116196,-0.9303268194198608,-0.1282552033662796,-0.34357330203056335,-0.02267611026763916,-0.014185547828674316,0.01457861065864563,0.7585546703688546,0.28737693384138874,-0.49560856232464673,0.3104536963826645
1728065283679881700,4.1298818359375,0.2912927269935608,-0.10578477382659912,-0.0987609252333641,-0.9310604333877563,-0.13015292584896088,-0.3408621549606323,-0.06912285089492798,0.0053207725286483765,0.11306366324424744,0.7575075456066513,0.2893591103002649,-0.4958227837014346,0.3108272714194351
