time,seconds_elapsed,rotationRateX,rotationRateY,rotationRateZ,gravityX,gravityY,gravityZ,accelerationX,accelerationY,accelerationZ,quaternionW,quaternionX,quaternionY,quaternionZ
1729876376313161700,0.10216162109375,0.01323130913078785,-0.02006564289331436,0.044229764491319656,-0.22262558341026306,-0.48243579268455505,-0.8471680283546448,-0.01634235680103302,-0.02331683039665222,-0.014114320278167725,0.9610329063965202,0.25099858248124257,-0.11582620079710952,-1.1179233482090862e-17
1729876376323192600,0.112192626953125,0.03341713547706604,0.018932729959487915,0.034051962196826935,-0.22245898842811584,-0.4827938973903656,-0.8470077514648438,0.03147993981838226,-0.011728286743164062,-0.01731109619140625,0.9609911055249376,0.2512155239337725,-0.11570176670000361,0.00016372064423827103
1729876376333222700,0.12222265625,0.04629645124077797,0.03972243145108223,0.0004676384851336479,-0.2222280502319336,-0.4831327199935913,-0.8468751311302185,0.042967766523361206,0.0021755993366241455,-0.008654594421386719,0.960956563036749,0.2514163919026959,-0.11555185933226374,0.00029317395532358855
1729876376343253500,0.13225341796875,0.08473758399486542,0.031364258378744125,0.034592051059007645,-0.22214064002037048,-0.4832814335823059,-0.8468132019042969,0.009463608264923096,0.0005085170269012451,0.00008779764175415039,0.9609404200407284,0.2515202540763206,-0.11545973019090978,0.0004786881589958913
1729876376353283600,0.14228369140625,0.11614557355642319,0.04262277111411095,0.06041379272937775,-0.22220581769943237,-0.48367005586624146,-0.8465741872787476,-0.012749060988426208,-0.003176957368850708,0.008210599422454834,0.960877957701095,0.25178557786100225,-0.11539896577106855,0.0008681499074567245
1729876376363314700,0.152314697265625,0.1267201155424118,0.04136597365140915,0.02312634512782097,-0.22220094501972198,-0.4846363067626953,-0.8460227251052856,-0.0027746856212615967,0.005357682704925537,0.007994771003723145,0.9607340938884956,0.25236816207604884,-0.11532109626110107,0.0012187056083328108
1729876376373344500,0.162344482421875,0.08596497029066086,0.02006068453192711,0.00674071442335844,-0.22243160009384155,-0.4858003258705139,-0.845294177532196,-0.00016367435455322266,0.013983219861984253,0.00650334358215332,0.9605441646056369,0.2530481856681114,-0.11541025770807337,0.0014193022258105932
1729876376383375600,0.172375732421875,0.03531297668814659,0.005013132002204657,-0.007987099699676037,-0.22312788665294647,-0.4865625202655792,-0.8446720838546753,-0.0002455860376358032,0.0049492716789245605,0.011557459831237793,0.9603821518472857,0.25350396625488225,-0.11575706836393898,0.0015499572213731401
1729876376393405400,0.182405517578125,0.015696929767727852,0.008705072104930878,-0.034833360463380814,-0.22324495017528534,-0.48697683215141296,-0.8444023132324219,0.009454011917114258,-0.006126284599304199,0.01980215311050415,0.9603119471160652,0.25373059243792573,-0.11584310325560189,0.0014856603687542823
1729876376403436500,0.1924365234375,-0.005390245467424393,0.015456612221896648,-0.050297271460294724,-0.22195187211036682,-0.4871530532836914,-0.8446415066719055,0.00709281861782074,-0.012618154287338257,0.016104578971862793,0.9603746574183307,0.2537657947832561,-0.11524827615288116,0.0011601831864505327
1729876376413466400,0.20246630859375,-0.007990289479494095,0.019447091966867447,-0.01501651294529438,-0.22052134573459625,-0.4870470464229584,-0.8450772762298584,-0.006514236330986023,-0.014341562986373901,0.0076596736907958984,0.960488429913367,0.25364723952143303,-0.11456200564681998,0.0008878195199282685
1729876376423497500,0.21249755859375,-0.009455227293074131,0.025382479652762413,0.006540444679558277,-0.22013424336910248,-0.4869084060192108,-0.8452580571174622,-0.00438360869884491,-0.015945076942443848,0.007321715354919434,0.9605354764392147,0.2535614753132566,-0.1143571302726318,0.0008796335730114488
1729876376433527600,0.222527587890625,-0.0045755174942314625,0.03473789989948273,-0.007051264401525259,-0.2202729731798172,-0.48685383796691895,-0.8452533483505249,0.008252069354057312,-0.019814342260360718,0.008858084678649902,0.9605341268934438,0.2535454266756132,-0.1144030415540472,0.0009799512872164285
1729876376443557400,0.232557373046875,-0.006371819879859686,0.03249248117208481,-0.013632734306156635,-0.22010959684848785,-0.48676756024360657,-0.8453455567359924,0.0065933167934417725,-0.016635209321975708,0.013009190559387207,0.9605581080481136,0.25349633412654554,-0.11431021298104202,0.0009988028747733445
1729876376453588500,0.24258837890625,-0.016253478825092316,0.027849258854985237,-0.004856553394347429,-0.2199312299489975,-0.48646095395088196,-0.8455684185028076,-0.00008529424667358398,-0.008168011903762817,0.011309444904327393,0.9606160736250267,0.2533230902016414,-0.11420677961602294,0.0010135004163957437
1729876376463618600,0.25261865234375,-0.03459460288286209,0.029361775144934654,-0.003833100665360689,-0.2197955846786499,-0.48626434803009033,-0.8457168340682983,0.004204109311103821,-0.003207176923751831,0.00825345516204834,0.9606546863812351,0.2532119974602694,-0.11412835215514759,0.0010262461504338626
1729876376473649400,0.2626494140625,-0.01893441565334797,0.024780072271823883,-0.002274352591484785,-0.21947409212589264,-0.4863904118537903,-0.845727801322937,0.0074074119329452515,-0.0017383396625518799,0.004480302333831787,0.9606576289909982,0.25327292355465864,-0.1139689225645766,0.0009947039564169253
1729876376483679500,0.272679443359375,0.02621322125196457,0.014706986024975777,0.008819310925900936,-0.21925939619541168,-0.48684167861938477,-0.8455238342285156,0.0021878331899642944,-0.00032576918601989746,-0.002147674560546875,0.9606045001551866,0.25352263091171956,-0.11386117120760329,0.0010024640989667421
1729876376493710600,0.282710693359375,0.0822615772485733,0.004098549485206604,0.04425932466983795,-0.2195005714893341,-0.48758620023727417,-0.8450320959091187,0.0005674362182617188,-0.001992136240005493,-0.008239328861236572,0.9604763590988777,0.25396458637412145,-0.11395585994642407,0.0011748839523159872
1729876376503740700,0.29274072265625,0.10128679871559143,0.02924528904259205,0.042293380945920944,-0.21972543001174927,-0.48860007524490356,-0.8443878293037415,0.00509527325630188,0.005232065916061401,-0.004168689250946045,0.9603082331240418,0.25457510719519155,-0.11400707287044669,0.0014957783489445119
1729876376513771500,0.302771484375,0.08741812407970428,0.03308822959661484,-0.03439100831747055,-0.21929281949996948,-0.489833801984787,-0.8437852263450623,0.005669727921485901,0.020168185234069824,0.0033311843872070312,0.9601511652183271,0.2552665565196681,-0.11378209093188275,0.0015607259119224113
1729876376523801600,0.312801513671875,0.040713466703891754,0.011435238644480705,-0.04804716631770134,-0.21875587105751038,-0.49086493253707886,-0.8433252573013306,-0.008508563041687012,0.014821141958236694,0.010103881359100342,0.9600317110928709,0.25581328860867725,-0.1135646135530902,0.0013771936017546664
1729876376533832400,0.32283251953125,-0.02370307222008705,-0.0027223918586969376,-0.02457939088344574,-0.21860520541667938,-0.4911516308784485,-0.8431974053382874,-0.0149153470993042,-0.0045760273933410645,0.01569807529449463,0.9599986637401606,0.2559521672082843,-0.11353313065864358,0.001214882599465314
1729876376543862500,0.332862548828125,-0.05867510661482811,-0.009506474249064922,-0.024114403873682022,-0.21851235628128052,-0.49088987708091736,-0.8433738946914673,0.009360119700431824,-0.012284010648727417,0.02229851484298706,0.9600447254165887,0.2557851755860386,-0.1135209366887859,0.0010594833811455242
1729876376553893600,0.3428935546875,-0.09187193959951401,0.0003118007443845272,-0.04088539630174637,-0.21828033030033112,-0.49031782150268555,-0.8437666893005371,0.01652856171131134,-0.011894792318344116,0.02339315414428711,0.9601472818476467,0.255434928659891,-0.11344453614210814,0.0008483523779484536
1729876376563923700,0.352923828125,-0.11761545389890671,0.010440121404826641,-0.05020778998732567,-0.21796248853206635,-0.4894236624240875,-0.8443677425384521,-0.012140095233917236,-0.007326304912567139,0.012336492538452148,0.9603039604905402,0.25489544039852324,-0.11333333273998811,0.0005759002147931846
1729876376573953500,0.36295361328125,-0.09230503439903259,0.007866974920034409,-0.029844995588064194,-0.21767979860305786,-0.4885067343711853,-0.8449714183807373,-0.023576974868774414,-0.004871010780334473,0.01133805513381958,0.9604611889384431,0.2543481559323829,-0.11323119556130362,0.0003370540890377839
1729876376583984600,0.372984619140625,-0.04335187375545502,0.006888956762850285,0.02187652513384819,-0.21753861010074615,-0.4878521263599396,-0.8453859090805054,-0.018514886498451233,-0.010805189609527588,0.006381392478942871,0.9605691602233166,0.2539713976685169,-0.11316174340321335,0.0002741480003642734
1729876376594014700,0.3830146484375,0.029241636395454407,0.021495331078767776,0.06648527085781097,-0.21762825548648834,-0.4874328672885895,-0.845604658126831,-0.009361550211906433,0.008993446826934814,0.00992661714553833,0.960626011414083,0.2537668566366061,-0.11313731890611027,0.0005180881055447721
1729876376604045600,0.393045654296875,0.048792432993650436,0.03987247124314308,0.04087578132748604,-0.21792498230934143,-0.48756924271583557,-0.8454495668411255,-0.012528553605079651,0.033147186040878296,0.0033780336380004883,0.960585257355135,0.25389355791430274,-0.1131957741408779,0.000899199381214932
1729876376614075400,0.403075439453125,0.03444598242640495,0.035010337829589844,-0.0002892320044338703,-0.21806252002716064,-0.488168329000473,-0.8450682759284973,-0.025818735361099243,0.02091360092163086,-0.00835573673248291,0.9604858262298139,0.254255132822299,-0.11322621827415986,0.0010976560647283397
1729876376624106800,0.413106689453125,-0.032335709780454636,0.0023490125313401222,-0.002236801665276289,-0.2177494764328003,-0.4886896014213562,-0.8448476791381836,-0.02332417666912079,-0.011569887399673462,-0.01507657766342163,0.9604284042007767,0.2545386383080186,-0.1130762007928178,0.001073098174752012
1729876376634135300,0.42313525390625,-0.10744564235210419,-0.02194274589419365,0.00403227936476469,-0.21760554611682892,-0.4885711073875427,-0.8449533581733704,0.002593904733657837,-0.02680984139442444,-0.009843945503234863,0.9604561410997523,0.254458025821722,-0.11302402380631102,0.0009752375911743189
1729876376644166100,0.433166259765625,-0.14365264773368835,-0.02856740914285183,-0.02902873605489731,-0.2180415242910385,-0.4877208471298218,-0.8453320860862732,0.011330679059028625,-0.025615394115447998,-0.0009965896606445312,0.9605547574138876,0.25397263693516575,-0.11327783090804368,0.0008315880552943069
1729876376654196200,0.4431962890625,-0.12252472341060638,-0.008260007947683334,-0.04325321316719055,-0.2185138463973999,-0.48680415749549866,-0.845738410949707,-0.006400734186172485,-0.013409525156021118,-0.0035199522972106934,0.9606606193932945,0.2534418092555436,-0.11356960336265996,0.000611890656282727
1729876376664227300,0.453227294921875,-0.0743374228477478,-0.0037406785413622856,-0.045728087425231934,-0.21866053342819214,-0.48626166582107544,-0.846012532711029,-0.01711830496788025,0.003473520278930664,-0.010982036590576172,0.9607321108254863,0.25310968415023544,-0.1137067710136863,0.0003497226378924854
1729876376674257200,0.463257080078125,-0.023340284824371338,-0.002039184793829918,-0.03847683221101761,-0.21870607137680054,-0.48588135838508606,-0.8462192416191101,-0.009550198912620544,0.019053906202316284,-0.011248350143432617,0.9607860037921049,0.2528715650220872,-0.11378203729725456,0.000129883019996056
1729876376684288300,0.473288330078125,0.05683830752968788,-0.008092868141829967,0.009852617047727108,-0.21898896992206573,-0.48555323481559753,-0.8463343977928162,0.0017037689685821533,0.02493607997894287,-0.0026187896728515625,0.960816013810446,0.2526926386534813,-0.11392638989417579,0.00012735958978576942
1729876376694318300,0.483318359375,0.152463898062706,0.007678104564547539,0.0217452310025692,-0.21961075067520142,-0.4859746992588043,-0.8459312915802002,-0.004235744476318359,0.03147631883621216,0.01272517442703247,0.9607110475609018,0.2529677012842114,-0.11420021764394911,0.0003635294135717591
1729876376704348400,0.493348388671875,0.2561141848564148,0.05755399912595749,0.002826133742928505,-0.21967005729675293,-0.4877464473247528,-0.844895601272583,-0.018031418323516846,0.047148823738098145,0.019944429397583008,0.9604413969032443,0.2539913490852534,-0.11419546515515888,0.0006180302546614609
1729876376714379300,0.503379150390625,0.23620839416980743,0.08266334235668182,-0.011218844912946224,-0.21892991662025452,-0.49017786979675293,-0.843679666519165,-0.034228697419166565,0.04666581749916077,0.009313881397247314,0.960124675060022,0.2553637084904109,-0.11379601077799928,0.0008090541421067246
1729876376724409300,0.513409423828125,0.1084701418876648,0.06007569283246994,-0.0783025398850441,-0.21785975992679596,-0.4920414984226227,-0.8428714871406555,-0.030751720070838928,0.023291409015655518,0.011465907096862793,0.9599142255881434,0.25638505969220204,-0.1132738200753183,0.0007673229127458201
1729876376734440400,0.5234404296875,-0.06378764659166336,0.0007750843651592731,-0.14683419466018677,-0.2170799821615219,-0.49252888560295105,-0.84278804063797,-0.009375765919685364,-0.009882092475891113,0.02435237169265747,0.9598927442091715,0.2565846594898657,-0.11300578117514498,0.000259407367844242
1729876376744470300,0.53347021484375,-0.22575224936008453,-0.05024458467960358,-0.1609089970588684,-0.21671104431152344,-0.49145522713661194,-0.8435093760490417,0.023702576756477356,-0.048889100551605225,0.013126134872436523,0.9600804672480526,0.2558772148152261,-0.11301393088923878,-0.0005742775567052903
1729876376754501400,0.54350146484375,-0.3338931202888489,-0.08030527830123901,-0.18941867351531982,-0.2165069431066513,-0.48923492431640625,-0.8448514342308044,0.053741395473480225,-0.06227883696556091,-0.007657051086425781,0.9604286116631733,0.254503877979694,-0.11314618443288986,-0.001632032227016045
1729876376764531500,0.553531494140625,-0.3445998728275299,-0.0885610282421112,-0.22882306575775146,-0.21623772382736206,-0.48657891154289246,-0.8464527726173401,0.04593434929847717,-0.04372513294219971,-0.021955430507659912,0.9608422822397927,0.2528572896839998,-0.11329965659014739,-0.0029433270653078003
1729876376774562300,0.563562255859375,-0.15497986972332,-0.020114058628678322,-0.27436017990112305,-0.21539993584156036,-0.48464149236679077,-0.8477768301963806,0.021689563989639282,-0.01575532555580139,-0.03869771957397461,0.9611814144255147,0.2515954633566132,-0.11318707148439437,-0.004345625043962677
1729876376784592400,0.57359228515625,-0.24545371532440186,-0.002870091237127781,-0.2800343334674835,-0.2145117074251175,-0.48341867327690125,-0.848699688911438,-0.002102091908454895,0.0027514994144439697,-0.057992756366729736,0.9614140250499648,0.25073368179351074,-0.11306093952514894,-0.005753180195078486
1729876376794623500,0.58362353515625,-0.41431090235710144,0.027689149603247643,-0.5152772068977356,-0.21290373802185059,-0.48119214177131653,-0.8503682613372803,-0.005968362092971802,0.018408268690109253,-0.05447787046432495,0.9618340536635176,0.24923953600396004,-0.11267442821926578,-0.007712406355601105
1729876376804653300,0.5936533203125,-0.9201554656028748,0.1337282359600067,-0.7321122884750366,-0.20979158580303192,-0.47755515575408936,-0.8531873226165771,-0.026719659566879272,-0.01116865873336792,0.0008924603462219238,0.9625351033718463,0.2467999798545675,-0.11178603259685542,-0.010948900212411202
1729876376814684400,0.603684326171875,-1.551928997039795,-0.1377757042646408,-0.7093082070350647,-0.20597076416015625,-0.4682995676994324,-0.8592272996902466,-0.02440647780895233,-0.0931476354598999,0.020726382732391357,0.964042671926827,0.24112204476398844,-0.11066394359710656,-0.015342370729526867
1729876376824714200,0.61371435546875,-1.668197512626648,-0.33152636885643005,-0.25143304467201233,-0.20569220185279846,-0.454923152923584,-0.8664500713348389,0.00003421306610107422,-0.23308047652244568,0.10103869438171387,0.9658509179835555,0.23333082957715734,-0.11104819275263,-0.018899753971213754
1729876376834744300,0.623744384765625,-1.472116470336914,-0.37665656208992004,0.04703434184193611,-0.20867812633514404,-0.4414183497428894,-0.8726988434791565,0.09435924887657166,-0.20737019181251526,0.05119621753692627,0.967433486904363,0.22574688310331312,-0.1126450645117936,-0.020543108915564923
1729876376844775200,0.633775146484375,-1.2327187061309814,-0.21399186551570892,0.03967655822634697,-0.21152840554714203,-0.42936718463897705,-0.8780088424682617,0.07285648584365845,-0.04261776804924011,-0.054867684841156006,0.9687846886552799,0.21907459670250978,-0.11402582550530696,-0.021464233626157448
1729876376854805200,0.64380517578125,-1.0717601776123047,-0.17072135210037231,-0.1116194874048233,-0.21288228034973145,-0.4191926121711731,-0.8825863599777222,-0.040657803416252136,0.06132820248603821,-0.06577783823013306,0.9699423473587753,0.21343439829483635,-0.11468469512861729,-0.022472501571062186
1729876376864836000,0.653836181640625,-0.8555951118469238,-0.11940932273864746,-0.16561107337474823,-0.21352677047252655,-0.41096624732017517,-0.8862917423248291,0.046687111258506775,-0.019346952438354492,-0.04656952619552612,0.9708627484142806,0.20881539776532862,-0.1151097054629152,-0.023907925451316727
1729876376874866200,0.6638662109375,-0.6158013939857483,-0.24406258761882782,-0.1358121633529663,-0.2144981175661087,-0.4047272205352783,-0.8889243602752686,0.03572610020637512,-0.024075359106063843,-0.022025346755981445,0.9715064974387172,0.2052911708644242,-0.11572971277560244,-0.025247607846820203
1729876376884897300,0.673897216796875,-0.3991778492927551,-0.26302051544189453,-0.11758150160312653,-0.21632008254528046,-0.40048882365226746,-0.8904012441635132,0.04883958399295807,-0.019631505012512207,-0.035395264625549316,0.9718557219882875,0.2028698638818321,-0.1168041184855386,-0.026404665541412572
1729876376894927400,0.68392724609375,-0.19063420593738556,-0.17830055952072144,-0.1510441154241562,-0.2177860587835312,-0.39816606044769287,-0.8910853266716003,0.0465518981218338,-0.033672988414764404,0.019152402877807617,0.9720027313085389,0.20149263727245365,-0.11772022506863444,-0.027451863838370703
1729876376904958200,0.693958251953125,-0.029480334371328354,-0.08524453639984131,-0.1919870227575302,-0.2182425558567047,-0.39760488271713257,-0.891224205493927,-0.00606168806552887,-0.031609684228897095,0.0034526586532592773,0.9720086841855684,0.20106494665183802,-0.11815576669545663,-0.028484100862607015
1729876376914988300,0.70398828125,0.023032408207654953,-0.05028548836708069,-0.17675374448299408,-0.21804876625537872,-0.39807119965553284,-0.8910634517669678,-0.03835996985435486,-0.040435969829559326,-0.012134730815887451,0.9719380292356656,0.20119636476465508,-0.11827211614460008,-0.029467639546605088
1729876376925019400,0.714019287109375,-0.052892450243234634,-0.07117697596549988,-0.12755663692951202,-0.21796809136867523,-0.3983253538608551,-0.8909696340560913,-0.02170175313949585,-0.04254692792892456,-0.013159394264221191,0.9718890179766964,0.20123474149741652,-0.11840511829151706,-0.030276022320046846
1729876376935049200,0.72404931640625,-0.18936455249786377,-0.07769906520843506,-0.11224532872438431,-0.21818482875823975,-0.39754363894462585,-0.8912656903266907,0.01994261145591736,-0.05382668972015381,0.007781803607940674,0.9719427281653,0.20072689842169117,-0.11864179851996046,-0.030990455355741926
1729876376945080300,0.734080322265625,-0.34719112515449524,-0.09330208599567413,-0.1529325693845749,-0.21836648881435394,-0.3954145610332489,-0.8921678066253662,0.031949833035469055,-0.08162102103233337,0.056855976581573486,0.9721458349004357,0.19947405760543094,-0.11885364469036434,-0.031882984108881275
1729876376955110400,0.7441103515625,-0.4260997772216797,-0.13974788784980774,-0.16457056999206543,-0.21878241002559662,-0.39226701855659485,-0.8934544324874878,0.016908571124076843,-0.09900504350662231,0.08730214834213257,0.9724386213196186,0.19764457682700587,-0.11920315284568361,-0.03302163741944318
1729876376965140200,0.75414013671875,-0.39670515060424805,-0.16400422155857086,-0.14044499397277832,-0.21953795850276947,-0.38885077834129333,-0.8947615027427673,0.009287074208259583,-0.10115480422973633,0.08545064926147461,0.9727347418076628,0.19566867304811394,-0.11972052729304808,-0.03417685022249028
1729876376975171300,0.76417138671875,-0.303876668214798,-0.08731131255626678,-0.12788420915603638,-0.22020280361175537,-0.38600969314575195,-0.8958277106285095,0.008059799671173096,-0.09880787134170532,0.11306709051132202,0.972973762290092,0.19402376631308874,-0.120170420310919,-0.03515686743028935
1729876376985201400,0.774201416015625,-0.2340565025806427,-0.01584426686167717,-0.11453244835138321,-0.22016365826129913,-0.38388460874557495,-0.8967500329017639,-0.017080038785934448,-0.09228119254112244,0.09697592258453369,0.9731815107183025,0.1927890931024832,-0.12023873636738026,-0.03595788323317072
1729876376995232300,0.784232177734375,-0.21561358869075775,0.0018210140988230705,-0.12068488448858261,-0.21976810693740845,-0.38215169310569763,-0.8975868225097656,-0.054981693625450134,-0.08916187286376953,0.0840187668800354,0.9733706924617399,0.19178085720776097,-0.12011114671994079,-0.036649225287242924
1729876377005262300,0.794262451171875,-0.2695291340351105,-0.023060474544763565,-0.1625223457813263,-0.21931582689285278,-0.38032519817352295,-0.898472785949707,-0.0670764148235321,-0.09722918272018433,0.0733233094215393,0.9735663053401302,0.19070614323450688,-0.11997822307336357,-0.037486180105901955
1729876377015293400,0.80429345703125,-0.3596465289592743,-0.04335509240627289,-0.20172354578971863,-0.21896101534366608,-0.3779117166996002,-0.8995770215988159,-0.062426358461380005,-0.08708471059799194,0.0662183165550232,0.9738064167149825,0.18928514515327555,-0.11992755510953276,-0.0385963583076407
1729876377025323300,0.8143232421875,-0.46124663949012756,-0.03804522752761841,-0.23621226847171783,-0.2184641808271408,-0.3747086226940155,-0.9010365605354309,-0.04383444786071777,-0.06878814101219177,0.06207782030105591,0.974126138497915,0.1874157315848337,-0.11982099433028218,-0.03995752760135403
1729876377035354400,0.824354248046875,-0.5848264098167419,-0.02920513041317463,-0.2302449345588684,-0.217879056930542,-0.3704869747161865,-0.9029220342636108,-0.02807740867137909,-0.04198870062828064,0.06611478328704834,0.9745468700391244,0.1849902622629539,-0.11965617567181039,-0.04146716099938533
1729876377045384400,0.834384521484375,-0.7101088762283325,-0.03028365969657898,-0.15404710173606873,-0.21742457151412964,-0.36503341794013977,-0.9052497744560242,-0.020154818892478943,-0.012987911701202393,0.055335283279418945,0.9750840312765869,0.1819295320536313,-0.1194853279204621,-0.04285146415056266
1729876377055415300,0.844415283203125,-0.8003154397010803,-0.026776805520057678,-0.040497105568647385,-0.21729227900505066,-0.35833868384361267,-0.9079523682594299,-0.01670128107070923,-0.0052630603313446045,0.03911691904067993,0.9757338434408613,0.17826571225598511,-0.11935309863427862,-0.043815016798324516
1729876377065445000,0.854445068359375,-0.8410712480545044,-0.044552288949489594,0.02277693897485733,-0.21757903695106506,-0.3508407771587372,-0.9108073711395264,-0.024486422538757324,-0.03300938010215759,0.030237972736358643,0.9764406818125928,0.1742323827447416,-0.11932886900755757,-0.04435480781400955
1729876377075476500,0.8644765625,-0.9079168438911438,-0.03376302495598793,-0.05893177539110184,-0.2179194986820221,-0.3429175615310669,-0.9137388467788696,-0.04352463781833649,-0.07953733205795288,-0.001544356346130371,0.977163134151856,0.169975032032113,-0.11932757863296056,-0.04496404178101976
1729876377085506300,0.87450634765625,-1.020569086074829,-0.048312410712242126,-0.2074304223060608,-0.21780331432819366,-0.3343367874622345,-0.9169409275054932,-0.07482977211475372,-0.10340744256973267,-0.021550893783569336,0.9779229212079091,0.16530815517720449,-0.11917528676965818,-0.046232369079166495
1729876377095537200,0.884537109375,-1.0889370441436768,-0.08935251832008362,-0.3037082254886627,-0.21756894886493683,-0.32520297169685364,-0.9202753901481628,-0.09955450892448425,-0.08449554443359375,0.03239703178405762,0.9786804732911654,0.16028147924978342,-0.11904682528906455,-0.04819228505562808
1729876377105567200,0.894567138671875,-1.1362569332122803,-0.14168985188007355,-0.30060669779777527,-0.21764522790908813,-0.3155617117881775,-0.9236078262329102,-0.08347177505493164,-0.050344109535217285,0.035729408264160156,0.9794162776203043,0.15495905763219195,-0.11909570582590764,-0.05047564580982348
1729876377115597300,0.904597412109375,-1.096444010734558,-0.14899064600467682,-0.2151932716369629,-0.218205526471138,-0.30572283267974854,-0.9267793297767639,-0.06116767227649689,0.0010352730751037598,0.04395163059234619,0.980116220795183,0.1495636136719564,-0.11933591291213445,-0.05255489461830365
1729876377125628200,0.914628173828125,-1.021262764930725,-0.08025510609149933,-0.1273909956216812,-0.2187725454568863,-0.29625335335731506,-0.9297163486480713,-0.04280892014503479,0.05649194121360779,0.028608620166778564,0.9807805682361332,0.14443675342255838,-0.11949826506054287,-0.05410880587398131
1729876377135658200,0.924658203125,-0.9835603833198547,0.04555954784154892,-0.10276367515325546,-0.2186180055141449,-0.28715887665748596,-0.9326017498970032,-0.049372151494026184,0.08559021353721619,-0.0010988116264343262,0.9814500611764276,0.13957608149298678,-0.11923781485243747,-0.055288544418891125
1729876377145689300,0.934689453125,-0.9583178758621216,0.14953026175498962,-0.05624490976333618,-0.2174115628004074,-0.278255820274353,-0.9355778694152832,-0.07754085958003998,0.10749465227127075,-0.012008190155029297,0.9821552348245693,0.13487882439793078,-0.11840090503927664,-0.0562155519865763
1729876377155719200,0.94471923828125,-0.9122113585472107,0.15424299240112305,0.0014279736205935478,-0.21582481265068054,-0.2694816589355469,-0.9385091066360474,-0.06641703844070435,0.1239585280418396,-0.013181567192077637,0.9828677386851463,0.1303099360660524,-0.1173233994320732,-0.05679517564103946
1729876377165750300,0.954750244140625,-0.826802670955658,0.073954276740551,0.0026671430096030235,-0.21473471820354462,-0.26124879717826843,-0.9410834908485413,-0.014818549156188965,0.12419429421424866,0.01287609338760376,0.9834988739126131,0.12604043409251167,-0.11649925338471437,-0.05720007812387775
1729876377175780400,0.9647802734375,-0.6960608959197998,-0.019917091354727745,-0.06221012398600578,-0.2144349068403244,-0.2541031241416931,-0.9431061744689941,0.013415589928627014,0.11698761582374573,0.028326570987701416,0.9839799513822058,0.12230209382088202,-0.11614260626243932,-0.057763063718962365
1729876377185811200,0.974811279296875,-0.5471420288085938,-0.0012100893072783947,-0.10310056805610657,-0.21436840295791626,-0.24839696288108826,-0.9446402192115784,0.003522425889968872,0.12264923751354218,0.018843770027160645,0.9843221542808881,0.11927544036825183,-0.11598818862185037,-0.05856648516277462
1729876377195841300,0.98484130859375,-0.4059513509273529,0.05860131233930588,-0.07861147075891495,-0.21389658749103546,-0.24410197138786316,-0.9458659887313843,-0.01451227068901062,0.13449802994728088,0.0034069418907165527,0.9845904995901187,0.11699654476491629,-0.11566679221945388,-0.05928494484860088
1729876377205872400,0.994872314453125,-0.31312882900238037,0.15200279653072357,-0.008346093818545341,-0.21275833249092102,-0.2408125102519989,-0.9469652771949768,-0.024531126022338867,0.12281623482704163,-0.00020879507064819336,0.9848469418159077,0.1152923798755617,-0.11500011475449855,-0.05966001820966976
1729876377215902200,1.004902099609375,-0.2869739234447479,0.18100622296333313,0.05774877220392227,-0.21124613285064697,-0.23796804249286652,-0.9480223059654236,-0.02526514232158661,0.10787156224250793,-0.015509188175201416,0.9851194966061008,0.11387901847628708,-0.11410702962711931,-0.05958951748385098
1729876377225933300,1.014933349609375,-0.273876428604126,0.028504343703389168,0.08253826946020126,-0.210109144449234,-0.23507119715213776,-0.9489971995353699,-0.002293229103088379,0.07821080088615417,-0.02056145668029785,0.9853816344849549,0.11245062691976103,-0.11338541880724667,-0.059344605362138945
1729876377235963400,1.02496337890625,-0.21286608278751373,-0.5090968012809753,0.024231556802988052,-0.21250319480895996,-0.2326686680316925,-0.9490562081336975,0.011132940649986267,0.008745893836021423,0.016805291175842285,0.985402082491442,0.11117214247606255,-0.11451047515222901,-0.05925283589495738
1729876377245993500,1.034993408203125,-0.11876314133405685,-0.8357412219047546,-0.27188050746917725,-0.21879561245441437,-0.2311665117740631,-0.9479929208755493,0.06614665687084198,-0.045856863260269165,-0.11081445217132568,0.9850668411751162,0.11012065234558147,-0.11780065593342012,-0.0603312037821936
1729876377256024300,1.0450244140625,0.2182188779115677,-0.8025438785552979,-0.4290054142475128,-0.22594241797924042,-0.23235706984996796,-0.9460233449935913,0.08760620653629303,0.09165571630001068,-0.2632814049720764,0.9844254267206713,0.11027364509600947,-0.12177042808598074,-0.06259610206873881
1729876377266054400,1.055054443359375,0.3854375183582306,-0.5233849883079529,-0.3770117461681366,-0.23133111000061035,-0.2364170253276825,-0.9437122941017151,0.09062977135181427,0.24566379189491272,-0.32108867168426514,0.9836946024120826,0.11193432750213815,-0.12495820441746348,-0.06481619908662302
1729876377276085500,1.06508544921875,0.1232098788022995,-0.29102981090545654,-0.2579343318939209,-0.23430860042572021,-0.23980087041854858,-0.9421226382255554,0.07580025494098663,0.2244199514389038,-0.3312080502510071,0.9831829692974856,0.1133828526596582,-0.1268188304106887,-0.06642817045023704
1729876377286115300,1.075115234375,-0.5197019577026367,-0.24761006236076355,-0.1269180178642273,-0.23626437783241272,-0.23862095177173615,-0.9419337511062622,-0.018847361207008362,0.06953825056552887,-0.2144688367843628,0.9830511808796933,0.11256408085937941,-0.12791579913991594,-0.0676556150956261
1729876377296146400,1.085146484375,-1.4132471084594727,-0.2942337691783905,0.06007557362318039,-0.23869216442108154,-0.22968299686908722,-0.9435421228408813,-0.09439200162887573,-0.15869900584220886,-0.04913359880447388,0.9833948424059921,0.10779040355848284,-0.12888039793096775,-0.06859827045035094
1729876377306176300,1.09517626953125,-2.0684711933135986,-0.4577612280845642,0.23450544476509094,-0.2423713654279709,-0.2124035805463791,-0.9466471672058105,-0.074385866522789,-0.3457324504852295,0.07915449142456055,0.9841414974712195,0.0987657443647113,-0.13008360887917997,-0.06920411794849479
1729876377316207000,1.10520703125,-2.012641191482544,-0.6556831002235413,0.20214137434959412,-0.24828927218914032,-0.19204764068126678,-0.9494578242301941,0.018491849303245544,-0.3377223014831543,0.1679026484489441,0.984822651307313,0.08814532373656683,-0.13229321056923496,-0.06966577813153614
1729876377326237200,1.1152373046875,-1.432137370109558,-0.7571576237678528,0.002381119877099991,-0.2552235424518585,-0.17516422271728516,-0.9508829712867737,0.11487317085266113,-0.16271117329597473,0.17549240589141846,0.9851148669318573,0.0792089803259923,-0.13521999997072587,-0.07064169301550215
1729876377336268300,1.125268310546875,-0.7456455826759338,-0.59560626745224,-0.12003561109304428,-0.2617025375366211,-0.16500237584114075,-0.9509395360946655,0.1080312430858612,0.10961292684078217,0.10784566402435303,0.9850306593438776,0.0736512705772187,-0.13822346188596274,-0.07200246077176015
1729876377346298000,1.135298095703125,-0.07973012328147888,-0.299950510263443,0.028092607855796814,-0.26583170890808105,-0.1612122654914856,-0.9504441618919373,0.04282444715499878,0.3110687732696533,-0.03126049041748047,0.984848679559509,0.07148391402737761,-0.14024251457621803,-0.07276889613132835
1729876377356329200,1.1453291015625,0.342537522315979,-0.09973938018083572,0.27004027366638184,-0.2679118514060974,-0.16232405602931976,-0.9496705532073975,-0.055055707693099976,0.3517923951148987,-0.10620713233947754,0.9847115653717938,0.07209566427166361,-0.14130442803457907,-0.07196233288468531
1729876377366359300,1.155359375,0.47430410981178284,0.07562844455242157,0.28439363837242126,-0.26854586601257324,-0.1656309813261032,-0.9489201903343201,-0.10381439328193665,0.29063093662261963,-0.17817026376724243,0.9846478566326752,0.07400755674298468,-0.14164318177511837,-0.07020533752335753
1729876377376389400,1.165389404296875,0.31470486521720886,0.21224141120910645,0.13096413016319275,-0.2674933969974518,-0.16898202896118164,-0.9486265778541565,-0.1326073706150055,0.20458073914051056,-0.2207459807395935,0.984673741460434,0.07594747617471936,-0.1411336038775633,-0.06878253984364774
1729876377386420200,1.175420166015625,0.06879357248544693,0.24342644214630127,-0.01534221787005663,-0.26525163650512695,-0.17061103880405426,-0.9489644169807434,-0.13144639134407043,0.08847293257713318,-0.2025553584098816,0.9847928361393661,0.07691201827587847,-0.14000834272222432,-0.06830389867457641
1729876377396450300,1.1854501953125,-0.20823563635349274,0.01881970465183258,-0.09531774371862411,-0.26371657848358154,-0.17008288204669952,-0.9494869112968445,-0.037308841943740845,-0.009253710508346558,-0.05266457796096802,0.9849073841641648,0.07665309457318989,-0.1392151089753505,-0.06856471736978674
1729876377406481200,1.195481201171875,-0.4002024829387665,-0.2667134702205658,-0.2493584305047989,-0.2646629810333252,-0.16748732328414917,-0.9496849775314331,0.08497545123100281,-0.0794762372970581,0.1321648359298706,0.9848795262730672,0.07514736577521358,-0.13967960639648,-0.06967771779444334
1729876377416511200,1.20551123046875,-0.38026127219200134,-0.3158506453037262,-0.3282527029514313,-0.2670805752277374,-0.1644730269908905,-0.9495349526405334,0.12582993507385254,-0.06912381947040558,0.17168766260147095,0.9847063040493784,0.073271271141368,-0.14093918237232636,-0.07156158410785626
1729876377426542300,1.215542236328125,-0.24490982294082642,-0.1450922191143036,-0.2842461168766022,-0.2688886225223541,-0.16229312121868134,-0.9493997097015381,0.05261048674583435,-0.025069594383239746,0.09324437379837036,0.9845371021744874,0.07184205769445098,-0.14191141478112365,-0.07339362350416302
1729876377436572400,1.225572509765625,-0.03120340034365654,0.14302904903888702,-0.3142277002334595,-0.26837292313575745,-0.16174694895744324,-0.949638843536377,-0.01855340600013733,0.022556230425834656,-0.024283885955810547,0.9844794270784222,0.0713558023199503,-0.1417354384704682,-0.07496472184554831
1729876377446603300,1.235603271484375,0.2560446858406067,0.2792738378047943,-0.30368906259536743,-0.26572853326797485,-0.16362904012203217,-0.9500599503517151,-0.07284879684448242,0.10521833598613739,-0.08312791585922241,0.9844807550020388,0.07220493580286473,-0.14055773059579255,-0.07633978891422782
1729876377456633300,1.24563330078125,0.5272223949432373,0.3140592575073242,-0.3441230356693268,-0.262278288602829,-0.16824297606945038,-0.950212836265564,-0.06071978807449341,0.1796870231628418,0.017092108726501465,0.9844271338319597,0.07449964874710006,-0.13908050373555927,-0.07752353084253856
1729876377466664200,1.255664306640625,0.864290177822113,0.2481158971786499,-0.3967231214046478,-0.2590258717536926,-0.17587192356586456,-0.949723482131958,0.013420343399047852,0.20809844136238098,0.08937191963195801,0.9842040921419459,0.07831436234460155,-0.13785907609569056,-0.07876626622085818
1729876377476694300,1.2656943359375,1.1684831380844116,0.23856580257415771,-0.43781062960624695,-0.25594571232795715,-0.1865205317735672,-0.9485262036323547,0.04795309901237488,0.20689095556735992,0.16988545656204224,0.9837966280203327,0.08365843247221398,-0.13688746591785153,-0.08004664177258085
1729876377486725400,1.275725341796875,1.519325852394104,0.27933454513549805,-0.44032973051071167,-0.25259554386138916,-0.2004796415567398,-0.9465745687484741,0.06663665175437927,0.18964585661888123,0.21279466152191162,0.9832063716544082,0.09072510377948234,-0.135947303801589,-0.08119557159058532
1729876377496755500,1.28575537109375,1.8479602336883545,0.29599902033805847,-0.33720067143440247,-0.24900178611278534,-0.21735256910324097,-0.9437987208366394,0.05561184883117676,0.16928733885288239,0.1956602931022644,0.9824455714830433,0.0993699933799645,-0.13500465815999904,-0.08185403084321381
1729876377506785300,1.295785400390625,1.9996085166931152,0.234358012676239,-0.13243287801742554,-0.2459041327238083,-0.2364540994167328,-0.9400109648704529,0.0550624281167984,0.129154235124588,0.18920230865478516,0.9815036842439823,0.10928720391389402,-0.13435333512618,-0.08158528258976652
1729876377516816400,1.30581640625,1.7602570056915283,0.15607678890228271,-0.008289367891848087,-0.24393174052238464,-0.25437286496162415,-0.93583744764328,0.06827253103256226,0.01401636004447937,0.1677863597869873,0.9805324089078804,0.11870420088676024,-0.13412895016096024,-0.08046818035698386
1729876377526846200,1.31584619140625,1.4548360109329224,0.0019878880120813847,-0.08856343477964401,-0.24300187826156616,-0.2695024311542511,-0.9318361282348633,0.06651867926120758,-0.16352680325508118,0.16970539093017578,0.9795907246822472,0.12665838264751048,-0.13431155751847434,-0.07950056611013327
1729876377536877300,1.325877197265625,1.024328351020813,-0.0947818011045456,-0.23625275492668152,-0.24304883182048798,-0.28168293833732605,-0.928214430809021,0.027136921882629395,-0.3591099679470062,0.154410719871521,0.9786653406553616,0.13294628921708754,-0.13497434874376463,-0.07950803563756667
1729876377546907100,1.3359072265625,0.3711544871330261,0.0009844088926911354,-0.23159541189670563,-0.24282871186733246,-0.2888006567955017,-0.9260823130607605,0.03900176286697388,-0.47984564304351807,0.026500403881072998,0.9780590704120075,0.13653330609933992,-0.13534218093443112,-0.08026094260638744
1729876377556938200,1.345938232421875,-0.061393193900585175,-0.16927574574947357,-0.2903119921684265,-0.24256815016269684,-0.2906816303730011,-0.9255619645118713,0.10969457030296326,-0.4486067593097687,0.009103834629058838,0.9778310779507432,0.13735730118348866,-0.1354695513606049,-0.08141001861749925
1729876377566968300,1.35596826171875,-0.4933145046234131,-0.4754258096218109,-0.6227775812149048,-0.24445892870426178,-0.2893816828727722,-0.925471842288971,0.1644570380449295,-0.40001046657562256,0.14440494775772095,0.9775855628608836,0.13625309713971814,-0.13674496897795416,-0.08403804665573426
1729876377576999200,1.365999267578125,-0.9559231996536255,-0.41710764169692993,-0.7374825477600098,-0.24668993055820465,-0.28426069021224976,-0.9264663457870483,0.12149152159690857,-0.23383629322052002,0.18011325597763062,0.9774613583823132,0.132918652761794,-0.13820073849995773,-0.08833160075702336
1729876377587029200,1.376029296875,-1.2970175743103027,-0.2910018861293793,-0.4310086667537689,-0.2482425719499588,-0.2753707468509674,-0.9287338852882385,0.03788486123085022,0.020350545644760132,0.21337133646011353,0.9776729839882603,0.1277031465767627,-0.1390143025413067,-0.09231754254755253
1729876377597060000,1.38606005859375,-1.5825176239013672,-0.27974510192871094,0.05131777003407478,-0.2503327429294586,-0.26223447918891907,-0.9319692254066467,-0.006320148706436157,0.1411406695842743,0.29360252618789673,0.9782977205453103,0.12055210770069692,-0.1395800406139254,-0.09443603826694777
1729876377607090200,1.396090087890625,-1.4426556825637817,-0.2451607584953308,0.295806884765625,-0.2533735930919647,-0.24735380709171295,-0.935210108757019,-0.036436617374420166,0.10349388420581818,0.28822219371795654,0.9791000908816674,0.11274709679453888,-0.14029625154998376,-0.09470113585629193
1729876377617121300,1.406121337890625,-1.284761667251587,-0.11343548446893692,0.20014053583145142,-0.2556617856025696,-0.23396791517734528,-0.9380277395248413,-0.1211540699005127,-0.045924112200737,0.14158004522323608,0.9798416008116095,0.10582890102632357,-0.1406640142145886,-0.09446906269517874
1729876377627151400,1.4161513671875,-1.1714739799499512,-0.10199187695980072,0.03054271638393402,-0.25686365365982056,-0.22207655012607574,-0.9405865669250488,-0.21588417887687683,-0.17665092647075653,-0.05900144577026367,0.9804615752857283,0.09965282943043242,-0.14062728778122838,-0.09480736277461502
1729876377637181000,1.426180908203125,-1.1552386283874512,-0.17669382691383362,-0.1041884645819664,-0.25810837745666504,-0.21129637956619263,-0.9427268505096436,-0.18598344922065735,-0.20001959800720215,-0.16625142097473145,0.9809000434218151,0.09394303511744803,-0.14075255651420332,-0.0959091671194106
1729876377647211800,1.436211669921875,-1.1947753429412842,-0.20269905030727386,-0.11192681640386581,-0.25972121953964233,-0.20043952763080597,-0.944652795791626,-0.07940542697906494,-0.1402435153722763,-0.19305777549743652,0.9812436022280072,0.0881299747181872,-0.14109115152875126,-0.09740360506482128
1729876377657241900,1.446241943359375,-1.167505145072937,-0.13445661962032318,0.012850272469222546,-0.2612534761428833,-0.18933476507663727,-0.9465193748474121,0.009590208530426025,-0.035549312829971313,-0.11292880773544312,0.981600169088429,0.08224574729337027,-0.14133625707621994,-0.09859427019375336
1729876377667272700,1.456272705078125,-1.144895076751709,-0.054064035415649414,0.2120153158903122,-0.2623048722743988,-0.1781463325023651,-0.9483986496925354,0.055166780948638916,0.04580681025981903,0.006778836250305176,0.9820470467061323,0.07647485670958684,-0.14125245764340852,-0.0989098713320308
1729876377677302800,1.466302734375,-1.2563979625701904,-0.04496454447507858,0.42766159772872925,-0.2632526457309723,-0.16592328250408173,-0.9503512382507324,0.0781787633895874,0.05758582055568695,0.1072421669960022,0.982616194927433,0.07034126379209447,-0.1409839461088954,-0.09818971799289909
1729876377687334000,1.476333984375,-1.4593318700790405,-0.18673314154148102,0.517648458480835,-0.26506802439689636,-0.15175943076610565,-0.9522121548652649,0.09859460592269897,-0.0036361217498779297,0.17303740978240967,0.9832294281654105,0.06329294939011977,-0.14102451317592168,-0.0967790779489485
1729876377697364000,1.486364013671875,-1.830750584602356,-0.3422793745994568,0.33351564407348633,-0.26824504137039185,-0.13495005667209625,-0.9538516998291016,0.10712748765945435,-0.13554252684116364,0.14095503091812134,0.9837371033341985,0.05478608661597669,-0.14167789978140416,-0.09585064975430879
1729876377707394800,1.496394775390625,-2.2509500980377197,-0.5717082619667053,0.04664871469140053,-0.2727563977241516,-0.11478590965270996,-0.9552110433578491,0.08228090405464172,-0.2626250386238098,0.03251206874847412,0.9840209202484326,0.04431035023301904,-0.14293728596047697,-0.09648037474904628
1729876377717425000,1.5064248046875,-2.269064426422119,-0.8900787830352783,-0.19547416269779205,-0.2797163128852844,-0.09307970851659775,-0.955560028553009,0.06023383140563965,-0.27776995301246643,-0.08766812086105347,0.9838941500073723,0.03271992179217481,-0.14542831113309304,-0.09865282603704123
1729876377727455700,1.516455810546875,-1.8899104595184326,-1.0446151494979858,-0.3360688388347626,-0.2888769507408142,-0.07378723472356796,-0.9545184969902039,0.09541070461273193,-0.14989139139652252,-0.25852471590042114,0.9833188704367538,0.022090801228687187,-0.1491735539523772,-0.10170244503694281
1729876377737485800,1.52648583984375,-1.3252452611923218,-1.035554051399231,-0.24532854557037354,-0.2987062633037567,-0.0592811219394207,-0.9525021314620972,0.10214251279830933,0.06332466751337051,-0.33523279428482056,0.982509917316643,0.013839662686698917,-0.15348416899891976,-0.10452514552713964
1729876377747517000,1.536516845703125,-0.7580389976501465,-0.9306845664978027,-0.02777465060353279,-0.30804482102394104,-0.04982101544737816,-0.9500664472579956,0.08982884883880615,0.24127301573753357,-0.2946234941482544,0.9817251215071813,0.008327140073298859,-0.15778919507383926,-0.10606268650723846
1729876377757547000,1.546547119140625,-0.5005888342857361,-0.7609311938285828,0.1445973962545395,-0.3160964548587799,-0.04386413097381592,-0.9477124810218811,0.05651387572288513,0.30353817343711853,-0.18717515468597412,0.9811041536168494,0.004850263962352354,-0.16161752293584739,-0.10625983844903389
1729876377767577900,1.556577880859375,-0.47531431913375854,-0.6612101793289185,0.20596620440483093,-0.32309940457344055,-0.03883584216237068,-0.9455678462982178,-0.034200459718704224,0.2514975666999817,-0.04076027870178223,0.9806144698207355,0.002015267172476096,-0.16496063426446403,-0.10573262040892925
1729876377777607700,1.566607666015625,-0.7798529267311096,-0.4804028272628784,0.056624919176101685,-0.32854944467544556,-0.0325053445994854,-0.9439272880554199,-0.09006023406982422,0.10982159525156021,0.04213285446166992,0.980214876448279,-0.0014500827275565672,-0.16743435868003873,-0.10555817240696934
1729876377787637800,1.5766376953125,-1.033551573753357,-0.3804628551006317,-0.15109045803546906,-0.3324805796146393,-0.02398039773106575,-0.9428051710128784,-0.11280140280723572,-0.018072856590151787,0.0700330138206482,0.9798203816051232,-0.006141750361195305,-0.16899611532281267,-0.10655872766236098
1729876377797668600,1.586668701171875,-1.1384445428848267,-0.442378968000412,-0.2548104524612427,-0.3362776041030884,-0.014347828924655914,-0.9416536092758179,-0.11521473526954651,-0.05353855341672897,0.05372941493988037,0.9793121461380696,-0.011556501682785528,-0.17041022376873702,-0.10851072514965517
1729876377807698700,1.59669873046875,-0.9939450621604919,-0.4573114514350891,-0.273094117641449,-0.3405699133872986,-0.0050181918777525425,-0.9402058124542236,-0.0657258927822113,-0.0002308613620698452,0.07947283983230591,0.9786937438825711,-0.01690580725011153,-0.17207929989103427,-0.11073210896409091
1729876377817729800,1.606729736328125,-0.6369288563728333,-0.391453355550766,-0.17271718382835388,-0.34455934166908264,0.0018160099862143397,-0.9387627840042114,-0.040160566568374634,0.0979917049407959,0.060756802558898926,0.978119189188087,-0.020916223192222673,-0.17372713098748,-0.1125359877910806
1729876377827759600,1.616759521484375,-0.33042585849761963,-0.3630940616130829,-0.1079842746257782,-0.34814175963401794,0.005900623742491007,-0.9374233484268188,-0.06079381704330444,0.15408775210380554,0.025725960731506348,0.9776581563948851,-0.023383837526497267,-0.175332629783123,-0.11356179123521883
1729876377837790700,1.626790771484375,-0.07132824510335922,-0.2822399437427521,-0.14031264185905457,-0.3511515259742737,0.007263148203492165,-0.9362905025482178,-0.057524681091308594,0.1502533107995987,-0.015796899795532227,0.9772828122671553,-0.024393722452018495,-0.1768041518599348,-0.11429591144866949
1729876377847820800,1.63682080078125,0.007840072736144066,-0.2922106683254242,-0.1109800636768341,-0.35380104184150696,0.007018055766820908,-0.9352943897247314,-0.07017973065376282,0.1046152114868164,-0.06971049308776855,0.976952638678089,-0.02455517570111612,-0.17818488661200663,-0.11493800727068222
1729876377857851600,1.6468515625,-0.08319795876741409,-0.32384049892425537,-0.06352678686380386,-0.3567310571670532,0.006935509853065014,-0.9341813921928406,-0.03757137060165405,0.018195688724517822,-0.02059149742126465,0.9766213461781597,-0.024773414959054087,-0.17970969879646237,-0.11533317981382264
1729876377867881700,1.6568818359375,-0.22771845757961273,-0.2747599184513092,-0.087378591299057,-0.3595614731311798,0.008217012509703636,-0.9330852031707764,0.01535370945930481,-0.05721301585435867,0.03657037019729614,0.9762883826263398,-0.025684357199775677,-0.18110136539711627,-0.11577402099886877
1729876377877912800,1.666912841796875,-0.25721216201782227,-0.1560673713684082,-0.13755573332309723,-0.36161166429519653,0.010097414255142212,-0.9322741031646729,0.013268709182739258,-0.0755271315574646,0.011680901050567627,0.9759899886662653,-0.02690913002365115,-0.18204074576711243,-0.11653618611732207
1729876377887943000,1.67694287109375,-0.16087564826011658,-0.08168895542621613,-0.10602178424596786,-0.3626149892807007,0.011723137460649014,-0.9318653345108032,-0.03637188673019409,-0.05476820841431618,0.019237160682678223,0.9757892732823373,-0.027945863263569962,-0.18244553599733954,-0.11733751099968821
1729876377897973800,1.686973876953125,-0.008720993995666504,-0.06926503777503967,-0.06115924194455147,-0.36336296796798706,0.012156428769230843,-0.9315683841705322,-0.052301764488220215,-0.02649972215294838,0.03702187538146973,0.9756584781381286,-0.02829913082392691,-0.1827976519300734,-0.11779184435404794
1729876377908003800,1.69700390625,0.030215421691536903,0.047224074602127075,-0.05273406580090523,-0.36352425813674927,0.011828434653580189,-0.9315096735954285,-0.028001070022583008,-0.0064421119168400764,-0.006402313709259033,0.9756100604924104,-0.028195864076147253,-0.18289387018667097,-0.11806820756829457
1729876377918034000,1.707033935546875,0.16312260925769806,0.10047318786382675,0.0026226677000522614,-0.36273667216300964,0.010884289629757404,-0.9318281412124634,-0.008174031972885132,0.027583090588450432,-0.03359544277191162,0.9756831960865088,-0.02767978438099818,-0.18253701580183315,-0.11813798855780679
1729876377928064800,1.717064697265625,0.3134627044200897,0.019569970667362213,0.040908005088567734,-0.3621214032173157,0.008691513910889626,-0.9320904016494751,0.0304257869720459,0.028097398579120636,-0.014458000659942627,0.9757928358665688,-0.026465719986703832,-0.18235775939878476,-0.11778661325893473
1729876377938094800,1.7270947265625,0.28079184889793396,-0.028565866872668266,-0.04914012923836708,-0.3622148633003235,0.00576725322753191,-0.9320768117904663,0.07544112205505371,-0.013930734246969223,-0.008780121803283691,0.9758242555425036,-0.02494051841448338,-0.18259127340699735,-0.11749705144956084
1729876377948126000,1.7371259765625,0.1370195597410202,0.001972281839698553,-0.16698633134365082,-0.36234739422798157,0.0034545022062957287,-0.9320366978645325,0.06562492251396179,-0.026480047032237053,0.009383559226989746,0.975771700234625,-0.023846601958760427,-0.18279217953701832,-0.11784742827799959
1729876377958155800,1.74715576171875,0.1628546267747879,0.07413782179355621,-0.21375995874404907,-0.362059623003006,0.0014498091768473387,-0.9321538209915161,0.030669212341308594,0.014159904792904854,0.06217402219772339,0.9757018491029126,-0.02296970407307692,-0.18274429430546835,-0.11867225873958015
1729876377968187000,1.757186767578125,0.3349382281303406,0.1998526155948639,-0.20639179646968842,-0.36075058579444885,-0.001595719251781702,-0.9326609373092651,-0.0019203722476959229,0.07091636955738068,0.08617967367172241,0.9757296116213336,-0.02150180536902714,-0.18222840425985354,-0.11950830564312152
1729876377978217000,1.767217041015625,0.5223084092140198,0.25384819507598877,-0.18478743731975555,-0.3586307764053345,-0.006386107299476862,-0.9334576725959778,-0.0556606650352478,0.12632015347480774,0.09204226732254028,0.9758586205502282,-0.019057474568725318,-0.18140558365271703,-0.12012008731178955
1729876377988247800,1.777247802734375,0.6368550658226013,0.33484286069869995,-0.1540156751871109,-0.355851948261261,-0.01242412906140089,-0.9344597458839417,-0.0896589457988739,0.17280922830104828,0.07830440998077393,0.9760772132693651,-0.01588459829355186,-0.18032692897426575,-0.12042937272889066
1729876377998278000,1.78727783203125,0.6273017525672913,0.42831024527549744,-0.1566798985004425,-0.35224342346191406,-0.019016234204173088,-0.9357151985168457,-0.07755088806152344,0.18504709005355835,0.011490404605865479,0.9763706515148766,-0.012364164320664344,-0.17885615149661718,-0.12065631505379115
1729876378008309000,1.79730908203125,0.5494815707206726,0.43581724166870117,-0.08531464636325836,-0.34809568524360657,-0.024992873892188072,-0.9371258020401001,-0.05861213803291321,0.15045060217380524,0.010718941688537598,0.9767201412870045,-0.00909695479132995,-0.17707157768720475,-0.1207512610848069
1729876378018338600,1.807338623046875,0.39936235547065735,0.42242661118507385,-0.07940375804901123,-0.3440976142883301,-0.02973944880068302,-0.9384627938270569,-0.00995209813117981,0.06620792299509048,0.07483065128326416,0.9770681833342882,-0.006436237053310256,-0.17529169268509479,-0.120703763696691
1729876378028370000,1.817369873046875,0.26705577969551086,0.4353494644165039,-0.17136403918266296,-0.3398951590061188,-0.03332192078232765,-0.9398728609085083,0.03957164287567139,-0.027072399854660034,0.0992814302444458,0.9773879040762674,-0.004418224550497519,-0.17333222613280266,-0.12103507549393894
1729876378038399700,1.827399658203125,0.13570603728294373,0.3655671775341034,-0.2566925287246704,-0.3360963463783264,-0.035896241664886475,-0.9411433339118958,0.05031442642211914,-0.06404886394739151,0.12728530168533325,0.9776013071178206,-0.003033703089995149,-0.1715200908893863,-0.12193249385157878
1729876378048429800,1.837429931640625,0.127991184592247,0.34045568108558655,-0.2355041354894638,-0.3326454758644104,-0.03789708763360977,-0.942290186882019,0.07939532399177551,-0.038808878511190414,0.14897054433822632,0.9777498200327776,-0.002003065749002136,-0.16985550084756504,-0.12308721637797315
1729876378058460700,1.847460693359375,0.2102264016866684,0.2187577337026596,-0.11223787069320679,-0.32985684275627136,-0.04011279717087746,-0.9431783556938171,0.10157006978988647,0.012448575347661972,0.13379114866256714,0.977886411696537,-0.0008294205796770219,-0.16855305340507654,-0.12380361196967911
1729876378068490800,1.85749072265625,0.260688453912735,0.10174334794282913,-0.006427285727113485,-0.3283686935901642,-0.04253106191754341,-0.9435915946960449,0.11929270625114441,0.018666282296180725,0.10296964645385742,0.9779833836227513,0.0004726859920183301,-0.16794037756259278,-0.12387284642728955
1729876378078521900,1.86752197265625,0.30644235014915466,0.14267879724502563,0.001220247708261013,-0.3273026645183563,-0.04523850604891777,-0.9438360333442688,0.09457555413246155,-0.034702327102422714,0.0334051251411438,0.9780774602020327,0.0019469670474675206,-0.16756548378837458,-0.12362312648486677
1729876378088551700,1.8775517578125,0.1437496393918991,0.1590982973575592,-0.019620053470134735,-0.32579538226127625,-0.04755289480090141,-0.9442436695098877,0.015919864177703857,-0.13053247332572937,-0.06828373670578003,0.9782002306855803,0.0032343826562416626,-0.1669362284910373,-0.12347573527133768
1729876378098582800,1.887582763671875,-0.17187781631946564,0.11529117077589035,-0.032445039600133896,-0.3244516849517822,-0.0474821962416172,-0.9447097778320312,-0.04969385266304016,-0.18907484412193298,-0.07910919189453125,0.9783025716896602,0.003263686047459333,-0.16623616383131676,-0.12360864195798378
1729876378108612900,1.89761279296875,-0.3383585512638092,0.030711784958839417,-0.04758431017398834,-0.32369062304496765,-0.045052412897348404,-0.9450897574424744,-0.027597278356552124,-0.17937389016151428,-0.06211233139038086,0.9783450301121656,0.002018401271208326,-0.16568354430870255,-0.12404077006089978
1729876378118643700,1.907643798828125,-0.38131988048553467,-0.1725933998823166,-0.029840465635061264,-0.3242885172367096,-0.0417475551366806,-0.9450365900993347,0.02806958556175232,-0.11994986981153488,-0.09655886888504028,0.9782683873279149,0.00023356192462371995,-0.16577591887728035,-0.12453733812828585
1729876378128673800,1.917673828125,-0.338602751493454,-0.4013938903808594,-0.011006325483322144,-0.32700100541114807,-0.038323331624269485,-0.9442465901374817,0.0859120786190033,-0.041709054261446,-0.11880266666412354,0.9780166404605045,-0.0017335817457759663,-0.16695414067326445,-0.1249273421174363
1729876378138705000,1.927704833984375,-0.16721609234809875,-0.5080720782279968,0.05630107223987579,-0.33144718408584595,-0.03578716516494751,-0.9427947998046875,0.10863831639289856,0.03563454747200012,-0.12298578023910522,0.9776305602000018,-0.0033245232404393414,-0.1690903329026414,-0.1250440391530643
1729876378148734700,1.937734619140625,0.04199271649122238,-0.44506704807281494,0.11498463153839111,-0.3360196053981781,-0.03498346731066704,-0.9412050843238831,0.053609877824783325,0.05855825915932655,-0.13728612661361694,0.9772730319446433,-0.003966427842415606,-0.1714109979254127,-0.12465953919186186
1729876378158764800,1.947764892578125,0.0633145123720169,-0.3751944899559021,0.13688620924949646,-0.33994054794311523,-0.03518141433596611,-0.9397886395454407,-0.03151947259902954,0.020288798958063126,-0.19163525104522705,0.976998666027135,-0.004005466566119291,-0.17346361096223925,-0.12396860575150398
1729876378168796000,1.9577958984375,-0.03060845099389553,-0.32530325651168823,0.13531361520290375,-0.3432367444038391,-0.034877654165029526,-0.9386011362075806,-0.07976743578910828,-0.03372589126229286,-0.17954760789871216,0.9767839309787303,-0.0042508389883198555,-0.17516095089520092,-0.12326364906247013
1729876378178825700,1.96782568359375,-0.13322484493255615,-0.3816339075565338,0.08271590620279312,-0.34655284881591797,-0.033721569925546646,-0.9374241232872009,-0.04864981770515442,-0.07591286301612854,-0.1466822624206543,0.9765429984589136,-0.004965744696679713,-0.17681423271588437,-0.12278450344361815
1729876378188856800,1.97785693359375,-0.24365048110485077,-0.45174071192741394,-0.015235956758260727,-0.35049131512641907,-0.031829964369535446,-0.9360249638557434,0.021649092435836792,-0.09558095782995224,-0.11455792188644409,0.9761892338778527,-0.006172582879249603,-0.17874401476433502,-0.1227486809497318
1729876378198887000,1.987886962890625,-0.521150529384613,-0.5710862874984741,-0.06577795743942261,-0.3552730083465576,-0.028505252674221992,-0.9343278408050537,0.07994338870048523,-0.07340823113918304,-0.055418193340301514,0.9756829898692722,-0.008270927160649328,-0.18101840026712815,-0.12331580149412566
1729876378208917800,1.997917724609375,-0.47855621576309204,-0.5837805271148682,-0.04703623056411743,-0.36067673563957214,-0.023673025891184807,-0.9323903918266296,0.09180155396461487,-0.01557261310517788,0.044832468032836914,0.9750942800021145,-0.011206695618355427,-0.18351893551890705,-0.12404222975820753
1729876378218947800,2.00794775390625,-0.2017728090286255,-0.4931262135505676,-0.06206205487251282,-0.3658502697944641,-0.020748501643538475,-0.9304423928260803,0.06747981905937195,0.01862749457359314,0.0497661828994751,0.9745259794162148,-0.013135864734197231,-0.18602752205903358,-0.12458098701572651
1729876378228979000,2.01797900390625,0.040497686713933945,-0.21004389226436615,-0.025202304124832153,-0.36915355920791626,-0.020124001428484917,-0.9291505217552185,-0.052675724029541016,0.03114081360399723,-0.013293325901031494,0.9741539502234963,-0.013737935348048302,-0.18771257327851823,-0.12489767747916732
1729876378239009000,2.028009033203125,0.35077619552612305,-0.0702284649014473,0.11362854391336441,-0.3702889680862427,-0.021802067756652832,-0.9286607503890991,-0.11246863007545471,0.08288297057151794,-0.05463087558746338,0.9740822898401419,-0.012887206505996915,-0.18842385816412083,-0.12447591989107261
1729876378249040000,2.038039794921875,0.4019327163696289,-0.14679157733917236,0.06261303275823593,-0.37125903367996216,-0.02518869936466217,-0.9281876683235168,-0.015780210494995117,0.06884406507015228,-0.07095783948898315,0.9740754216151092,-0.011069061213788867,-0.18916567772829196,-0.12357659323054507
1729876378259069700,2.048069580078125,0.134587824344635,-0.24062858521938324,-0.10369765013456345,-0.3730420470237732,-0.02788480743765831,-0.9273953437805176,0.10142028331756592,-0.014443106949329376,-0.021106243133544922,0.9738906056507408,-0.009799686862674892,-0.19027952662175676,-0.12343012769999506
1729876378269099800,2.058099853515625,-0.13499245047569275,-0.2795778512954712,-0.16488856077194214,-0.37546589970588684,-0.028302494436502457,-0.9264039993286133,0.12160536646842957,-0.06814834475517273,0.06710529327392578,0.9735516706871603,-0.00988312643728354,-0.1915733115837946,-0.12409338967617149
1729876378279130600,2.068130615234375,-0.27906331419944763,-0.18794487416744232,-0.24935629963874817,-0.3776342570781708,-0.027089620009064674,-0.9255585074424744,0.1269932985305786,-0.09124232828617096,0.055715978145599365,0.9731821316222025,-0.010878982680815408,-0.19261982220166485,-0.12528327124844793
1729876378289160700,2.07816064453125,-0.37811222672462463,-0.08026400208473206,-0.30404430627822876,-0.3787457346916199,-0.025099745020270348,-0.9251603484153748,0.0678783655166626,-0.08085732161998749,-0.00028520822525024414,0.9728590378841975,-0.012298781183183683,-0.19305066776419927,-0.12698662651637851
1729876378299191800,2.08819189453125,-0.37856656312942505,0.039252009242773056,-0.2578163743019104,-0.37885186076164246,-0.022603075951337814,-0.9251812696456909,-0.014748632907867432,-0.018427841365337372,0.021326959133148193,0.9726337128362623,-0.013915312599030854,-0.19291378411861473,-0.12874165891321251
1729876378309221600,2.0982216796875,-0.3243943452835083,0.091339610517025,-0.23700056970119476,-0.378145694732666,-0.02021395042538643,-0.9255253672599792,-0.00539928674697876,0.04677946865558624,0.031192541122436523,0.9725200547716394,-0.015371734152956815,-0.19235647389017888,-0.13025969143032168
1729876378319252700,2.108252685546875,-0.15552061796188354,0.05092054232954979,-0.28969308733940125,-0.37734705209732056,-0.018959982320666313,-0.9258778095245361,0.05624103546142578,0.08359618484973907,0.024678468704223633,0.9724051067254318,-0.01624818776405342,-0.1918256579079247,-0.13178535330562796
1729876378329282800,2.11828271484375,-0.047588229179382324,-0.027957122772932053,-0.28813299536705017,-0.3772006034851074,-0.019193418323993683,-0.9259327054023743,0.08998435735702515,0.0855386033654213,0.024870693683624268,0.9722132385435963,-0.01641768204408995,-0.1917397170296981,-0.13329630973075887
1729876378339313700,2.128313720703125,-0.0933820828795433,-0.021403349936008453,-0.28241464495658875,-0.37741798162460327,-0.019714638590812683,-0.9258331656455994,0.1046823263168335,0.055176034569740295,0.014883458614349365,0.9719894161619909,-0.016454500943313775,-0.1918663000908917,-0.13473403145977336
1729876378349343700,2.13834375,-0.2612016201019287,-0.016009274870157242,-0.2955283224582672,-0.37750503420829773,-0.01915951631963253,-0.9258093237876892,0.08290353417396545,0.008859800174832344,0.02856200933456421,0.9717639745446685,-0.01705152716761998,-0.19184523124666675,-0.1363068452607625
1729876378359374800,2.148374755859375,-0.3774520754814148,-0.017217017710208893,-0.3308759331703186,-0.3776252567768097,-0.017361685633659363,-0.9257957339286804,0.033554792404174805,-0.04739664867520332,0.05621260404586792,0.9715015860620251,-0.018329208569221732,-0.1917450638994288,-0.13814018157502278
1729876378369404700,2.15840478515625,-0.5195462703704834,-0.029839761555194855,-0.39724376797676086,-0.377755343914032,-0.014611456543207169,-0.9257901906967163,0.024483799934387207,-0.11028176546096802,0.03806436061859131,0.9711864284962307,-0.020157659981521726,-0.19156875381507418,-0.14032859495893682
1729876378379435800,2.168435791015625,-0.7276232838630676,-0.13227346539497375,-0.4287726581096649,-0.37839338183403015,-0.010379239916801453,-0.9255867004394531,0.026540905237197876,-0.13552533090114594,0.051349639892578125,0.9707515376282865,-0.02285852289177753,-0.1915310293016264,-0.14295107289324901
1729876378389465900,2.1784658203125,-0.7632697224617004,-0.2162730097770691,-0.438962459564209,-0.3800249397754669,-0.005004861392080784,-0.9249626994132996,0.034977853298187256,-0.10566716641187668,0.09288573265075684,0.9701703152979857,-0.026256962413613527,-0.19190937381372544,-0.14577795626265969
1729876378399496000,2.188495849609375,-0.6875795125961304,-0.16592808067798615,-0.42057785391807556,-0.3818656802177429,0.000121998593385797,-0.9242178201675415,0.050490498542785645,-0.07066341489553452,0.025231003761291504,0.9695571994895744,-0.029542157482764675,-0.19240150902068923,-0.14855295223892792
1729876378409526800,2.19852685546875,-0.6384347081184387,-0.11970888078212738,-0.39846348762512207,-0.3831612467765808,0.004644669592380524,-0.9236698150634766,0.007047295570373535,-0.04833061248064041,-0.04994773864746094,0.969013640752401,-0.03244699589632272,-0.19264549321121896,-0.15115457066239762
1729876378419556900,2.208556884765625,-0.5629335641860962,-0.10295014083385468,-0.3778096139431,-0.38419416546821594,0.008785754442214966,-0.9232105016708374,-0.032172441482543945,-0.023006973788142204,-0.05019336938858032,0.9685096594318557,-0.03510958101019434,-0.19277462699683195,-0.15360471227300326
1729876378429588000,2.218587890625,-0.42810019850730896,-0.10746840387582779,-0.3685514032840729,-0.3851783871650696,0.011895350180566311,-0.9227654933929443,-0.020018815994262695,-0.004739007912576199,-0.022302865982055664,0.968032309714199,-0.03721410479221671,-0.19295690485044054,-0.1558730469993646
1729876378439617800,2.22861767578125,-0.44916367530822754,-0.1542220562696457,-0.33046606183052063,-0.3863465487957001,0.014439376071095467,-0.922240674495697,0.004815727472305298,-0.0026748795062303543,-0.0039067864418029785,0.9675571296858252,-0.03901751412810014,-0.19328035676136218,-0.15796735200053083
1729876378449649000,2.23864892578125,-0.5396252274513245,-0.24941317737102509,-0.2710309624671936,-0.3882773518562317,0.017934810370206833,-0.9213680624961853,0.030046701431274414,0.0016574431210756302,0.0520901083946228,0.9670211641731279,-0.04133102983020579,-0.19392711948140756,-0.1598568355512045
1729876378459679000,2.248678955078125,-0.5251829028129578,-0.26638925075531006,-0.29560476541519165,-0.3907608091831207,0.021799368783831596,-0.9202340841293335,0.05746304988861084,-0.02945932000875473,0.06548255681991577,0.9664285638996186,-0.043867917302277515,-0.19482956612304117,-0.16165679637444688
1729876378469709800,2.258709716796875,-0.5711084604263306,-0.20915178954601288,-0.35158467292785645,-0.3930484652519226,0.02551797404885292,-0.9191636443138123,0.03330719470977783,-0.10988384485244751,-0.004694998264312744,0.9658053642461313,-0.04637045799887231,-0.19562201299444545,-0.1637129142245527
1729876378479740000,2.268739990234375,-0.6962472200393677,-0.1731058955192566,-0.34040337800979614,-0.3948514759540558,0.029923448339104652,-0.9182575345039368,-0.03050258755683899,-0.1602030247449875,-0.015336215496063232,0.9651825461191752,-0.04922254919728208,-0.19608257110010155,-0.16598630343863766
1729876378489771000,2.27877099609375,-0.7842862606048584,-0.18597643077373505,-0.3095325529575348,-0.3965686559677124,0.03550145402550697,-0.9173183441162109,-0.045524269342422485,-0.15711404383182526,0.002996504306793213,0.9645502068833889,-0.05265612041565064,-0.1963877858204274,-0.1682321733242602
1729876378499800600,2.288800537109375,-0.8476926684379578,-0.16482266783714294,-0.3398558497428894,-0.3983238935470581,0.04168543219566345,-0.9162971377372742,-0.01319044828414917,-0.14036405086517334,-0.00360947847366333,0.963878565577957,-0.056417772312279596,-0.19664300139191782,-0.17054848262116998
1729876378509830700,2.29883056640625,-1.06434166431427,-0.12298446148633957,-0.3040104806423187,-0.3997670114040375,0.04905107244849205,-0.9153034090995789,-0.0059489905834198,-0.12249165773391724,-0.018366575241088867,0.9631793798492077,-0.06078109530933993,-0.19660607276742134,-0.17302396084259908
1729876378519861800,2.30886181640625,-1.3387657403945923,-0.09596216678619385,-0.22004209458827972,-0.40090814232826233,0.05901360511779785,-0.9142155647277832,-0.023667722940444946,-0.10105159133672714,0.023712635040283203,0.9624602339167643,-0.06641484664120512,-0.19616650048287934,-0.17543691437395809
1729876378529891800,2.318891845703125,-1.6456286907196045,-0.10784801095724106,-0.17297445237636566,-0.4019968807697296,0.0718253031373024,-0.9128196239471436,-0.01926782727241516,-0.11873084306716919,0.07134318351745605,0.9616680904425705,-0.07347147429721579,-0.19542806281599134,-0.17777651230854458
1729876378539922700,2.328922607421875,-2.028823137283325,-0.06596207618713379,-0.20040874183177948,-0.40288323163986206,0.08790271729230881,-0.9110204577445984,-0.022760748863220215,-0.1824156790971756,0.07798212766647339,0.9607052143463269,-0.08222919789146527,-0.19423733958006084,-0.18043214320291384
1729876378549952800,2.338952880859375,-2.3695476055145264,-0.0849311426281929,-0.20212993025779724,-0.40373048186302185,0.10722430050373077,-0.9085728526115417,-0.009462326765060425,-0.24673542380332947,0.07429862022399902,0.9594822423834362,-0.09272539773901456,-0.19265400580868278,-0.18352186647980426
1729876378559983600,2.348983642578125,-2.652273416519165,-0.17780329287052155,-0.19047728180885315,-0.40511295199394226,0.12926284968852997,-0.905082643032074,0.025245368480682373,-0.29096025228500366,0.11223602294921875,0.9579327337995305,-0.1047268361968955,-0.19102607256539159,-0.18683229275852453
1729876378570013700,2.359013671875,-2.834221601486206,-0.2570666968822479,-0.15458372235298157,-0.4073165953159332,0.15344098210334778,-0.9003049731254578,0.05793604254722595,-0.29203659296035767,0.13590073585510254,0.9560301884884523,-0.11795340411989921,-0.18956395893506253,-0.19015495413831343
1729876378580044800,2.369044921875,-2.8463711738586426,-0.28592362999916077,-0.1473361998796463,-0.4100154638290405,0.17853495478630066,-0.8944342136383057,0.04987749457359314,-0.24002790451049805,0.14382392168045044,0.95384609923068,-0.13174515791127192,-0.18821821701946556,-0.193377275572233
1729876378590075000,2.379074951171875,-2.7431752681732178,-0.2908932864665985,-0.16864360868930817,-0.4129115641117096,0.20290951430797577,-0.8878805041313171,0.01502332091331482,-0.14762695133686066,0.10542505979537964,0.9514730766733173,-0.14525730864056743,-0.1869761120782004,-0.19656874005067304
1729876378600105700,2.389105712890625,-2.4948437213897705,-0.20749135315418243,-0.1704987734556198,-0.41556304693222046,0.22548402845859528,-0.8811721801757812,-0.034403443336486816,-0.04045596718788147,0.02701568603515625,0.9490664407813649,-0.15786192896904028,-0.18572433844327102,-0.19964775403149784
1729876378610135800,2.3991357421875,-2.254192352294922,-0.1257333755493164,-0.11201523244380951,-0.4173434376716614,0.24578551948070526,-0.8748794198036194,-0.0671689510345459,0.04677125811576843,-0.045301854610443115,0.9468244761060177,-0.16917541440258654,-0.1842280490511946,-0.20239406378217528
1729876378620166000,2.409165771484375,-1.9953001737594604,-0.08724670112133026,-0.06818705797195435,-0.41845130920410156,0.2639765739440918,-0.8690310120582581,-0.08028227090835571,0.0856938362121582,-0.05623143911361694,0.9447884321067641,-0.1792623985961209,-0.18261843645861206,-0.20467127898792084
1729876378630196700,2.41919677734375,-1.7734981775283813,-0.08095701038837433,-0.06237124651670456,-0.4193280041217804,0.28004854917526245,-0.8635605573654175,-0.06315493583679199,0.07201746106147766,-0.029612600803375244,0.9429173829934779,-0.18818787860026784,-0.18112159947855713,-0.20660896510419807
1729876378640228900,2.429228759765625,-1.6832505464553833,-0.0897584855556488,-0.056743986904621124,-0.420247346162796,0.29464754462242126,-0.858239471912384,-0.049570828676223755,0.025680214166641235,0.014550566673278809,0.9411187651082985,-0.19634844641795704,-0.17979862215708908,-0.20836330328263722
1729876378650259700,2.439259765625,-1.665318250656128,-0.11601555347442627,-0.03389379754662514,-0.4212169349193573,0.3087081015110016,-0.8528045415878296,-0.03163343667984009,-0.019950807094573975,0.045004308223724365,0.9393085144963522,-0.2042468579069753,-0.17855235340527878,-0.21000431438432687
1729876378660289800,2.449289794921875,-1.7981551885604858,-0.2558045983314514,-0.003047201782464981,-0.4228717088699341,0.32343152165412903,-0.8465055227279663,-0.017527520656585693,-0.04172372817993164,0.08210122585296631,0.9373116023402174,-0.21259668015781885,-0.17762290433541217,-0.2114230737960665
1729876378670320600,2.459320556640625,-1.821370005607605,-0.24109630286693573,-0.023284029215574265,-0.4250643849372864,0.33872801065444946,-0.8393948078155518,-0.0014035701751708984,-0.004896193742752075,0.07821011543273926,0.935099289057753,-0.2213776397472878,-0.17690264192682156,-0.2128067280879402
1729876378680350700,2.469350830078125,-1.618375301361084,-0.20692288875579834,-0.10829745978116989,-0.42712321877479553,0.3531525433063507,-0.8323755264282227,-0.026566386222839355,0.03738090395927429,-0.006216943264007568,0.9328415988142733,-0.2297768283338819,-0.17611030758951848,-0.21446283532591173
1729876378690381800,2.4793818359375,-1.3763506412506104,-0.2017386555671692,-0.02217935025691986,-0.42910075187683105,0.3652249574661255,-0.8261255025863647,-0.06404811143875122,0.01824367046356201,-0.10511839389801025,0.9308451888380253,-0.2368885311723035,-0.17555931233189837,-0.21584766434130817
1729876378700412000,2.489411865234375,-1.3580453395843506,-0.21803827583789825,0.01892653852701187,-0.4307898283004761,0.3763590455055237,-0.820228099822998,-0.0442621111869812,0.001021355390548706,-0.17014360427856445,0.9290488370720451,-0.24339339085175377,-0.1750588950292733,-0.21675465045894604
1729876378710442800,2.49944287109375,-1.4679865837097168,-0.2301938384771347,0.010072062723338604,-0.4325723946094513,0.38811537623405457,-0.813785970211029,-0.00038054585456848145,0.008018046617507935,-0.13334226608276367,0.9271101389617028,-0.2502850574792836,-0.17454051732300913,-0.2176235204018713
1729876378720472800,2.509472900390625,-1.214474081993103,-0.1578168421983719,-0.01422928273677826,-0.434164434671402,0.399107962846756,-0.8075977563858032,0.004034370183944702,0.0073556602001190186,-0.03387868404388428,0.9252117762337997,-0.2567849816669939,-0.173961466116835,-0.21859153450141042
1729876378730503000,2.5195029296875,-0.9155569672584534,-0.08706022799015045,0.0013510091230273247,-0.4352017939090729,0.4077043831348419,-0.8027307391166687,-0.0261324942111969,0.009593009948730469,0.0171472430229187,0.9237109109580313,-0.26186475064596965,-0.1733824968619288,-0.2193712335417899
1729876378740533800,2.52953369140625,-0.5139163136482239,0.10365566611289978,-0.06690341234207153,-0.435281366109848,0.41340017318725586,-0.7997690439224243,-0.06255194544792175,0.06842663884162903,0.06334936618804932,0.922726935108588,-0.2651875490180906,-0.1726008113403306,-0.22013576421029338
1729876378750563800,2.539563720703125,0.07173416763544083,0.29228660464286804,-0.15744981169700623,-0.4341472089290619,0.414773166179657,-0.7996746301651001,-0.11193442344665527,0.1707981526851654,0.1046367883682251,0.9224596035604429,-0.2659489289756052,-0.17156298246004567,-0.22114651224347612
1729876378760595000,2.549594970703125,0.9277095198631287,0.4236728549003601,-0.14003486931324005,-0.43195798993110657,0.4100874364376068,-0.8032687306404114,-0.1534302532672882,0.2732316553592682,0.14590483903884888,0.9232372696915655,-0.26312580450081974,-0.1706764338339306,-0.2219628311613036
1729876378770624800,2.559624755859375,1.8409093618392944,0.4587373733520508,0.021983318030834198,-0.4285702407360077,0.3986652195453644,-0.810798168182373,-0.13666114211082458,0.3536388576030731,0.13472700119018555,0.9253539353371067,-0.25617978513561734,-0.17021410227547581,-0.22162885591886705
1729876378780655900,2.56965576171875,2.7199339866638184,0.43826431035995483,0.051261309534311295,-0.424672931432724,0.3800922632217407,-0.82169508934021,-0.058176279067993164,0.3910411596298218,0.06977248191833496,0.9286783055632604,-0.2450550380159929,-0.17058862215179077,-0.22000978455932077
1729876378790686000,2.57968603515625,3.2415904998779297,0.3822207450866699,-0.028398629277944565,-0.421153724193573,0.35514605045318604,-0.8345662951469421,-0.017200827598571777,0.37510910630226135,0.00024622678756713867,0.9326450493982181,-0.23055663844635335,-0.17193164807171193,-0.21784521099656082
1729876378800716800,2.589716796875,3.264360189437866,0.21002982556819916,-0.07248273491859436,-0.41876640915870667,0.3272126019001007,-0.8470930457115173,-0.01693311333656311,0.3474547564983368,0.01858663558959961,0.9365155160894926,-0.21478484360452357,-0.17412908275013364,-0.2156046441002084
1729876378810747000,2.599746826171875,3.01284122467041,0.061916202306747437,-0.14592871069908142,-0.41793087124824524,0.299690842628479,-0.8576241731643677,0.011238306760787964,0.2481149435043335,-0.033000826835632324,0.9398170003478561,-0.1996406145386629,-0.17700718570650995,-0.2134388810943155
1729876378820778000,2.609778076171875,2.334923267364502,-0.015342900529503822,-0.14847975969314575,-0.41826093196868896,0.2756831645965576,-0.8654805421829224,0.05383524298667908,-0.0015743374824523926,-0.19068700075149536,0.9422817634087556,-0.1867321527442371,-0.17997452062286332,-0.21176729213563797
1729876378830807800,2.619807861328125,1.4231798648834229,-0.03816906362771988,-0.23121139407157898,-0.418880432844162,0.25822219252586365,-0.8705518245697021,0.0963096022605896,-0.33309710025787354,-0.2947923541069031,0.9438244937069223,-0.17751488752884648,-0.18224311103289825,-0.21088207740779094
1729876378840838700,2.629838623046875,-0.1682138592004776,-0.13890498876571655,-0.24642735719680786,-0.4202853739261627,0.2516595721244812,-0.871795654296875,0.11103543639183044,-0.5910608768463135,-0.20181268453598022,0.9440381605546815,-0.17439103508372478,-0.1835481857031296,-0.2113995634149485
1729876378850868700,2.63986865234375,-0.9870388507843018,-0.1511772722005844,-0.1594703644514084,-0.4221664071083069,0.2564537823200226,-0.8694866299629211,0.046327143907547,-0.5756828784942627,0.06922417879104614,0.9431056305800755,-0.1774343872425066,-0.1837762932691648,-0.21282656834821084
1729876378860898800,2.64989892578125,-0.9558990597724915,-0.01980699598789215,-0.15118712186813354,-0.42334848642349243,0.2647199034690857,-0.8664291501045227,0.014733314514160156,-0.3638867735862732,0.1615646481513977,0.941947794801495,-0.1822196337284644,-0.1832523840077904,-0.21435703540008602
1729876378870929700,2.6599296875,-0.29993337392807007,0.13716652989387512,-0.30225706100463867,-0.4233468472957611,0.26929062604904175,-0.8650202751159668,-0.03754493594169617,-0.05894821882247925,0.025756359100341797,0.9411856105417337,-0.18494106015733977,-0.1824463386613418,-0.21605561613165208
1729876378880959700,2.669959716796875,0.14874665439128876,0.051581330597400665,-0.35413119196891785,-0.4233191907405853,0.2682535648345947,-0.8653559684753418,-0.07942745089530945,0.24758505821228027,-0.1429295539855957,0.9408681921458755,-0.18473587651236026,-0.182194077209486,-0.21781898404304334
1729876378890990800,2.679990966796875,0.21697990596294403,-0.029116982594132423,-0.20165057480335236,-0.4240250885486603,0.2653653025627136,-0.8659006953239441,-0.056245356798172,0.4096224904060364,-0.1354115605354309,0.9407441645707736,-0.18355346151597418,-0.18264111556421334,-0.21897698887123404
1729876378901020700,2.690020751953125,-0.05754752457141876,-0.0878996029496193,-0.13709554076194763,-0.42492395639419556,0.26365870237350464,-0.86598140001297,0.05190753936767578,0.32784825563430786,-0.10835331678390503,0.9406295686899706,-0.18290732375752816,-0.18317809819031242,-0.21956057606617696
1729876378911051800,2.7000517578125,-1.0072730779647827,-0.18065105378627777,-0.17928481101989746,-0.4265049397945404,0.26736316084861755,-0.8640662431716919,0.09084206819534302,0.004914641380310059,-0.09684067964553833,0.9398691636389979,-0.1852872067716158,-0.18339991674402994,-0.22063342060326538
1729876378921081900,2.710081787109375,-1.9677700996398926,-0.18461117148399353,-0.17539313435554504,-0.4285852909088135,0.27957361936569214,-0.859158456325531,0.0529138445854187,-0.33720606565475464,0.014157235622406006,0.9380751763481749,-0.1924020890622412,-0.18276271321585918,-0.2226976027457116
1729876378931112700,2.72011279296875,-2.4524829387664795,-0.18414942920207977,-0.16890327632427216,-0.43070197105407715,0.29816216230392456,-0.8518187403678894,0.021033942699432373,-0.5413262844085693,0.0675627589225769,0.9354828665337405,-0.2030344070479791,-0.18129442114046346,-0.22534683281665271
1729876378941142800,2.730142822265625,-2.489703893661499,-0.105059415102005,-0.23514167964458466,-0.43252483010292053,0.3183811604976654,-0.8435376286506653,-0.008423686027526855,-0.5179508924484253,0.06987130641937256,0.9325285920955219,-0.21463154418124258,-0.1793445940113929,-0.22838420056165276
1729876378951174000,2.740173828125,-2.2331531047821045,-0.11195332556962967,-0.22172974050045013,-0.4340957999229431,0.33738958835601807,-0.8353018164634705,-0.04615938663482666,-0.24875128269195557,0.03845733404159546,0.9295388928711155,-0.22564410392041517,-0.1772958962297302,-0.23153484386947204
1729876378961203700,2.75020361328125,-1.5964901447296143,-0.22715793550014496,-0.10659782588481903,-0.4361148476600647,0.35285627841949463,-0.8278262615203857,-0.04691743850708008,0.10243546962738037,0.12584567070007324,0.9269580344929079,-0.2347302820989591,-0.17603569484949894,-0.2337990958191255
1729876378971233800,2.76023388671875,-0.8516507148742676,-0.31875303387641907,-0.03986753523349762,-0.43857166171073914,0.36259400844573975,-0.822301983833313,0.04396408796310425,0.32083192467689514,0.132757306098938,0.9251941565721328,-0.24061869279618645,-0.1759308290188859,-0.2348764427730743
1729876378981265000,2.770264892578125,-0.4397028684616089,-0.43349161744117737,0.002219731919467449,-0.44186070561408997,0.36766648292541504,-0.818278968334198,0.09168672561645508,0.33709120750427246,0.024699926376342773,0.9240644032422807,-0.24396870022291092,-0.17703043568487473,-0.23504177371807836
1729876378991295000,2.780294921875,-0.43930312991142273,-0.4142140746116638,-0.06118640676140785,-0.44541221857070923,0.37077417969703674,-0.8149445056915283,0.09749650955200195,0.20089635252952576,-0.11399531364440918,0.9231713053081904,-0.24626753139459454,-0.17854989500240892,-0.2350044731539616
1729876379001325800,2.790325927734375,-0.8351921439170837,-0.4301062226295471,0.03484558314085007,-0.44897449016571045,0.3758458197116852,-0.8106552362442017,0.06317120790481567,0.02205762267112732,-0.19161832332611084,0.9219560710473332,-0.24969829079825528,-0.17978641845099388,-0.23521211020056318
1729876379011356000,2.80035595703125,-0.9100394248962402,-0.33875349164009094,0.27697834372520447,-0.45157286524772644,0.38388529419898987,-0.8054279088973999,0.009205251932144165,-0.08408060669898987,0.0334857702255249,0.9206485300310774,-0.25447840237132696,-0.18035187140861247,-0.23477727665785775
1729876379021386800,2.81038671875,-0.6643401980400085,-0.09318315982818604,0.27274203300476074,-0.4522166848182678,0.39159655570983887,-0.8013440370559692,-0.009193867444992065,-0.13576769828796387,0.10209482908248901,0.919774185430346,-0.25865849834726884,-0.18006597925182807,-0.23385390770261316
1729876379031416800,2.820416748046875,-0.38254839181900024,0.16131320595741272,0.1626078188419342,-0.4510554075241089,0.3967980444431305,-0.7994375228881836,-0.09430903196334839,-0.1249016523361206,0.050353050231933594,0.9193694483844318,-0.26123902270112825,-0.17898436487203281,-0.23340675561442653
1729876379041448000,2.830447998046875,0.18385139107704163,0.29713067412376404,0.19940923154354095,-0.44850078225135803,0.3985060453414917,-0.8000250458717346,-0.15853968262672424,0.0170975923538208,0.18486696481704712,0.9196223326331355,-0.261659385762413,-0.17754394205261062,-0.2330396879885013
1729876379051477800,2.840477783203125,0.9770984649658203,0.39301204681396484,0.2677589952945709,-0.44478142261505127,0.3949727714061737,-0.8038445711135864,-0.0854310393333435,0.22403055429458618,0.3072930574417114,0.9209544857080305,-0.25882765861887885,-0.1763121120324924,-0.2318735305731606
1729876379061508900,2.8505087890625,1.8961963653564453,0.547660231590271,0.23488201200962067,-0.4400101900100708,0.384561687707901,-0.8114822506904602,-0.010200470685958862,0.4016627073287964,0.2936752438545227,0.9234813397952822,-0.2519264501419209,-0.17547632815463024,-0.23005116670800482
1729876379071538700,2.86053857421875,3.0166776180267334,0.7213158011436462,0.2492055594921112,-0.4338652491569519,0.36545658111572266,-0.8235304951667786,-0.04184278845787048,0.5177984237670898,0.29080045223236084,0.9273479470665695,-0.23999760547063792,-0.17503116374257907,-0.2275766093557496
1729876379081568800,2.87056884765625,3.8977248668670654,0.8528027534484863,0.2584914565086365,-0.42638763785362244,0.33749067783355713,-0.8392220735549927,-0.07681676745414734,0.5722688436508179,0.22293484210968018,0.9323827399257335,-0.22306938781650884,-0.17501144581377692,-0.22421798157912
1729876379091599600,2.880599609375,4.478946208953857,0.8242051005363464,0.17253342270851135,-0.41836848855018616,0.30274325609207153,-0.8563377857208252,-0.09049692749977112,0.622503936290741,0.1627037525177002,0.9378630844541517,-0.2026277501973096,-0.1754226529547407,-0.2204131331468673
1729876379101629700,2.890629638671875,4.6538262367248535,0.5832268595695496,0.048252470791339874,-0.4118685722351074,0.26322147250175476,-0.872398316860199,-0.08990150690078735,0.5934069156646729,0.11359399557113647,0.9430488674190713,-0.1801896787524646,-0.17700996627853613,-0.2164676850895538
1729876379111660800,2.900660888671875,4.426914215087891,0.21315456926822662,-0.03519288823008537,-0.4083564579486847,0.22321955859661102,-0.8851090669631958,0.022675246000289917,0.3715527653694153,-0.0969618558883667,0.9472465761335868,-0.15825993447625783,-0.1799979145207649,-0.2127880434102057
1729876379121690600,2.910690673828125,3.8978686332702637,-0.1880842000246048,0.0399244986474514,-0.4081634283065796,0.18560875952243805,-0.8938412070274353,0.21134024858474731,-0.02224816381931305,-0.3025546669960022,0.9503987625826914,-0.1381799338990283,-0.18435214765154853,-0.20895693111264743
1729876379131721700,2.9207216796875,2.6660311222076416,-0.5198729634284973,0.13265231251716614,-0.41138800978660583,0.15641899406909943,-0.8979382514953613,0.35035279393196106,-0.4205486476421356,-0.25272703170776367,0.9522895966408865,-0.12296490578242184,-0.18950071239890634,-0.20521666577687492
1729876379141751800,2.930751708984375,1.8366334438323975,-0.4848156273365021,0.18331842124462128,-0.41587749123573303,0.13720540702342987,-0.8990108966827393,0.29650795459747314,-0.5415022969245911,0.0000546574592590332,0.9532600712425988,-0.11310961867214857,-0.19416682288142528,-0.2019921877260596
1729876379151782700,2.94078271484375,1.4461305141448975,-0.28230077028274536,0.16056117415428162,-0.4191288352012634,0.12322276085615158,-0.8995261192321777,0.10408058762550354,-0.4560016989707947,0.08350133895874023,0.9539529994800373,-0.10586761104845965,-0.1975575949337815,-0.19934108520381139
1729876379161812700,2.950812744140625,1.399234414100647,-0.08246275782585144,0.15768443048000336,-0.4205256700515747,0.1113404929637909,-0.9004229307174683,-0.09873095154762268,-0.22443866729736328,0.017000138759613037,0.9546490183664018,-0.09954926717691427,-0.19969594387492334,-0.1971215029637476
1729876379171843800,2.96084375,1.727695345878601,0.02913348749279976,0.21873819828033447,-0.4205150008201599,0.09807247668504715,-0.9019694924354553,-0.19053855538368225,0.11403993517160416,0.010901987552642822,0.9555586610713733,-0.09231036040117455,-0.2012313339429044,-0.19466016794643617
1729876379181874000,2.9708740234375,2.51143479347229,0.11836563050746918,0.19616417586803436,-0.41972681879997253,0.08019383251667023,-0.9041008949279785,-0.17605265974998474,0.3959718942642212,-0.06541204452514648,0.9567429813358097,-0.08251968687700138,-0.20283014158546936,-0.19155542401133752
1729876379191903700,2.98090380859375,3.3269731998443604,0.10689321160316467,0.1451191008090973,-0.4184665381908417,0.05413449555635452,-0.9066174626350403,-0.1147671639919281,0.5287207365036011,-0.21832144260406494,0.958145841227122,-0.06842121667490858,-0.20496291603527736,-0.18779132280717525
1729876379201934800,2.990934814453125,3.6969377994537354,0.04278799518942833,0.19325360655784607,-0.4176236093044281,0.022570187225937843,-0.90833979845047,-0.06740754842758179,0.5227636694908142,-0.29626530408859253,0.9594544824164762,-0.051472134653731,-0.20779974519391697,-0.18334997004708403
1729876379211965000,3.00096484375,3.721832036972046,-0.08414711058139801,0.20498909056186676,-0.4178994596004486,-0.010460645891726017,-0.9084330797195435,0.013358384370803833,0.44002604484558105,-0.22578322887420654,0.9603967156962845,-0.03381831368913913,-0.2112813008349705,-0.17847921401001493
1729876379221995800,3.010995849609375,3.534489870071411,-0.0783853530883789,0.19607895612716675,-0.418628066778183,-0.04306816682219505,-0.9071360230445862,0.05444648861885071,0.24230213463306427,-0.18252462148666382,0.9609595638889193,-0.016397605111547836,-0.21485604825513507,-0.17356513026371756
1729876379232025900,3.02102587890625,2.7520270347595215,-0.1253715604543686,0.1283039003610611,-0.41967278718948364,-0.0710071474313736,-0.9048937559127808,0.023203611373901367,0.03224978595972061,-0.17117124795913696,0.9611309061264011,-0.0014794074132573368,-0.21806173414819105,-0.16933497658828217
1729876379242057000,3.031056884765625,2.2948739528656006,0.05535108223557472,0.01178953517228365,-0.4202120304107666,-0.09326744824647903,-0.9026201367378235,-0.060363590717315674,-0.03852275758981705,0.018144428730010986,0.9610745937854858,0.010389923524323066,-0.2204132244205207,-0.16627056685924074
1729876379252086800,3.041086669921875,1.8628849983215332,0.24690768122673035,-0.1185583546757698,-0.4187275767326355,-0.11216267198324203,-0.9011585712432861,-0.1473277509212494,-0.03757186233997345,0.06763201951980591,0.9610484120646942,0.02053163448030796,-0.22135755142941857,-0.16421144111943323
1729876379262118000,3.051117919921875,1.731400966644287,0.3430517911911011,-0.18350619077682495,-0.41578957438468933,-0.12889350950717926,-0.9002808332443237,-0.19106778502464294,0.012972444295883179,0.03597724437713623,0.961030384455496,0.029525589707601885,-0.22133196280898507,-0.16297584807923632
1729876379272148000,3.06114794921875,1.388768196105957,0.20101043581962585,-0.12979716062545776,-0.41296976804733276,-0.14398829638957977,-0.8992905020713806,-0.12244594097137451,0.06632101535797119,0.08160251379013062,0.9609468152418208,0.037638343123376626,-0.22121959991320142,-0.1619463276182866
1729876379282178800,3.0711787109375,1.5143743753433228,0.14516235888004303,-0.07235223799943924,-0.41124847531318665,-0.15685631334781647,-0.897925853729248,0.01282617449760437,0.10024616122245789,0.15996503829956055,0.9607771884740891,0.044552647954656355,-0.22147716049165225,-0.16084271767038275
1729876379292208600,3.081208740234375,1.7218034267425537,0.02572767809033394,-0.010879025794565678,-0.41034623980522156,-0.17202536761760712,-0.8955575227737427,0.09416881203651428,0.07342301309108734,0.17280972003936768,0.9604382896468631,0.05270328083838217,-0.2223591698333397,-0.15917685146737823
1729876379302238700,3.09123876953125,1.2358359098434448,-0.040791161358356476,0.02638312429189682,-0.4105243384838104,-0.1854611337184906,-0.8927900195121765,0.09297361969947815,-0.08841893076896667,0.032911479473114014,0.9600056950800321,0.059919416911806606,-0.2236395941111752,-0.15743000447759983
1729876379312269600,3.10126953125,0.731960117816925,0.03779429942369461,0.0011198464781045914,-0.4105352461338043,-0.194114550948143,-0.8909435272216797,0.07829031348228455,-0.16425341367721558,0.20705991983413696,0.9597071320844744,0.06458179932180595,-0.22440458645882164,-0.1563143835274765
1729876379322299600,3.111299560546875,0.12308503687381744,0.009096344001591206,0.09529907256364822,-0.4103633761405945,-0.19775865972042084,-0.8902209997177124,0.02013501524925232,-0.24532611668109894,0.3297199606895447,0.9596285589704103,0.06660919543465055,-0.22461680543661985,-0.15563947441452963
1729876379332330800,3.121330810546875,-0.4987487494945526,-0.09918917715549469,0.24255698919296265,-0.4109773635864258,-0.1955994963645935,-0.8904147744178772,-0.0019254982471466064,-0.33842766284942627,0.3085514307022095,0.9597775834993179,0.06560364312377978,-0.22469708269443997,-0.15503023099506658
1729876379342360800,3.13136083984375,-1.4219181537628174,-0.11622488498687744,0.37802985310554504,-0.4126845896244049,-0.18577568233013153,-0.8917280435562134,0.012614339590072632,-0.46743786334991455,0.2564436197280884,0.9601845527678594,0.060561794031790316,-0.224651423474235,-0.15462774684857958
1729876379352391700,3.1413916015625,-2.4184415340423584,0.05415777489542961,0.48259806632995605,-0.4137662947177887,-0.16678141057491302,-0.8949756622314453,-0.008871704339981079,-0.5929537415504456,0.2850360870361328,0.9610153432936485,0.050798860120318916,-0.2234538909760547,-0.15471747710928482
1729876379362421800,3.151421875,-3.1743786334991455,0.1791444569826126,0.4962576627731323,-0.41336584091186523,-0.13927297294139862,-0.8998509645462036,-0.07840973138809204,-0.62687087059021,0.3400059938430786,0.9621658340861753,0.03671272677528804,-0.22074122719648026,-0.15544335287095246
1729876379372452600,3.16145263671875,-3.5351979732513428,0.013271008618175983,0.35990145802497864,-0.41293615102767944,-0.10692579299211502,-0.9044615030288696,-0.11472806334495544,-0.5576708316802979,0.3569609522819519,0.9631083372015897,0.02002918156384022,-0.21764208889193817,-0.1570129477110204
1729876379382482700,3.171482666015625,-3.7505061626434326,-0.3496076166629791,0.046450309455394745,-0.4145771563053131,-0.07297486066818237,-0.9070835113525391,-0.06499138474464417,-0.4271930456161499,0.24152565002441406,0.9633022517640597,0.0020852030874263187,-0.2155316778802869,-0.1599706826499527
1729876379392513800,3.181513671875,-3.73974347114563,-0.5270886421203613,-0.08164481073617935,-0.41865018010139465,-0.038880012929439545,-0.9073149561882019,0.021921604871749878,-0.18621768057346344,0.0920378565788269,0.962638952648505,-0.016433101886947722,-0.2146450302925335,-0.16426725709925646
1729876379402543900,3.1915439453125,-3.117985248565674,-0.5794857740402222,0.3747991621494293,-0.4235529899597168,-0.006964354310184717,-0.9058445692062378,0.09222358465194702,0.1822420358657837,0.04476058483123779,0.961720114344697,-0.0336845220847788,-0.21434334539076144,-0.16738219505935978
1729876379412574700,3.20157470703125,-2.1730072498321533,-0.5170446038246155,0.9272269010543823,-0.42866459488868713,0.020171187818050385,-0.9032385349273682,0.14604124426841736,0.48935025930404663,0.05126410722732544,0.9611359961853743,-0.047764582851091045,-0.21470744998078026,-0.16684407721049413
1729876379422604800,3.211604736328125,-1.3776899576187134,-0.18407326936721802,0.8139256834983826,-0.4316170811653137,0.03970750793814659,-0.9011825919151306,0.08888936042785645,0.6001697778701782,-0.005372583866119385,0.9610481916896308,-0.057360943299281084,-0.21475202280076247,-0.164249337212602
1729876379432635000,3.221634765625,-1.1733397245407104,0.07447657734155655,0.6148325204849243,-0.4317241907119751,0.054116927087306976,-0.9003808498382568,-0.20043227076530457,0.52522873878479,-0.001856088638305664,0.9611797085675905,-0.06423041361539306,-0.21373824562491714,-0.16224755130791382
1729876379442665700,3.231665771484375,-1.1120907068252563,0.11370440572500229,0.6982912421226501,-0.43027833104133606,0.0671234279870987,-0.9001972079277039,-0.34692811965942383,0.3623351454734802,0.08504223823547363,0.9614486209255924,-0.07027438898079397,-0.21204457067046462,-0.16036015317625787
1729876379452695800,3.24169580078125,-1.344767689704895,-0.004457334987819195,0.7185387015342712,-0.42922261357307434,0.08105901628732681,-0.8995540142059326,-0.15428879857063293,0.1191210150718689,0.05220293998718262,0.9616398878797551,-0.07678165989556023,-0.21054112663293395,-0.1581961583571221
1729876379462727000,3.251726806640625,-1.88348388671875,-0.2023720145225525,0.6866092681884766,-0.4294828176498413,0.09862620383501053,-0.8976733684539795,0.03151828050613403,-0.12218578904867172,0.024977445602416992,0.9614318295930233,-0.08538219454934212,-0.20945932584539137,-0.15647934082816156
1729876379472756700,3.2617568359375,-2.0741188526153564,-0.439426064491272,0.6909821629524231,-0.4316723644733429,0.11970584839582443,-0.8940523266792297,0.10202145576477051,-0.22834843397140503,0.07262593507766724,0.9607096906711127,-0.09607182816261878,-0.20915078400185647,-0.15512355737708197
1729876379482787800,3.271787841796875,-1.803334355354309,-0.4597768485546112,0.5585250854492188,-0.43498826026916504,0.13999217748641968,-0.8894872069358826,0.11990946531295776,-0.18421214818954468,0.04772084951400757,0.9597216725755229,-0.10653061579388098,-0.2095414757205249,-0.1538771909524394
1729876379492818000,3.28181787109375,-1.3371204137802124,-0.40112200379371643,0.4123800992965698,-0.43806973099708557,0.15613971650600433,-0.8852769732475281,0.056905150413513184,-0.014690756797790527,-0.08420538902282715,0.9587599966540793,-0.11496342367176764,-0.21010692721989083,-0.15302908167762805
1729876379502848800,3.291848876953125,-0.7500989437103271,-0.42244407534599304,0.41739508509635925,-0.4410229027271271,0.16718648374080658,-0.8817865252494812,-0.0158405601978302,0.21521402895450592,-0.14273428916931152,0.9580281951206273,-0.12071682606341984,-0.21103121612125134,-0.1519058695270484
1729876379512878800,3.30187890625,-0.22434823215007782,-0.4343583285808563,0.3575373589992523,-0.44417619705200195,0.173202782869339,-0.8790382742881775,0.005379170179367065,0.3826901316642761,-0.125615656375885,0.9575696436037433,-0.12378557986144265,-0.21250409203590787,-0.15026497469818917
1729876379522910000,3.311909912109375,0.1297733634710312,-0.3703087568283081,0.31516221165657043,-0.4471154510974884,0.17494072020053864,-0.8772020936012268,0.011782169342041016,0.4022687077522278,-0.05556762218475342,0.9573794219651586,-0.12456908113413186,-0.2141996566335353,-0.14841068482316203
1729876379532939800,3.321939697265625,0.3150775134563446,-0.2946435511112213,0.15774647891521454,-0.44958269596099854,0.1740540862083435,-0.8761167526245117,0.00645214319229126,0.2999144196510315,-0.033612191677093506,0.957343096267839,-0.12399649631921529,-0.21579268430043883,-0.14680824568469977
1729876379542969600,3.331969482421875,0.4722450375556946,-0.3528943359851837,0.06537500023841858,-0.45222991704940796,0.17104096710681915,-0.8753474354743958,0.023305296897888184,0.15088896453380585,0.006893455982208252,0.9573141723416145,-0.12244228828529917,-0.21756419722035852,-0.14568229818782105
1729876379553000700,3.342000732421875,0.5489211678504944,-0.4081597924232483,-0.012631651945412159,-0.4555017650127411,0.16666626930236816,-0.8744944334030151,0.06470885872840881,-0.001047387719154358,0.04334819316864014,0.9572360937432766,-0.12027935713358624,-0.21973998617287432,-0.14472836035877393
1729876379563030800,3.35203076171875,0.5140976905822754,-0.4593159258365631,-0.06133873760700226,-0.45939624309539795,0.16177403926849365,-0.8733751773834229,0.11329632997512817,-0.10530126094818115,0.027687370777130127,0.9570397822250788,-0.11797928033651232,-0.22224600579841583,-0.1440918769892057
1729876379573061600,3.3620615234375,0.4584813416004181,-0.4581244885921478,-0.03409060463309288,-0.4636002480983734,0.15731637179851532,-0.8719669580459595,0.08615878224372864,-0.162794291973114,0.030795693397521973,0.9567672206069282,-0.11593255957248438,-0.2248914580288009,-0.1434571567185595
1729876379583091700,3.372091796875,0.34347671270370483,-0.310580849647522,-0.1533176600933075,-0.4670271873474121,0.1533546894788742,-0.870843231678009,0.021775633096694946,-0.1582069993019104,0.04848611354827881,0.956509005939589,-0.1141587237105673,-0.2270377996972262,-0.14322064685006494
1729876379593122800,3.382122802734375,0.13424082100391388,-0.3413316011428833,-0.1059618666768074,-0.4700443744659424,0.15060283243656158,-0.8696994185447693,-0.05833703279495239,-0.13773970305919647,0.04284089803695679,0.9561728789126643,-0.11308707452687002,-0.22882658109799306,-0.14346836077801456
1729876379603152600,3.392152587890625,0.04893631115555763,-0.3811541199684143,0.01959339529275894,-0.4731925427913666,0.14966556429862976,-0.8681526780128479,-0.0400063693523407,-0.08646368980407715,0.0792122483253479,0.9557874991610638,-0.11287963869952787,-0.2306119112954692,-0.14334109048268698
1729876379613183700,3.402183837890625,0.06615910679101944,-0.4398171901702881,0.05966012179851532,-0.4767434000968933,0.14942777156829834,-0.8662489056587219,0.05540236830711365,-0.009672537446022034,0.049903690814971924,0.9553626006876532,-0.11298692191897555,-0.23261452321625783,-0.1428526187184583
1729876379623213800,3.4122138671875,0.00048422208055853844,-0.4519617259502411,0.1359727382659912,-0.4805019497871399,0.14948533475399017,-0.8641597628593445,0.06590530276298523,0.04056285321712494,-0.04508095979690552,0.9549305519831072,-0.11319807725824776,-0.23474736957016248,-0.14208310758525208
1729876379633244700,3.42224462890625,-0.08923834562301636,-0.3759399652481079,0.12491262704133987,-0.4838513433933258,0.1506234109401703,-0.8620907664299011,0.03565484285354614,0.039699435234069824,-0.0512545108795166,0.9545144750384472,-0.11390930350874985,-0.23659941094330603,-0.14123606877571118
1729876379643273500,3.4322734375,-0.005471804179251194,-0.3327578604221344,0.0016796430572867393,-0.48681262135505676,0.15144237875938416,-0.860278308391571,0.0007896125316619873,-0.0010212510824203491,-0.003689587116241455,0.9541057434792022,-0.11451509863700259,-0.23821660265621927,-0.14078920174955534
1729876379653304300,3.44230419921875,0.17504504323005676,-0.3623102605342865,-0.13844282925128937,-0.48984310030937195,0.15039846301078796,-0.8587398529052734,-0.011545538902282715,-0.04624199867248535,-0.017068862915039062,0.9536968812522876,-0.11428057279810508,-0.23993756306349262,-0.1408274321737822
1729876379663334400,3.45233447265625,0.4281798303127289,-0.4981299042701721,-0.2266794890165329,-0.49373573064804077,0.1468689888715744,-0.8571199774742126,0.02931913733482361,-0.016925156116485596,-0.011547625064849854,0.953229693398364,-0.11290235528328343,-0.2422665522032998,-0.1411147439819074
1729876379673364500,3.462364501953125,0.6833878755569458,-0.6329401731491089,-0.28603121638298035,-0.49896490573883057,0.1408894956111908,-0.8550930619239807,0.08735901117324829,0.058237671852111816,0.0020810365676879883,0.9526650731036579,-0.11036757617256357,-0.2455044936396116,-0.14133584081151038
1729876379683395300,3.472395263671875,0.7993975281715393,-0.6378025412559509,-0.29182228446006775,-0.5048702359199524,0.13268432021141052,-0.8529366850852966,0.10061907768249512,0.08560790121555328,-0.00800997018814087,0.952078632363605,-0.10672326859549562,-0.24928259869853206,-0.14147311889116476
1729876379693425400,3.48242529296875,0.39816001057624817,-0.7492457628250122,-0.06993915140628815,-0.5110037922859192,0.12639035284519196,-0.850235641002655,0.053133249282836914,0.07208068668842316,-0.05628901720046997,0.9514058777155345,-0.10399522214753369,-0.25311493859860296,-0.1412263034501067
1729876379703456500,3.49245654296875,-0.07333560287952423,-0.7281519174575806,-0.009948517195880413,-0.5174140930175781,0.1251264065504074,-0.846537709236145,0.014102816581726074,0.0777391642332077,0.0720474123954773,0.9505082895733431,-0.1038407565994695,-0.25680388177337765,-0.14072331925937628
1729876379713486300,3.502486328125,-0.10999748110771179,-0.4890925884246826,-0.18031466007232666,-0.5227239727973938,0.1256042867898941,-0.8431982398033142,-0.06869155168533325,0.0500548779964447,0.13300848007202148,0.9495877041034428,-0.10469794840514286,-0.25969062199138376,-0.14100524545849627
1729876379723517400,3.512517333984375,0.02805626206099987,-0.37518545985221863,-0.2718147337436676,-0.526544988155365,0.12478463351726532,-0.8409395217895508,-0.20892870426177979,-0.032148540019989014,0.015545845031738281,0.9488542404065288,-0.10491258086126187,-0.26177012122999516,-0.14193533549024867
1729876379733547500,3.522547607421875,0.21052832901477814,-0.46140649914741516,-0.36473244428634644,-0.5303467512130737,0.12208990007638931,-0.8389436602592468,-0.17012327909469604,-0.1050306037068367,-0.0239560604095459,0.9481553141602999,-0.10421488952497322,-0.2639458787220495,-0.14308596728293016
1729876379743578400,3.532578369140625,0.3516356647014618,-0.6264814734458923,-0.39670369029045105,-0.5354001522064209,0.11764689534902573,-0.8363646864891052,-0.022247612476348877,-0.10232708603143692,0.024932861328125,0.9472970529788436,-0.10274808432206381,-0.26694659017572536,-0.14425923147455175
1729876379753608400,3.5426083984375,0.49124008417129517,-0.6176988482475281,-0.4179173707962036,-0.5412265658378601,0.1119825467467308,-0.8333869576454163,0.05653101205825806,-0.0556318536400795,0.06338268518447876,0.9463563565448958,-0.10068754534250435,-0.2704968552474571,-0.14526979895234496
1729876379763638500,3.552638427734375,0.5088947415351868,-0.4497798681259155,-0.5302132964134216,-0.5461896657943726,0.1050838753581047,-0.83104407787323,0.03756839036941528,-0.0353512316942215,0.07155311107635498,0.9455372481141272,-0.09798420142108055,-0.27363672552835827,-0.14656575522943377
1729876379773669400,3.56266943359375,0.5902552008628845,-0.5654022097587585,-0.4047924876213074,-0.5506940484046936,0.0980364978313446,-0.8289300203323364,-0.029323101043701172,-0.037688009440898895,0.12163937091827393,0.9447689093839746,-0.09517820705089126,-0.2765431181618312,-0.14790881030275418
1729876379783699500,3.572699462890625,0.769988477230072,-0.7105380892753601,-0.3409184515476227,-0.5565314888954163,0.0902986004948616,-0.8259048461914062,0.03143078088760376,-0.04049394279718399,0.1781693696975708,0.9439153936999266,-0.0918649082318976,-0.2803718985111928,-0.14824381671833223
1729876379793730600,3.58273046875,0.31853508949279785,-0.718169093132019,-0.3987431228160858,-0.5627349615097046,0.08342825621366501,-0.8224166631698608,0.11823105812072754,-0.1033562496304512,-0.05644381046295166,0.9428781419647789,-0.08916072377387871,-0.2843273384187474,-0.14896059226298572
1729876379803760600,3.5927607421875,0.04166940972208977,-0.7524202466011047,-0.24447846412658691,-0.5691588521003723,0.08046111464500427,-0.8182812929153442,0.01668381690979004,-0.14119111001491547,-0.08677852153778076,0.941631280656784,-0.08859134128899271,-0.2881161737152532,-0.1499041935412735
1729876379813791500,3.60279150390625,-0.03517996519804001,-0.7169746160507202,-0.2941725254058838,-0.5753273963928223,0.07882172614336014,-0.8141164183616638,0.003061652183532715,-0.10053501278162003,-0.0641794204711914,0.940374482787715,-0.08869725400189057,-0.2916754646525323,-0.15084494581592364
1729876379823821600,3.612821533203125,-0.29806405305862427,-0.7064612507820129,-0.2382405400276184,-0.5811604261398315,0.07846887409687042,-0.8099970817565918,-0.029236972332000732,-0.10398159176111221,-0.1409611701965332,0.9390829571303869,-0.0895357005104864,-0.29493189217557836,-0.15205887732054796
1729876379833852400,3.622852294921875,-0.4005143940448761,-0.8271402716636658,-0.08883774280548096,-0.5876055359840393,0.08056467026472092,-0.8051267862319946,-0.03333568572998047,-0.11097545921802521,0.062084853649139404,0.937629283721061,-0.0916581264136249,-0.29838800350784145,-0.15301891606632922
1729876379843882500,3.632882568359375,-0.5392083525657654,-0.5891647338867188,-0.10569048672914505,-0.5934803485870361,0.08358486741781235,-0.800496518611908,0.025822818279266357,-0.15115082263946533,0.12517309188842773,0.9362702162575669,-0.09415168975362902,-0.30147504648856155,-0.15377388777742224
1729876379853913600,3.64291357421875,-0.727135419845581,-0.35942262411117554,-0.17845390737056732,-0.597291886806488,0.08797913789749146,-0.7971838712692261,-0.03190428018569946,-0.24598392844200134,-0.04302603006362915,0.9351478324105733,-0.09736342375658319,-0.3031970183225999,-0.15521137724055142
1729876379863943400,3.652943359375,-0.5908151268959045,-0.25698333978652954,-0.31153953075408936,-0.5999572277069092,0.09186778962612152,-0.7947400212287903,-0.0902436375617981,-0.2794288396835327,0.10562258958816528,0.9341609088069854,-0.10036869783087694,-0.30423038060594787,-0.15720527181333668
1729876379873974500,3.662974609375,-0.413682222366333,-0.21807700395584106,-0.39636731147766113,-0.6021974086761475,0.09370354562997818,-0.7928290963172913,-0.014578163623809814,-0.25471431016921997,0.11941301822662354,0.9332463004518513,-0.10237870244639938,-0.3051295661542393,-0.15958064562669352
1729876379884004400,3.67300439453125,-0.16635815799236298,-0.34330227971076965,-0.3061324954032898,-0.6045554280281067,0.09384474158287048,-0.7910158038139343,0.07260340452194214,-0.13696610927581787,0.1396791934967041,0.9324170270418219,-0.10339586565845714,-0.30627012601689035,-0.16157531855710963
1729876379894034400,3.683034423828125,0.2427675575017929,-0.3853009343147278,-0.23600055277347565,-0.6078993082046509,0.09182444214820862,-0.7886867523193359,0.1649518609046936,0.026537954807281494,0.05566978454589844,0.9316254952268421,-0.10306479206915133,-0.30827630985082005,-0.16253459460347633
1729876379904065300,3.693065185546875,0.12227843701839447,-0.26712343096733093,-0.22082799673080444,-0.6106866598129272,0.08882319182157516,-0.7868750691413879,0.12493830919265747,0.09625063836574554,-0.17641222476959229,0.9310405811244334,-0.10202182609022589,-0.3100871029186953,-0.16309889343478112
1729876379914095400,3.703095458984375,-0.02715013548731804,-0.24581408500671387,-0.2783120572566986,-0.6128105521202087,0.086964912712574,-0.7854300141334534,-0.035428643226623535,0.0286661759018898,-0.19612199068069458,0.9304840668937866,-0.10163087584706468,-0.31137781580629115,-0.1640561773704768
1729876379924126500,3.71312646484375,-0.11328501999378204,-0.39835062623023987,-0.3365181088447571,-0.6155403256416321,0.0856078639626503,-0.7834420204162598,-0.05921858549118042,-0.05797421932220459,-0.11507171392440796,0.9297015649856585,-0.1017331980402571,-0.3129366559894007,-0.16545706626626014
1729876379934156500,3.723156494140625,-0.14211533963680267,-0.5749470591545105,-0.3650032877922058,-0.619718074798584,0.08448191732168198,-0.7802643179893494,0.036755919456481934,-0.06061719357967377,-0.16578054428100586,0.9285603981040896,-0.10221775501776328,-0.3153083715396822,-0.1670567762333307
1729876379944187400,3.7331875,-0.08627710491418839,-0.6391230821609497,-0.3550814092159271,-0.6247795224189758,0.08312280476093292,-0.7763640880584717,0.11168742179870605,0.04303683340549469,-0.15553587675094604,0.9272266925669913,-0.10269540943446041,-0.31823198613542675,-0.16862076664151388
1729876379954217500,3.743217529296875,0.04952247068285942,-0.6456711888313293,-0.3328874111175537,-0.6300314664840698,0.08117879927158356,-0.7723150253295898,0.11350613832473755,0.13746437430381775,-0.12931156158447266,0.9258963941644555,-0.1028143976713531,-0.321359143862357,-0.16992228941141474
1729876379964248300,3.753248291015625,0.24664565920829773,-0.6918038129806519,-0.3576851785182953,-0.6353994011878967,0.07781121879816055,-0.7682532072067261,0.10408830642700195,0.16568851470947266,-0.11063772439956665,0.924613385153261,-0.1021084129527744,-0.32472643934043494,-0.17092908976692206
1729876379974278400,3.7632783203125,0.33733880519866943,-0.860569953918457,-0.3742803931236267,-0.6417001485824585,0.07318783551454544,-0.7634556293487549,0.11785060167312622,0.12860961258411407,-0.11007946729660034,0.9231633967297553,-0.10081045641703122,-0.3287999835779333,-0.17174758841548726
1729876379984309500,3.7733095703125,0.3466681241989136,-0.9015373587608337,-0.3373759090900421,-0.6486908793449402,0.06820861995220184,-0.7579892873764038,0.1305481195449829,0.08898737281560898,-0.09091806411743164,0.921562422757322,-0.0993661539804609,-0.3333642364887944,-0.1723874263534947
1729876379994339600,3.783339599609375,0.2978578507900238,-0.8730984330177307,-0.36442136764526367,-0.6557227969169617,0.06351552158594131,-0.7523253560066223,0.0963813066482544,0.0694800540804863,-0.07442635297775269,0.9199118562202944,-0.09807594730520953,-0.337962190639362,-0.17298818580221034
1729876380004369400,3.793369384765625,0.3000411093235016,-0.8185129165649414,-0.35772112011909485,-0.6622563600540161,0.05887415632605553,-0.7469607591629028,0.029352307319641113,0.07474704086780548,-0.03464013338088989,0.9183050974456929,-0.09682244739095945,-0.342264587277712,-0.17377044429980348
1729876380014400500,3.803400390625,0.3587843179702759,-0.8029621839523315,-0.3677644431591034,-0.668547511100769,0.053996309638023376,-0.7417066097259521,-0.006409823894500732,0.07007288187742233,-0.023536860942840576,0.9167451607148188,-0.09538180475141882,-0.346480870396275,-0.17444730300586778
1729876380024430600,3.8134306640625,0.3576489984989166,-0.6891892552375793,-0.36063888669013977,-0.6742796301841736,0.048900306224823,-0.7368553876876831,0.01754128932952881,0.04205731302499771,0.0037316083908081055,0.9152886027689768,-0.09376279843060772,-0.35040099532538893,-0.17514182144535873
1729876380034461400,3.82346142578125,0.4320300221443176,-0.6038802266120911,-0.3760484755039215,-0.6791627407073975,0.0435345359146595,-0.7326955795288086,0.015573203563690186,0.0050952136516571045,0.040831565856933594,0.9140205964359452,-0.09188288177400507,-0.35384988890359875,-0.17582478138997776
1729876380044491500,3.833491455078125,0.3986169397830963,-0.5370103716850281,-0.39936551451683044,-0.6835285425186157,0.037658676505088806,-0.7289517521858215,0.028087198734283447,-0.0628051906824112,0.03849160671234131,0.9128476989381388,-0.08969783727583408,-0.3570411900355843,-0.176593424553325
1729876380054522600,3.843522705078125,0.18963097035884857,-0.44311612844467163,-0.379901260137558,-0.6872335076332092,0.03280303627252579,-0.7256956696510315,0.027061939239501953,-0.14439059793949127,0.02174675464630127,0.9117543574382353,-0.08806937387067962,-0.3597164770977806,-0.17762910654348374
1729876380064552400,3.853552490234375,0.04207161068916321,-0.40469950437545776,-0.38400891423225403,-0.6904041171073914,0.02942126989364624,-0.7228254079818726,0.012562930583953857,-0.20076224207878113,0.06997817754745483,0.9107028950705224,-0.08727577317145725,-0.36189809855657534,-0.1789776297445395
1729876380074583600,3.86358349609375,-0.046933628618717194,-0.3678903579711914,-0.3933875262737274,-0.6933313012123108,0.026724858209490776,-0.7201232314109802,-0.008542537689208984,-0.2445288449525833,0.08560186624526978,0.9096400185685609,-0.08692766758995596,-0.3638433165799454,-0.18060097087881716
1729876380084613600,3.873613525390625,-0.0995078906416893,-0.3538629412651062,-0.360953152179718,-0.6959631443023682,0.024608418345451355,-0.7176557183265686,-0.03008061647415161,-0.24494536221027374,0.013172745704650879,0.9086193955948079,-0.0868882166576718,-0.3655442163508856,-0.18231477072482924
1729876380094644500,3.88364453125,-0.12598343193531036,-0.36483651399612427,-0.3119925260543823,-0.6986492276191711,0.02307330071926117,-0.7150923013687134,-0.03860974311828613,-0.18712057173252106,-0.039180099964141846,0.9075946584548538,-0.0871212702809544,-0.3672379710537439,-0.18389751288329506
1729876380104674300,3.89367431640625,-0.1255304366350174,-0.33487460017204285,-0.27474263310432434,-0.7012054324150085,0.021969715133309364,-0.7126208543777466,-0.031659066677093506,-0.1169251948595047,-0.08857238292694092,0.9066237751417321,-0.08750715280539036,-0.3688252659777501,-0.18532138149661692
1729876380114704400,3.903704345703125,0.05028286948800087,-0.3532811999320984,-0.2788774371147156,-0.7036867141723633,0.020361579954624176,-0.710218608379364,-0.035235464572906494,-0.06551236659288406,-0.08938765525817871,0.9057186294723171,-0.08752159906535546,-0.3704465729423541,-0.1865023401660655
1729876380124735200,3.9137353515625,0.0971265435218811,-0.4093630909919739,-0.29199084639549255,-0.7064613699913025,0.01761256717145443,-0.7075324654579163,-0.01645439863204956,-0.05832304805517197,-0.08861005306243896,0.9047749558758791,-0.08689873732427313,-0.37240083457713813,-0.18747948791752334
1729876380134765300,3.923765380859375,0.017682848498225212,-0.46330326795578003,-0.20170463621616364,-0.7096259593963623,0.015520855784416199,-0.7044076323509216,0.00997990369796753,-0.04118616133928299,-0.0890951156616211,0.9037356371270823,-0.08663767272221434,-0.3745532022317668,-0.18832337879035715
1729876380144796400,3.93379638671875,0.07632539421319962,-0.40887996554374695,-0.17242051661014557,-0.7127695083618164,0.013926645740866661,-0.7012602090835571,0.018189311027526855,0.0019424613565206528,-0.023562729358673096,0.9027547448678914,-0.08651160498596767,-0.37667709832583696,-0.1888499179194392
1729876380154826500,3.943826416015625,0.07926265895366669,-0.3511963188648224,-0.21976804733276367,-0.7154155969619751,0.011972758919000626,-0.6985966563224792,-0.004707813262939453,0.0015159817412495613,-0.06744027137756348,0.9018918631947963,-0.08614775151077558,-0.3785237665412158,-0.18944537488640392
1729876380164857300,3.953857421875,0.16329656541347504,-0.39342978596687317,-0.23774679005146027,-0.7180107831954956,0.009493222460150719,-0.6959673762321472,-0.048407793045043945,0.028241736814379692,-0.06726199388504028,0.9010209359014623,-0.08553291831416591,-0.3803951070090972,-0.19011900351385622
1729876380174887400,3.963887451171875,0.2637026607990265,-0.46540066599845886,-0.21151305735111237,-0.7210206389427185,0.006296919193118811,-0.6928850412368774,-0.01056206226348877,0.08063237369060516,-0.06852847337722778,0.9000762311166752,-0.0845012499810297,-0.3826447732748376,-0.19053992649615886
1729876380184918500,3.97391845703125,0.28908899426460266,-0.4969865679740906,-0.15344469249248505,-0.7244340777397156,0.003042888129130006,-0.6893374919891357,0.0523606538772583,0.12049223482608795,-0.12523764371871948,0.8990725196279987,-0.08336423107248976,-0.3852034171159277,-0.19062407530540118
1729876380194948400,3.9839482421875,0.24976703524589539,-0.416654109954834,-0.11322403699159622,-0.7275958061218262,0.00018233241280540824,-0.6860061287879944,0.06661546230316162,0.1301429569721222,-0.12834012508392334,0.8981772201834983,-0.08229672782741142,-0.3875876484099631,-0.19047531655730426
1729876380204979500,3.9939794921875,0.10693742334842682,-0.4140247702598572,-0.05878316983580589,-0.7304148077964783,-0.001657499698922038,-0.6830018162727356,0.040519118309020996,0.08812902122735977,-0.08323347568511963,0.897363650166737,-0.08173444931152109,-0.38963902797505906,-0.19036664271038908
1729876380215009500,4.004009521484375,0.24417278170585632,-0.4479859173297882,-0.05098756402730942,-0.7334466576576233,-0.0030991253443062305,-0.6797400712966919,0.03850024938583374,0.05471957474946976,0.05318373441696167,0.8965098177449826,-0.08135451646726631,-0.39180530605252867,-0.1901063722846372
1729876380225039400,4.014039306640625,0.27697813510894775,-0.3665160834789276,-0.0064259544014930725,-0.7361937761306763,-0.005314829293638468,-0.6767500638961792,0.05877971649169922,0.04878707975149155,0.0446394681930542,0.8957965833505201,-0.08037809323863386,-0.39390903873135263,-0.18953572671872052
1729876380235070500,4.024070556640625,0.14874140918254852,-0.3096424341201782,0.031708914786577225,-0.7384884357452393,-0.00661458820104599,-0.6742338538169861,0.04302322864532471,0.023902758955955505,-0.03505563735961914,0.895226767339454,-0.079788549892029,-0.39562212713086775,-0.1889078858488879
1729876380245100500,4.0341005859375,0.040534235537052155,-0.22715528309345245,0.04383534938097,-0.7403064370155334,-0.006951841525733471,-0.6722337007522583,0.026713848114013672,0.004205225966870785,0.053032100200653076,0.8947690014169085,-0.0796987255140028,-0.39690206407318723,-0.18842902733310865
1729876380255131400,4.04413134765625,-0.01847155950963497,-0.15912452340126038,0.05304402858018875,-0.741560161113739,-0.006675028242170811,-0.6708532571792603,0.003965497016906738,-0.03434062376618385,0.06791752576828003,0.8944496152541451,-0.07991545638704071,-0.397727155975032,-0.18811354047850434
1729876380265161500,4.054161376953125,-0.09688594192266464,-0.1697252243757248,0.05447787418961525,-0.7426741123199463,-0.0058743394911289215,-0.66962730884552,0.017088115215301514,-0.06428560614585876,0.057185351848602295,0.894148180443057,-0.08044226428494515,-0.39839100291217405,-0.18791708007408844
1729876380275192600,4.064192626953125,-0.14305037260055542,-0.16147460043430328,0.058844923973083496,-0.7438037991523743,-0.004622252192348242,-0.6683821678161621,0.04391354322433472,-0.06042599305510521,0.04783773422241211,0.8938161207839851,-0.0812672773006301,-0.39900445700432835,-0.18784032958137947
