time,seconds_elapsed,rotationRateX,rotationRateY,rotationRateZ,gravityX,gravityY,gravityZ,accelerationX,accelerationY,accelerationZ,quaternionW,quaternionX,quaternionY,quaternionZ
1729876090263491800,0.106491943359375,-0.049837738275527954,-0.003536574076861143,0.010629194788634777,-0.28766342997550964,-0.47499051690101624,-0.8316452503204346,0.01390540599822998,-0.012207478284835815,0.0007126927375793457,0.9569863283212391,0.24816996552780873,-0.15029651474942426,-1.3611526640439763e-17
1729876090273523000,0.11652294921875,-0.04060482606291771,0.00943286158144474,0.009546353481709957,-0.2874693274497986,-0.4744435250759125,-0.8320245146751404,-0.0006472170352935791,-0.002363234758377075,-0.0030584335327148438,0.9570854070634066,0.2478577668259043,-0.150180800083551,-0.000004781668577582347
1729876090283552800,0.126552734375,-0.04264666885137558,0.008481048047542572,-0.01152324490249157,-0.28737562894821167,-0.4738254249095917,-0.8324090242385864,-0.0063256025314331055,0.0014742612838745117,-0.014072239398956299,0.9571858671484343,0.24750824377086697,-0.15011714148566613,-0.000008838272331913912
1729876090293584000,0.136583984375,-0.025755969807505608,-0.007064142730087042,-0.029133398085832596,-0.28731346130371094,-0.47335702180862427,-0.8326969146728516,-0.00216105580329895,0.002516448497772217,-0.012044787406921387,0.957260951507688,0.24722709996997885,-0.1501009890205897,-0.00011762865332506571
1729876090303614000,0.146614013671875,-0.006189992651343346,-0.021250002086162567,-0.023155134171247482,-0.2872812747955322,-0.4731098413467407,-0.8328484892845154,-0.0024221837520599365,-0.00441405177116394,-0.0026617050170898438,0.9573005219749504,0.24706311198396544,-0.15011855414398018,-0.0002749885423798296
1729876090313644800,0.156644775390625,0.006040241569280624,-0.0022441940382122993,-0.015622648410499096,-0.28736498951911926,-0.47308334708213806,-0.8328346014022827,0.0032767653465270996,-0.010116815567016602,0.004602909088134766,0.9572968613913897,0.2470365859900584,-0.15018525297898042,-0.00036176754065257635
1729876090323675000,0.1666748046875,-0.006673955358564854,0.012993081472814083,-0.04133280739188194,-0.28725355863571167,-0.4734211266040802,-0.8326811194419861,0.007559865713119507,-0.00008976459503173828,0.018914759159088135,0.9572567479207317,0.2472030292990658,-0.15016687035247,-0.0004913797096531416
1729876090333706000,0.1767060546875,-0.03379672020673752,0.00945224892348051,-0.04987409710884094,-0.2867259085178375,-0.4737989008426666,-0.8326481580734253,-0.002382427453994751,0.006971389055252075,0.02252858877182007,0.9572479216408952,0.2473582739592321,-0.14996606315419403,-0.0007751851228687616
1729876090343735800,0.18673583984375,-0.05735184624791145,0.007227977272123098,-0.04924532398581505,-0.2861177921295166,-0.47383037209510803,-0.8328393697738647,-0.014373600482940674,0.00010588765144348145,0.023498058319091797,0.9572976327890566,0.24731220985662974,-0.14972298273974174,-0.0010939956081174604
1729876090353767000,0.196766845703125,-0.08755063265562057,-0.00043921032920479774,-0.058665722608566284,-0.28584522008895874,-0.47339582443237305,-0.8331800103187561,-0.008908867835998535,-0.010689377784729004,0.015095412731170654,0.957386126725631,0.24701676541152512,-0.14964191891177756,-0.001386514267463888
1729876090363797000,0.206796875,-0.10515519231557846,-0.006977270822972059,-0.05547019839286804,-0.2856907248497009,-0.4725897014141083,-0.8336904644966125,0.00352516770362854,-0.011037707328796387,0.0002555251121520996,0.95751885503515,0.2465099695816075,-0.14962486106099954,-0.0017169998049710253
1729876090373827800,0.216827880859375,-0.09363049268722534,-0.01530635915696621,-0.04583115130662918,-0.28555721044540405,-0.4717676639556885,-0.8342016339302063,0.005421042442321777,-0.009723544120788574,-0.00442129373550415,0.9576517490490637,0.24599650103460696,-0.14961581013583095,-0.0020375594538035438
1729876090383858000,0.22685791015625,-0.07372628897428513,-0.015480797737836838,-0.014077749103307724,-0.2856028974056244,-0.47123801708221436,-0.8344853520393372,0.0048563480377197266,-0.008849382400512695,-0.011019349098205566,0.9577252487540626,0.2456634074761294,-0.1496890881932977,-0.0022778117817515288
1729876090393889000,0.236888916015625,-0.052734121680259705,-0.0021188133396208286,0.0033944519236683846,-0.28561854362487793,-0.4709678292274475,-0.8346325159072876,0.0031935274600982666,0.000920712947845459,-0.015465021133422852,0.9577634981582215,0.2454975562025881,-0.14971534730445848,-0.002373256010246927
1729876090403919000,0.246919189453125,-0.02430514618754387,0.005570265464484692,-0.010166097432374954,-0.28556373715400696,-0.4708990454673767,-0.8346900343894958,-0.0018508732318878174,0.012860596179962158,-0.008769989013671875,0.9577782375473847,0.24544739456147102,-0.14970155479151867,-0.002440541150386501
1729876090413950000,0.256949951171875,-0.006032732781022787,0.010605131275951862,-0.016972605139017105,-0.28562667965888977,-0.4709356725215912,-0.8346478939056396,-0.016360104084014893,0.012134283781051636,-0.004463374614715576,0.9577671301009225,0.24546062851882147,-0.14975028231887239,-0.0024955557255321157
1729876090423980000,0.26697998046875,0.012243209406733513,0.013102910481393337,0.002248760312795639,-0.2859002649784088,-0.4712049961090088,-0.8344021439552307,-0.023364901542663574,0.007948040962219238,0.00028055906295776367,0.9577030305237455,0.24561868414879995,-0.14990124512507338,-0.00248653657221549
1729876090434011000,0.277010986328125,0.013840307481586933,0.007995393127202988,0.001652211882174015,-0.2860473096370697,-0.47161537408828735,-0.8341198563575745,-0.01581740379333496,0.005367696285247803,0.006345868110656738,0.957629354928731,0.24585742900185362,-0.1499806959812689,-0.0024496469839218075
1729876090444041000,0.287041015625,-0.0003394272644072771,0.007430270314216614,-0.003576371818780899,-0.2858941853046417,-0.4718846082687378,-0.8340200185775757,0.0005547702312469482,0.0007083415985107422,0.008336544036865234,0.9576032560604061,0.24600229897229464,-0.1499094597401488,-0.002466184415589089
1729876090454072000,0.297072021484375,-0.028367798775434494,0.008057445287704468,-0.012154946103692055,-0.2856229245662689,-0.47192147374153137,-0.8340921401977539,0.0047695934772491455,-0.004458039999008179,0.008134007453918457,0.9576219400372864,0.2460070044057217,-0.14978143668366276,-0.0025305432235167256
1729876090464102100,0.30710205078125,-0.053100574761629105,-0.0001826416701078415,-0.011193279176950455,-0.2853706181049347,-0.47164517641067505,-0.8343347311019897,0.005737990140914917,-0.003071129322052002,0.012313306331634521,0.9576849240885064,0.2458282121647046,-0.14967003859112712,-0.002649949958595186
1729876090474133000,0.317133056640625,-0.04436454176902771,0.005649840924888849,-0.015361924655735493,-0.2851552665233612,-0.4711276590824127,-0.8347007036209106,0.005705744028091431,0.000027686357498168945,0.01469343900680542,0.9577801601602609,0.24551676939496148,-0.14956997419575407,-0.0027595466845512532
1729876090484163000,0.3271630859375,-0.010240394622087479,0.010957786813378334,-0.02555117756128311,-0.2850285768508911,-0.4706857204437256,-0.8349932432174683,0.0012760460376739502,0.002790123224258423,0.0058002471923828125,0.9578563621906178,0.24525426463174274,-0.14951159883845633,-0.0028392932988570777
1729876090494194000,0.33719384765625,0.017106208950281143,0.015368035063147545,-0.02518579363822937,-0.2850961685180664,-0.47050565481185913,-0.8350716233253479,-0.003752768039703369,0.00575333833694458,-0.010768771171569824,0.9578765873967137,0.2451468782612657,-0.14955664697870555,-0.002891001967515528
1729876090504224000,0.34722412109375,0.0630023255944252,0.0029838038608431816,-0.017146242782473564,-0.2853694558143616,-0.47074154019355774,-0.8348453044891357,-0.003067523241043091,0.012901455163955688,-0.021645665168762207,0.9578174649552103,0.2452830608042674,-0.14971159188708377,-0.002901368656431635
1729876090514255000,0.357255126953125,0.07592006027698517,0.005504059139639139,0.019912708550691605,-0.2856968939304352,-0.4712744653224945,-0.8344326019287109,0.005804836750030518,0.009238213300704956,-0.018304765224456787,0.9577101471635491,0.2456075207945877,-0.1498688037793867,-0.0027785483365219054
1729876090524285200,0.36728515625,0.04541913792490959,0.012440262362360954,0.000593339093029499,-0.285708487033844,-0.4718306362628937,-0.8341142535209656,0.010806083679199219,-0.004396319389343262,-0.011558294296264648,0.9576274672891303,0.2459389571260415,-0.14985624918682647,-0.0026519471112469435
1729876090534316000,0.37731591796875,0.021092360839247704,0.0090962378308177,-0.029196515679359436,-0.28548604249954224,-0.47229036688804626,-0.8339301943778992,0.0031220614910125732,0.00021383166313171387,0.010947465896606445,0.9575791956847757,0.24618450940743208,-0.14976010035392762,-0.002697737517568614
1729876090544345900,0.387345947265625,0.002482991199940443,0.011402801610529423,-0.02830994874238968,-0.28521764278411865,-0.472617506980896,-0.8338367342948914,-0.01481601595878601,0.0033027827739715576,0.03302502632141113,0.9575544521544541,0.2463407140614433,-0.1496592654853271,-0.0028337677320928495
1729876090554377000,0.397376953125,-0.028492368757724762,-0.0003383830189704895,-0.031239956617355347,-0.28500133752822876,-0.47269243001937866,-0.8338682055473328,-0.015139132738113403,-0.004968822002410889,0.03267502784729004,0.957562241937151,0.24635353959493286,-0.14958550665214837,-0.0029906976377920115
1729876090564406800,0.40740673828125,-0.0536765530705452,-0.0033357711508870125,-0.03433028981089592,-0.2848818600177765,-0.4724108874797821,-0.8340685367584229,0.002807825803756714,-0.004182279109954834,0.014686882495880127,0.9576138560756163,0.24616544753745367,-0.1495603841680954,-0.003169274070542458
1729876090574438000,0.41743798828125,-0.10142429918050766,-0.009818757884204388,-0.04088619351387024,-0.2848198711872101,-0.47166818380355835,-0.8345099687576294,0.014128893613815308,-0.003307521343231201,0.00574415922164917,0.9577284306547077,0.24571427384606742,-0.14956444403738195,-0.0033867811504692223
1729876090584468000,0.427468017578125,-0.14377707242965698,-0.004800296388566494,-0.0515630729496479,-0.2846560478210449,-0.470390260219574,-0.8352867364883423,0.0073580145835876465,-0.008476436138153076,-0.003488779067993164,0.9579300166390943,0.24494928673796107,-0.14952079370316868,-0.003684143334745624
1729876090594498800,0.437498779296875,-0.16158723831176758,-0.0038670185022056103,-0.06723124533891678,-0.284274160861969,-0.46904683113098145,-0.8361718058586121,-0.006527930498123169,-0.0075310468673706055,-0.004907846450805664,0.9581592795764736,0.24412564319098845,-0.14938795607679023,-0.0040978002708203076
1729876090604529000,0.44752880859375,-0.1382259875535965,-0.0023407605476677418,-0.0656123086810112,-0.2837759852409363,-0.4680143892765045,-0.8369191884994507,-0.015052229166030884,-0.006076306104660034,-0.010416567325592041,0.9583521488744843,0.24346636678950317,-0.14921304057837298,-0.0045618258933665
1729876090614560000,0.45756005859375,-0.10752733051776886,0.007970466278493404,-0.0713074803352356,-0.2834774851799011,-0.46735283732414246,-0.8373898863792419,-0.009476065635681152,-0.0017787516117095947,-0.02013874053955078,0.9584727852405387,0.243024578232266,-0.14914456847618218,-0.00498824068131327
1729876090624589800,0.46758984375,-0.0827583372592926,-0.002767398953437805,-0.09937001019716263,-0.28350213170051575,-0.46707025170326233,-0.8375392556190491,0.0030455291271209717,0.007505893707275391,-0.028168082237243652,0.9585094402739956,0.24280008136035663,-0.14925985908597422,-0.005419736618648957
1729876090634621000,0.477620849609375,-0.07005205750465393,-0.05069689452648163,-0.11327623575925827,-0.2836616337299347,-0.46714064478874207,-0.8374459743499756,0.01374882459640503,0.017357200384140015,-0.01831263303756714,0.9584817263518072,0.24275435698446457,-0.1494902943532711,-0.005985055011804406
1729876090644651000,0.487651123046875,-0.125727578997612,-0.03621941804885864,-0.1454075425863266,-0.28345733880996704,-0.4669676125049591,-0.8376116156578064,0.013864964246749878,0.018420130014419556,-0.004658222198486328,0.9585198850553344,0.24253586535210112,-0.14956789437693022,-0.006741816565402794
1729876090654681900,0.497681884765625,-0.18235716223716736,-0.0206402987241745,-0.17023804783821106,-0.28278887271881104,-0.46633052825927734,-0.8381922841072083,0.021054834127426147,0.01319018006324768,0.006084859371185303,0.9586642186727672,0.24201945504981046,-0.1494337188214511,-0.00769490735061058
1729876090664712000,0.5077119140625,-0.2438673973083496,-0.019775304943323135,-0.18089601397514343,-0.2819986641407013,-0.46526116132736206,-0.8390523791313171,0.01117032766342163,0.01276165246963501,0.020067453384399414,0.9588794378205386,0.2412446158890833,-0.1492476428135204,-0.008751124312625312
1729876090674743000,0.517742919921875,-0.35852760076522827,-0.037004146724939346,-0.17593242228031158,-0.28145813941955566,-0.4634082317352295,-0.8402584195137024,0.000894695520401001,0.0024706125259399414,0.012102961540222168,0.959182997757597,0.24002882089340816,-0.1491876486633163,-0.009870448477909004
1729876090684772900,0.52777294921875,-0.3917209804058075,-0.05675068870186806,-0.18698933720588684,-0.2812806963920593,-0.4607335925102234,-0.8417872786521912,0.011825650930404663,-0.012197434902191162,-0.0044956207275390625,0.9595686624790424,0.23835580915479468,-0.14930800624242013,-0.011037833289280418
1729876090694804000,0.537803955078125,-0.540415346622467,-0.10046637058258057,-0.195494145154953,-0.28098806738853455,-0.4575072228908539,-0.8436426520347595,0.02374008297920227,-0.02540305256843567,-0.014542102813720703,0.9600345940642051,0.23633788845528994,-0.1494091008844639,-0.012456175822610735
1729876090704834000,0.547833984375,-0.6881664395332336,-0.15886735916137695,-0.020420333370566368,-0.28166043758392334,-0.45232921838760376,-0.8462066650390625,0.019071877002716064,-0.0735650360584259,-0.034530580043792725,0.960686807558634,0.23330208224193152,-0.14988935287701968,-0.013572552871727709
1729876090714865000,0.557864990234375,-0.6662430763244629,-0.15213845670223236,0.10687503963708878,-0.2831040024757385,-0.44633522629737854,-0.8489034175872803,-0.00974273681640625,-0.11907932162284851,-0.015003383159637451,0.9613809445444136,0.22992556384884505,-0.15060720680261827,-0.014086692794055689
1729876090724895000,0.56789501953125,-0.5490829348564148,-0.15952368080615997,0.002831193618476391,-0.2846962809562683,-0.44090521335601807,-0.8512054085731506,0.0045143067836761475,-0.0576910674571991,0.01494753360748291,0.9619749420094349,0.2269022371754888,-0.15136929633763352,-0.014390916614013637
1729876090734926000,0.577926025390625,-0.34823882579803467,-0.11341945081949234,-0.09894444048404694,-0.28569501638412476,-0.4371786415576935,-0.852791428565979,0.06262671947479248,-0.01069745421409607,0.01499241590499878,0.9623753567607968,0.22474266159269432,-0.15197043891869555,-0.015151096935398048
1729876090744957000,0.58795703125,-0.16958090662956238,-0.08464425802230835,-0.10897177457809448,-0.285995751619339,-0.4353067874908447,-0.853647768497467,0.010482966899871826,0.011524349451065063,0.0022836923599243164,0.9625844773791471,0.22358687229013954,-0.15226634263082472,-0.01597295505781685
1729876090754987000,0.597987060546875,-0.037192583084106445,-0.06553474813699722,-0.03741289675235748,-0.28633201122283936,-0.4346737265586853,-0.8538575768470764,0.00111466646194458,0.030315697193145752,-0.008370757102966309,0.9626300440793554,0.22315928125248571,-0.15254885434499596,-0.016499892641039866
1729876090765018000,0.60801806640625,0.05227471515536308,-0.036973677575588226,0.044398076832294464,-0.28678789734840393,-0.43473586440086365,-0.8536729216575623,0.009627193212509155,0.0368017852306366,0.014729499816894531,0.9625818347289178,0.2231960969395886,-0.1527974021741148,-0.016514864410599274
1729876090775048000,0.6180478515625,0.08593973517417908,-0.012179437093436718,0.052102070301771164,-0.28721609711647034,-0.4352246820926666,-0.8532797694206238,0.007415652275085449,0.029783308506011963,0.01265794038772583,0.962484493361864,0.22351415647315465,-0.15297557241564066,-0.01623416416986177
1729876090785079000,0.6280791015625,0.04413050040602684,-0.0012359758839011192,0.022038444876670837,-0.28742581605911255,-0.43571051955223083,-0.8529611825942993,-0.0054666996002197266,0.002406567335128784,0.012873351573944092,0.9624056828373861,0.22382073133777844,-0.15304798725938656,-0.016000924535596896
1729876090795109000,0.638109130859375,-0.022783683612942696,-0.017919879406690598,0.026071801781654358,-0.28755101561546326,-0.4357476830482483,-0.8529000282287598,-0.013840645551681519,-0.027570277452468872,0.01943451166152954,0.9623914204328192,0.22385828354657195,-0.15309300812931853,-0.015902441016815365
1729876090805140000,0.648139892578125,-0.08899465948343277,-0.03255607932806015,0.06992127746343613,-0.28797605633735657,-0.43513697385787964,-0.8530683517456055,-0.00555729866027832,-0.048215776681900024,0.02613365650177002,0.9624375907277873,0.2235510712603041,-0.15326688039453215,-0.015753782759367275
1729876090815170000,0.658170166015625,-0.16252979636192322,-0.02489139512181282,0.10109544545412064,-0.2886026203632355,-0.43380701541900635,-0.8535338640213013,0.013227194547653198,-0.0682072639465332,0.011523425579071045,0.9625630698417673,0.22287273409391437,-0.15349535950439772,-0.015469162077631382
1729876090825201200,0.668201171875,-0.23266787827014923,-0.0046905213966965675,0.07894380390644073,-0.28914201259613037,-0.43183112144470215,-0.8543528318405151,0.012698441743850708,-0.0792621374130249,-0.0044574737548828125,0.9627802118331217,0.22183821052504146,-0.1536599568363972,-0.015190193646171244
1729876090835231000,0.67823095703125,-0.28707846999168396,-0.01620624214410782,0.03613854944705963,-0.28944045305252075,-0.429412305355072,-0.8554702401161194,-0.0036046504974365234,-0.07817140221595764,-0.01728665828704834,0.9630712617072986,0.22052419230385464,-0.15373345054754953,-0.015127777721552495
1729876090845262000,0.688261962890625,-0.31050148606300354,-0.03642895817756653,0.02825319394469261,-0.28979483246803284,-0.42673414945602417,-0.8566895723342896,-0.01573196053504944,-0.05159848928451538,-0.008407413959503174,0.9633860428147686,0.21904194305268457,-0.15386960256185403,-0.01524098457540474
1729876090855292200,0.698292236328125,-0.2936824858188629,-0.0544598326086998,0.04143424332141876,-0.2903181314468384,-0.424023300409317,-0.8578575849533081,-0.0056566596031188965,-0.016726970672607422,-0.008994102478027344,0.9636873460488289,0.21754546890016682,-0.15409465282107915,-0.015353091106065366
1729876090865323000,0.708322998046875,-0.302079439163208,-0.04407057911157608,0.049872204661369324,-0.29096290469169617,-0.4213428199291229,-0.8589591979980469,0.0005575418472290039,-0.002699047327041626,-0.01277536153793335,0.9639721322773489,0.21607733177626778,-0.15437291287003035,-0.015409939582770576
1729876090875352800,0.718352783203125,-0.3457944989204407,-0.03940839320421219,0.05985613167285919,-0.29160359501838684,-0.41864490509033203,-0.8600603342056274,-0.011497050523757935,-0.01084434986114502,-0.016419649124145508,0.9642571284111132,0.21460478868315774,-0.1546434861209682,-0.015443655265909309
1729876090885384200,0.72838427734375,-0.4377899467945099,-0.003058376256376505,0.06680884212255478,-0.2921290695667267,-0.4155699610710144,-0.8613722920417786,-0.03189140558242798,-0.03003254532814026,-0.01226961612701416,0.9645964212833481,0.2129237515875647,-0.15484611056463263,-0.0154959908477191
1729876090895413800,0.738413818359375,-0.6148043274879456,0.04616392403841019,0.05193721875548363,-0.29204556345939636,-0.41136103868484497,-0.863418459892273,-0.04517373442649841,-0.06211930513381958,0.0008697509765625,0.9651245113899175,0.21060912372560756,-0.1547079596939255,-0.01561973388106153
1729876090905444900,0.74844482421875,-0.695847749710083,0.014119172468781471,0.023293323814868927,-0.29169800877571106,-0.40605393052101135,-0.8660441637039185,-0.060688555240631104,-0.07157677412033081,0.04739493131637573,0.9657982581056801,0.20765904639186292,-0.15445272508853955,-0.015993380690823802
1729876090915475000,0.758474853515625,-0.62413489818573,-0.10759741067886353,0.0872936099767685,-0.2921915650367737,-0.40071743726730347,-0.8683603405952454,-0.06042388081550598,-0.050576627254486084,0.07667338848114014,0.9663914836680373,0.20470808884213265,-0.15464292483524952,-0.016363937825302495
1729876090925505800,0.768505859375,-0.45283764600753784,-0.18165405094623566,0.1747765988111496,-0.29404670000076294,-0.3955773711204529,-0.8700891137123108,-0.015111654996871948,-0.03378978371620178,0.024904906749725342,0.9668397193788751,0.20195193436174885,-0.1554697856194952,-0.016296018538956087
1729876090935535900,0.778535888671875,-0.2496526539325714,-0.11663324385881424,0.2313184291124344,-0.2962259352207184,-0.39194247126579285,-0.8709944486618042,0.01850062608718872,-0.035776764154434204,-0.049003660678863525,0.9670831287109902,0.20009681963644102,-0.15640984514961,-0.015734142938110963
1729876090945567000,0.78856689453125,-0.18170689046382904,-0.012897264212369919,0.19815301895141602,-0.2976261377334595,-0.38946524262428284,-0.8716281056404114,0.0022464096546173096,-0.048889368772506714,-0.08674585819244385,0.9672604118334662,0.19891034268578414,-0.15690964427732992,-0.014878114841516743
1729876090955596800,0.7985966796875,-0.2512285113334656,-0.007143185939639807,0.11523550003767014,-0.29825514554977417,-0.3871845304965973,-0.872428834438324,-0.040795207023620605,-0.06856513023376465,-0.06998443603515625,0.96747622325527,0.19777944664572486,-0.15706327719052707,-0.014295806283463235
1729876090965628000,0.8086279296875,-0.40375545620918274,-0.05779704079031944,0.10038704425096512,-0.29892969131469727,-0.38403061032295227,-0.8735911846160889,-0.07181316614151001,-0.06279262900352478,-0.026021182537078857,0.9677797163148689,0.19612001161368942,-0.15729382237679523,-0.014077706402515591
1729876090975658000,0.818657958984375,-0.5663955211639404,-0.11723698675632477,0.11731995642185211,-0.3001386821269989,-0.3794274926185608,-0.8751866221427917,-0.04393184185028076,-0.05239635705947876,0.015231847763061523,0.9681926479055194,0.19366170562263568,-0.15780317365013025,-0.014016857744132116
1729876090985688800,0.828688720703125,-0.7229568958282471,-0.15095527470111847,0.12968342006206512,-0.3017795979976654,-0.3733726739883423,-0.8772240281105042,-0.00826379656791687,-0.039972782135009766,0.060558438301086426,0.9687178739952824,0.19041316476776993,-0.1585270446349601,-0.014065089713370149
1729876090995719000,0.838718994140625,-0.8161022067070007,-0.18521103262901306,0.15407371520996094,-0.30376139283180237,-0.3661014437675476,-0.8796015381813049,0.003285229206085205,-0.019854485988616943,0.06421768665313721,0.9693300328564708,0.18651509960980087,-0.1594094091859,-0.014152413158827705
1729876091005750000,0.84875,-0.8689249157905579,-0.1755826324224472,0.11869973689317703,-0.3058817684650421,-0.35822030901908875,-0.8821080327033997,0.002826869487762451,-0.022318750619888306,0.07189691066741943,0.9699739800699263,0.1822889554013135,-0.16036430682974726,-0.01430875010441537
1729876091015780000,0.858780029296875,-0.9264907240867615,-0.15615007281303406,0.06426126509904861,-0.30766478180885315,-0.34996598958969116,-0.8847972750663757,-0.015211284160614014,-0.03516596555709839,0.07594418525695801,0.9706600022315468,0.17782171638901675,-0.16118563518935072,-0.014756683874554612
1729876091025811000,0.86881103515625,-0.8976494669914246,-0.11577283591032028,0.08576203137636185,-0.30910971760749817,-0.34159815311431885,-0.8875595331192017,-0.046160757541656494,-0.0018315315246582031,0.07530373334884644,0.9713633129554953,0.17328932412483183,-0.1618364660042503,-0.015275856460156742
1729876091035841000,0.878841064453125,-0.8190454244613647,-0.07755636423826218,0.13082458078861237,-0.3103555738925934,-0.3336057960987091,-0.8901609778404236,-0.03575959801673889,0.024554193019866943,0.04015493392944336,0.9720285890515589,0.16901026829361598,-0.1623423393126819,-0.01552332457789118
1729876091045871900,0.888871826171875,-0.7611517310142517,-0.05677119269967079,0.14277498424053192,-0.31138208508491516,-0.32611384987831116,-0.8925754427909851,-0.017353326082229614,0.028780996799468994,0.009702026844024658,0.9726493019576021,0.16504481153625541,-0.16270364885107588,-0.015526404426522504
1729876091055902000,0.89890185546875,-0.7002568244934082,-0.09549200534820557,0.08831280469894409,-0.31239113211631775,-0.3191610872745514,-0.8947334885597229,-0.018877238035202026,0.03035786747932434,-0.008708834648132324,0.973202657429179,0.1613595403567725,-0.16308387920834552,-0.015605487630430783
1729876091065933000,0.90893310546875,-0.5926805734634399,-0.14055375754833221,0.01628362014889717,-0.31364378333091736,-0.3131590485572815,-0.8964145183563232,-0.030594557523727417,0.021426141262054443,-0.03949850797653198,0.9736281946237124,0.1581340320186202,-0.16366541409665256,-0.015982443773618113
1729876091075963100,0.918963134765625,-0.46687766909599304,-0.12182028591632843,-0.04069071635603905,-0.3148268163204193,-0.30846714973449707,-0.8976258039474487,-0.03314995765686035,0.005564838647842407,-0.082003653049469,0.9739290902807267,0.15556388753355713,-0.16427709844814534,-0.016590176804640148
1729876091085994000,0.928993896484375,-0.4283864498138428,-0.0718655064702034,-0.05418016016483307,-0.3155215382575989,-0.3046302795410156,-0.8986915946006775,-0.029983311891555786,-0.007610440254211426,-0.10527563095092773,0.9741909061409636,0.1534319130221681,-0.16465977776331425,-0.017266868306741227
1729876091096024000,0.939024169921875,-0.5789464116096497,0.04532609134912491,-0.05040086805820465,-0.3155612051486969,-0.30038416385650635,-0.9001058340072632,-0.031927287578582764,-0.023056507110595703,-0.08266693353652954,0.9745419722597161,0.15108805363184194,-0.16467994400511105,-0.0179161534777053
1729876091106054400,0.949054443359375,-0.8388392329216003,0.06712140142917633,-0.08718711137771606,-0.31474244594573975,-0.29413142800331116,-0.9024543762207031,-0.03122013807296753,-0.049328774213790894,-0.0351981520652771,0.9751273444266905,0.14764834515981828,-0.16423389563346877,-0.0188132171826657
1729876091116084200,0.959084228515625,-0.881695568561554,0.04973261430859566,0.028946150094270706,-0.31402575969696045,-0.2863406538963318,-0.9052054286003113,-0.041717708110809326,-0.035131633281707764,0.07399821281433105,0.9758156364539031,0.14341860775047452,-0.16379375557090622,-0.01966008780539345
1729876091126115300,0.969115234375,-0.9085836410522461,-0.030360091477632523,0.10057266801595688,-0.31421151757240295,-0.2780316174030304,-0.9077277183532715,0.01642093062400818,-0.01484563946723938,0.06327587366104126,0.9764546986267044,0.13901318356990136,-0.1637421346362857,-0.020005458823143626
1729876091136145400,0.9791455078125,-1.0873109102249146,0.0129004567861557,-0.010254248045384884,-0.3144308924674988,-0.2688271999359131,-0.910420298576355,0.07412013411521912,-0.036226630210876465,0.054463326930999756,0.9771324108446985,0.13411553306134644,-0.16371579935419478,-0.020553714409534504
1729876091146176300,0.98917626953125,-1.3904523849487305,-0.021204782649874687,-0.18944956362247467,-0.31414198875427246,-0.25784146785736084,-0.9136917591094971,0.029351890087127686,-0.05488750338554382,0.09424906969070435,0.9779361086925011,0.12814041429908696,-0.16350586011790422,-0.022064013334771836
1729876091156206300,0.999206298828125,-1.5831595659255981,-0.19429901242256165,-0.2953017055988312,-0.3144088089466095,-0.24480320513248444,-0.9171796441078186,-0.03422406315803528,-0.09250769019126892,0.12273085117340088,0.9787675126737705,0.12094751705863667,-0.16365169736280563,-0.024577220242369035
1729876091166237400,1.009237548828125,-1.3574801683425903,-0.5870353579521179,-0.3938367962837219,-0.3170161843299866,-0.2319898158311844,-0.9196094274520874,-0.0322117805480957,-0.10300172865390778,0.11548656225204468,0.9793043504845464,0.1137754945443558,-0.16507704497746872,-0.027708718836772426
1729876091176267300,1.019267333984375,-0.6915410161018372,-0.9920865297317505,-0.5476492643356323,-0.32346975803375244,-0.22394180297851562,-0.9193570613861084,0.015913575887680054,-0.030498579144477844,0.056442081928253174,0.9791311325279395,0.10896263303531598,-0.16866719073567368,-0.03131727322592287
1729876091186298400,1.02929833984375,-0.03182538226246834,-0.8657421469688416,-0.6230276226997375,-0.33105844259262085,-0.222625270485878,-0.9169723987579346,0.06798160076141357,0.15589848160743713,-0.10411524772644043,0.9783942217272442,0.10756502454523899,-0.1730421313480549,-0.03508761127678557
1729876091196328400,1.039328369140625,0.3913552463054657,-0.25473061203956604,-0.36448636651039124,-0.3351025879383087,-0.22622279822826385,-0.9146198630332947,0.07678648829460144,0.3921772837638855,-0.18827009201049805,0.9776942999428775,0.10891568854541972,-0.1755774414904812,-0.03773347832207943
1729876091206359300,1.049359375,0.14971385896205902,0.1878920942544937,0.06791858375072479,-0.3348926305770874,-0.22969387471675873,-0.9138312935829163,0.012443840503692627,0.42581498622894287,-0.1279166340827942,0.9774756554827114,0.11063508350549894,-0.17562523163279606,-0.03817124563258762
1729876091216389400,1.059389404296875,-0.8468923568725586,0.24165992438793182,0.31695398688316345,-0.33312302827835083,-0.22614148259162903,-0.9153628349304199,-0.057227373123168945,0.22339479625225067,-0.009823262691497803,0.9779010229294529,0.10897086731750068,-0.17448190092357976,-0.037299096288855346
1729876091226420500,1.06942041015625,-2.2473158836364746,-0.012290064245462418,0.3362909257411957,-0.33272165060043335,-0.21086570620536804,-0.9191474318504333,-0.10955443978309631,-0.036082640290260315,0.14043045043945312,0.9788820024510887,0.10115135833697239,-0.17376617933865027,-0.036932442963144615
1729876091236450600,1.079450439453125,-3.497476577758789,-0.21675552427768707,0.3586883842945099,-0.3345779478549957,-0.1828848272562027,-0.9244515895843506,-0.11200112104415894,-0.27739664912223816,0.17480260133743286,0.9802020433693363,0.08657659891766081,-0.17400773793947094,-0.037813570488210504
1729876091246481400,1.0894814453125,-4.160202980041504,-0.20882996916770935,0.3668075501918793,-0.3372478187084198,-0.14560648798942566,-0.9300874471664429,-0.03264057636260986,-0.426888108253479,0.09222739934921265,0.9815721815935231,0.06714892677489893,-0.17449151741724483,-0.03949604730176474
1729876091256511500,1.099511474609375,-4.155602931976318,-0.12492266297340393,0.35422730445861816,-0.33925554156303406,-0.10512769967317581,-0.9348015189170837,0.03301158547401428,-0.41464778780937195,0.07655572891235352,0.9826921674119659,0.046129222441004585,-0.1745604208078423,-0.04143565068153334
1729876091266542300,1.109542236328125,-3.730056047439575,-0.22426043450832367,0.28568392992019653,-0.3411911129951477,-0.06686662882566452,-0.9376126527786255,0.03632041811943054,-0.27666983008384705,0.10742777585983276,0.9833252562406637,0.026303506344856068,-0.17464763052574345,-0.043335333969778914
1729876091276572400,1.119572509765625,-3.1514344215393066,-0.2916494905948639,0.3041132688522339,-0.34369245171546936,-0.03346901759505272,-0.9384856820106506,0.021304666996002197,-0.14261749386787415,0.16248470544815063,0.9834737558330023,0.00900697161768789,-0.17514577175947726,-0.04497047395364451
1729876091286603500,1.129603515625,-3.0200881958007812,-0.40978384017944336,0.3831543028354645,-0.3472224473953247,-0.003983733709901571,-0.9377743601799011,0.0006495118141174316,-0.023619502782821655,0.22496002912521362,0.9832513008207812,-0.006198057268593821,-0.17627936364889552,-0.04587102311309256
1729876091296633300,1.13963330078125,-2.823117256164551,-0.39566677808761597,0.5253242254257202,-0.35105767846107483,0.025790605694055557,-0.9359986186027527,0.019285738468170166,0.05701875686645508,0.13715523481369019,0.9827792801347066,-0.02148895521068837,-0.1775920300310467,-0.04630611496048647
1729876091306664200,1.149664306640625,-2.548283576965332,-0.24766908586025238,0.5687425136566162,-0.3537253439426422,0.05276917293667793,-0.933859646320343,-0.008304804563522339,0.1679643988609314,0.04134255647659302,0.9822555622027512,-0.035192432001704466,-0.1784143490369979,-0.045867249643049585
1729876091316694300,1.1596943359375,-2.3905889987945557,-0.19937846064567566,0.4646182656288147,-0.35556378960609436,0.07782060652971268,-0.9314066767692566,0.0016360878944396973,0.16287145018577576,-0.2359517216682434,0.9816481402376607,-0.047929507909471106,-0.17888384683775085,-0.04550219610352722
1729876091326725000,1.16972509765625,-2.0242462158203125,-0.012537738308310509,0.4851973056793213,-0.35616591572761536,0.10034210234880447,-0.929019570350647,-0.020970404148101807,0.19654807448387146,-0.24380147457122803,0.9810530699128897,-0.05938051629355083,-0.1787852986117651,-0.04521840106966209
1729876091336755200,1.179755126953125,-1.2018954753875732,0.12568756937980652,0.5583482384681702,-0.35503843426704407,0.11746073514223099,-0.9274430871009827,-0.027346879243850708,0.20376722514629364,-0.24937576055526733,0.980701496451813,-0.06789157684372919,-0.17795837695996106,-0.044117073785996073
1729876091346786300,1.189786376953125,-0.16819825768470764,0.3367968797683716,0.5240325927734375,-0.3523130416870117,0.12586723268032074,-0.9273796677589417,-0.025494694709777832,0.1485162377357483,-0.14909738302230835,0.9807741955248291,-0.07174406755239927,-0.17653035886363175,-0.04209536861280253
1729876091356816400,1.19981640625,0.8823310136795044,0.5002615451812744,0.273358017206192,-0.34773576259613037,0.12393946200609207,-0.929364800453186,-0.0648314356803894,0.14215847849845886,-0.13900983333587646,0.9813706445647881,-0.07023826344035594,-0.17431063595218263,-0.03992894507814794
1729876091366847200,1.20984716796875,1.6436022520065308,0.6113584637641907,-0.13029755651950836,-0.3423399031162262,0.11187897622585297,-0.9328914880752563,-0.13097256422042847,0.17309409379959106,-0.08367955684661865,0.9823213530077518,-0.06369650079755547,-0.17174695745913318,-0.03860880327805114
1729876091376877300,1.219877197265625,1.7941277027130127,0.32895466685295105,-0.20082499086856842,-0.33796441555023193,0.0952170267701149,-0.9363299608230591,-0.16647598147392273,0.25379717350006104,0.016194462776184082,0.9832085516435971,-0.05503122432799991,-0.16972502919215712,-0.03828931982209289
1729876091386908400,1.229908447265625,2.322479248046875,0.07474581897258759,0.06377976387739182,-0.33629488945007324,0.07580515742301941,-0.9387009143829346,-0.07080972194671631,0.3226017355918884,0.10598301887512207,0.9838627729875533,-0.04487798211218538,-0.16922034091324054,-0.03694117756991755
1729876091396939300,1.239939208984375,2.8930511474609375,0.08421586453914642,0.06792870163917542,-0.33562538027763367,0.05149339884519577,-0.9405871033668518,0.1176077127456665,0.29207342863082886,0.03429132699966431,0.9844380541326545,-0.03205174266763146,-0.16934917296572513,-0.034285706251374795
1729876091406969300,1.24996923828125,3.2991762161254883,0.214387446641922,-0.0850997269153595,-0.334063857793808,0.022091755643486977,-0.9422914981842041,0.09656071662902832,0.2824888527393341,-0.04067963361740112,0.9849556873862493,-0.016664218830554203,-0.1690459820320236,-0.03175254095878609
1729876091417000200,1.260000244140625,3.7951908111572266,0.09087887406349182,0.04116606339812279,-0.33258503675460815,-0.011391868814826012,-0.9430044889450073,0.01842173933982849,0.3092433512210846,-0.011936306953430176,0.9852232794085665,0.0008229453846748441,-0.16881079894706377,-0.02893860661570529
1729876091427030300,1.2700302734375,3.8629438877105713,0.0037186765111982822,0.130962535738945,-0.3322514295578003,-0.04782826453447342,-0.9419774413108826,0.05626565217971802,0.26349589228630066,0.013007104396820068,0.9850662387905593,0.01995482997686134,-0.1691540497032466,-0.02516819883550917
1729876091437061400,1.280061279296875,3.381910800933838,0.08750832825899124,0.10532720386981964,-0.3318859040737152,-0.08169470727443695,-0.9397753477096558,0.10375168919563293,0.1544942855834961,-0.10642820596694946,0.9845945006458119,0.037791303199567715,-0.16936391881663732,-0.02148180734610624
1729876091447091500,1.290091552734375,2.7574636936187744,0.13388940691947937,0.15055754780769348,-0.3309992253780365,-0.11037111282348633,-0.9371540546417236,0.038121968507766724,0.011158369481563568,0.04611712694168091,0.9839941169567412,0.0529470784368359,-0.1691732067327348,-0.018241310040839162
1729876091457122300,1.300122314453125,1.795357584953308,0.08063534647226334,0.13352316617965698,-0.3299342095851898,-0.1314363330602646,-0.9348090291023254,0.015038520097732544,-0.23440849781036377,0.08873975276947021,0.9834445865023154,0.06415817251201222,-0.16875785612781047,-0.01553798695127561
1729876091467152400,1.31015234375,0.6977448463439941,-0.1207670047879219,0.1231570765376091,-0.33035576343536377,-0.14258220791816711,-0.9330248832702637,0.046877920627593994,-0.44672757387161255,0.18236875534057617,0.9830154024804874,0.07013291296607707,-0.16902350910761008,-0.013899672364911523
1729876091477183200,1.320183349609375,-0.011156388558447361,-0.1415780633687973,0.014891850762069225,-0.3315499424934387,-0.14525796473026276,-0.9321881532669067,0.07573628425598145,-0.513036847114563,0.285291850566864,0.9828110617041654,0.07160548308566082,-0.16964248924059527,-0.013288640955777689
1729876091487213300,1.33021337890625,-0.3601740300655365,-0.24285487830638885,-0.2322297841310501,-0.333240807056427,-0.14367708563804626,-0.9318301677703857,0.10020849108695984,-0.4566342830657959,0.20569497346878052,0.9827100193205638,0.07067064609328509,-0.17055956797096825,-0.014011455908022236
1729876091497244400,1.340244384765625,-0.11324893683195114,-0.5383855104446411,-0.5103343725204468,-0.3362419009208679,-0.14231860637664795,-0.9309601783752441,0.09472569823265076,-0.2572023868560791,0.13364267349243164,0.9824538746706002,0.06957733504720923,-0.1722756912335321,-0.016269139263980784
1729876091507274500,1.3502744140625,0.3071560859680176,-0.4752906858921051,-0.24794723093509674,-0.3407447934150696,-0.14479920268058777,-0.9289382100105286,0.0835273265838623,0.0655602216720581,0.05708158016204834,0.9819010032530199,0.0704519863223815,-0.1748353815490549,-0.018432918263443124
1729876091517305300,1.360305419921875,0.48676344752311707,-0.15147081017494202,0.2010047435760498,-0.3435847759246826,-0.14861811697483063,-0.9272875189781189,0.09630075097084045,0.26046493649482727,-0.004810810089111328,0.981484633533207,0.07243729079974955,-0.17637762506184512,-0.018216410746473385
1729876091527335400,1.37033544921875,0.4033348560333252,0.050135549157857895,0.36935487389564514,-0.3444518744945526,-0.15191487967967987,-0.9264312386512756,0.09741201996803284,0.2413923293352127,0.11281740665435791,0.9812994318179732,0.07446095463812417,-0.17674828977046647,-0.0163449768604935
1729876091537366300,1.3803662109375,-0.03259197250008583,0.10495767742395401,0.4269622266292572,-0.34422364830970764,-0.15240463614463806,-0.9264355897903442,-0.016509443521499634,0.1153104305267334,0.275282084941864,0.9813345090870625,0.07510497015559421,-0.1764693739705131,-0.014162354132242864
1729876091547396400,1.390396240234375,-0.7598053812980652,0.1287602186203003,0.48218581080436707,-0.3438659608364105,-0.14734941720962524,-0.9273857474327087,-0.05055856704711914,-0.10114005208015442,0.3290276527404785,0.9816028664402476,0.07286779160417604,-0.17606078335328876,-0.012197362245333873
1729876091557427500,1.400427490234375,-1.9483760595321655,0.1879650503396988,0.45828473567962646,-0.3430512845516205,-0.13329832255840302,-0.9298104047775269,0.01086735725402832,-0.36105602979660034,0.33293241262435913,0.9822347239138319,0.06589721609887654,-0.17536349837373313,-0.010963686930885532
1729876091567457500,1.41045751953125,-3.2821903228759766,0.18464942276477814,0.3953121602535248,-0.34179210662841797,-0.10744541138410568,-0.9336132407188416,0.059519678354263306,-0.5623697638511658,0.40747493505477905,0.9832006659033585,0.05267216164846145,-0.1744105305353902,-0.011096803813736051
1729876091577488400,1.42048828125,-4.797150611877441,0.1135440245270729,0.3598620295524597,-0.3406008780002594,-0.06837685406208038,-0.9377183318138123,0.07818016409873962,-0.7097299098968506,0.5125932097434998,0.9842242570145044,0.03249410701383623,-0.17345019767734926,-0.01272377010059243
1729876091587518500,1.4305185546875,-6.3271098136901855,-0.32835057377815247,0.2171381711959839,-0.341442346572876,-0.014713004231452942,-0.9397875666618347,0.08764278888702393,-0.7903865575790405,0.574507474899292,0.9847009278400884,0.004641339637291652,-0.17344933586329964,-0.01606331004730758
1729876091597549300,1.44054931640625,-7.037424564361572,-1.0573952198028564,-0.5303624272346497,-0.3483559191226959,0.0484514944255352,-0.9361093044281006,0.10909801721572876,-0.7234699130058289,0.5482309460639954,0.9836416066879216,-0.02865538130957928,-0.176420557738517,-0.022451338644394
1729876091607579100,1.4505791015625,-6.7511796951293945,-0.8250452876091003,-1.5545839071273804,-0.3582085967063904,0.10975301265716553,-0.9271682500839233,0.11354908347129822,-0.3838619589805603,-0.01811373233795166,0.9810416559147707,-0.06215095332652397,-0.1804249079163163,-0.03378784556184866
1729876091617610500,1.460610595703125,-5.1985554695129395,-0.7114297747612,-1.070892572402954,-0.36740365624427795,0.1605638712644577,-0.9160970449447632,-0.05137389898300171,0.26074647903442383,-0.5258737802505493,0.9777113159213123,-0.09077729422151566,-0.18360544368888218,-0.04614270781599208
1729876091627640300,1.470640380859375,-2.6868033409118652,-0.5316143035888672,0.4342001676559448,-0.3736770749092102,0.1960786134004593,-0.9065973162651062,-0.10897374153137207,0.7877012491226196,-0.1436193585395813,0.975031753250506,-0.11029083940479163,-0.18584209950641886,-0.05110663497619957
1729876091637671200,1.480671142578125,-0.6130529046058655,-0.37842002511024475,0.9231187105178833,-0.3761015832424164,0.2131945788860321,-0.9017181992530823,0.11563396453857422,1.0511791706085205,-0.2875670790672302,0.9739151892185277,-0.11876593674050777,-0.18717788166023197,-0.048460108790697946
1729876091647701200,1.490701171875,0.12060163915157318,-0.3280535042285919,0.2995472848415375,-0.37774932384490967,0.21709905564785004,-0.9000963568687439,0.022600919008255005,1.0348845720291138,-0.5361676812171936,0.9736488468844999,-0.12026104439171463,-0.1883854927026464,-0.04534585223213957
1729876091657732400,1.500732421875,-0.027110587805509567,0.03984914347529411,-0.02560364454984665,-0.3790333569049835,0.21694496273994446,-0.8995935916900635,-0.29857906699180603,0.7033277750015259,-0.24292349815368652,0.9735457231042838,-0.12012078266378606,-0.18914068830585037,-0.04478462249457648
1729876091667762200,1.51076220703125,-0.1785619705915451,0.004593684338033199,0.3011241555213928,-0.37816670536994934,0.21814678609371185,-0.8996676802635193,-0.2814403176307678,0.22505992650985718,0.03777498006820679,0.973588431248687,-0.12061343894828365,-0.18872878285390512,-0.04426697893000898
1729876091677793300,1.520793212890625,-0.8868678212165833,-0.3083919882774353,0.3652738332748413,-0.3788067698478699,0.22412092983722687,-0.8979283571243286,-0.02190437912940979,-0.22309866547584534,0.09156239032745361,0.973207234694521,-0.12346608401992519,-0.18918763816056353,-0.042802046960391
1729876091687823400,1.5308232421875,-1.7511287927627563,-0.45606133341789246,-0.00690505700185895,-0.3818741738796234,0.23681123554706573,-0.8933602571487427,0.10997775197029114,-0.3978373408317566,0.05928438901901245,0.9720285349462623,-0.13022929243643785,-0.1906835064618562,-0.042903401267397286
1729876091697854200,1.540854248046875,-1.9431891441345215,-0.3109630048274994,-0.24860821664333344,-0.3858199417591095,0.2532489001750946,-0.8871347308158875,0.007447659969329834,-0.277357816696167,0.04994601011276245,0.9703221135553683,-0.13945447576899958,-0.19231509640387637,-0.04519310229350896
1729876091707884300,1.55088427734375,-1.3160223960876465,-0.09797966480255127,-0.16699326038360596,-0.38815978169441223,0.2671959698200226,-0.8820081353187561,-0.06910043954849243,-0.08514341711997986,-0.033244550228118896,0.9688790677107326,-0.14739854524182494,-0.1930533607505919,-0.047724542200306606
1729876091717915400,1.560915283203125,-0.3384898900985718,0.020469799637794495,-0.036889053881168365,-0.3887127935886383,0.27421197295188904,-0.8796079754829407,-0.05649298429489136,0.0575597882270813,-0.07104510068893433,0.9681974050636543,-0.1513750375781013,-0.19308448361551514,-0.048967832302892596
1729876091727945200,1.5709453125,0.6064779162406921,0.21030418574810028,0.00872556772083044,-0.3877389132976532,0.2728656530380249,-0.8804560303688049,-0.042131781578063965,0.15473133325576782,0.03218948841094971,0.9684160747394265,-0.15062101795121474,-0.19257538986977876,-0.04897293763946897
1729876091737976300,1.580976318359375,1.3189172744750977,0.4260452389717102,0.068996362388134,-0.3848763406276703,0.2644100487232208,-0.8842836022377014,-0.057781219482421875,0.2495974898338318,0.1297975778579712,0.9694492448359228,-0.14585396887292587,-0.19127154629528162,-0.04806255111034833
1729876091748006400,1.59100634765625,2.080150604248047,0.7009807825088501,0.0014511439949274063,-0.3796910345554352,0.24960465729236603,-0.8908042907714844,-0.057809025049209595,0.3152604103088379,0.19271469116210938,0.9711978368830934,-0.13757694429573591,-0.18886622539429435,-0.04665790252547134
1729876091758037200,1.601037353515625,2.7343413829803467,0.6701265573501587,0.003306301310658455,-0.37328043580055237,0.22760461270809174,-0.899365246295929,-0.04491725564002991,0.3244430422782898,0.14252936840057373,0.9734827006964293,-0.1254741808925748,-0.1859397876397093,-0.044878175637634354
1729876091768067300,1.6110673828125,2.8303639888763428,0.43892529606819153,0.17956389486789703,-0.3681047558784485,0.20257003605365753,-0.9074493050575256,-0.015898019075393677,0.3117121458053589,0.1417175531387329,0.9756768405990317,-0.11175683054767871,-0.18380900269701012,-0.04218256184039774
1729876091778098400,1.621098388671875,2.8327767848968506,0.24134139716625214,0.33816471695899963,-0.3645564019680023,0.1776321977376938,-0.9140817523002625,0.09226325154304504,0.31408220529556274,0.13359469175338745,0.9775282881813238,-0.09804278497246471,-0.18261090778075637,-0.03846155004754526
1729876091788128300,1.631128173828125,2.801098108291626,0.20258867740631104,0.29603591561317444,-0.3620271384716034,0.15301327407360077,-0.9195234179496765,0.16497504711151123,0.24344050884246826,-0.048112690448760986,0.9790726748150932,-0.08452101268469132,-0.18191889776178424,-0.03433163796893709
1729876091798159400,1.641159423828125,2.607320785522461,0.14887192845344543,-0.01759978011250496,-0.36021971702575684,0.12850837409496307,-0.9239736795425415,0.15727776288986206,0.07757674157619476,-0.20780116319656372,0.9803131371593625,-0.0713184452760758,-0.1814575444022786,-0.031193099866846968
1729876091808189400,1.651189453125,2.305049419403076,0.09017718583345413,-0.3091495931148529,-0.3591786324977875,0.10498970746994019,-0.9273445010185242,0.0748768150806427,-0.07218338549137115,-0.16805338859558105,0.9812136687324237,-0.059016534412123116,-0.18123130132593326,-0.029867775471045927
1729876091818220300,1.66122021484375,2.1196112632751465,0.02343517728149891,-0.3522645831108093,-0.35897982120513916,0.08317486941814423,-0.9296318888664246,-0.001402348279953003,-0.09278799593448639,-0.050562143325805664,0.9818058671099626,-0.047817169549599726,-0.18137689023263745,-0.02955030872634568
1729876091828250400,1.67125048828125,1.9121181964874268,-0.021308591589331627,-0.2751242518424988,-0.3592778444290161,0.06333784759044647,-0.9310787916183472,0.006830275058746338,-0.00010550767183303833,-0.023678839206695557,0.9821833473394815,-0.0376559677218444,-0.1817763064117349,-0.029245508774461124
1729876091838281500,1.681281494140625,2.0034339427948,-0.008795836009085178,-0.3256707787513733,-0.35945969820022583,0.04416773468255997,-0.9321147799491882,0.03139564394950867,0.12375515699386597,-0.08616524934768677,0.9824566291893547,-0.027839290655349135,-0.182119717076408,-0.0289206894301197
1729876091848311600,1.6913115234375,1.9429347515106201,-0.12660503387451172,-0.34370970726013184,-0.3601650893688202,0.024198096245527267,-0.9325746893882751,0.041500478982925415,0.16514813899993896,-0.17896699905395508,0.982577462969066,-0.017668722950412993,-0.18275794950225396,-0.028791311256045695
1729876091858342400,1.70134228515625,1.6653186082839966,-0.2609720528125763,-0.24442945420742035,-0.36203861236572266,0.006238351110368967,-0.9321422576904297,0.040703654289245605,0.1276727020740509,-0.1277484893798828,0.9824737648790576,-0.00852610690418833,-0.18400051748631543,-0.028573293867883508
1729876091868372500,1.71137255859375,1.1497044563293457,-0.24400638043880463,-0.1700148731470108,-0.3645778298377991,-0.007896081544458866,-0.9311394691467285,0.06935068964958191,-0.005440182983875275,-0.06377935409545898,0.9822273262435846,-0.0013212925951071254,-0.18554926511539413,-0.028272007704389854
1729876091878403300,1.7214033203125,0.6085624098777771,-0.2201746702194214,-0.06444264948368073,-0.36659130454063416,-0.01642431691288948,-0.9302371144294739,0.03953436017036438,-0.1798037886619568,-0.05487024784088135,0.9820045477048963,0.003032149085638035,-0.18674114498507646,-0.028031175473101234
1729876091888433400,1.731433349609375,-0.004286032170057297,-0.19429460167884827,-0.038397736847400665,-0.3685786724090576,-0.019562825560569763,-0.9293906688690186,0.009493529796600342,-0.3327474296092987,0.02813035249710083,0.9817914211045853,0.00461596471880067,-0.18783861561392076,-0.02794685329861268
1729876091898464500,1.741464599609375,-0.9801241159439087,-0.15984366834163666,-0.01645222306251526,-0.37012138962745667,-0.01534617692232132,-0.928856611251831,-0.0030018389225006104,-0.49303099513053894,0.07477647066116333,0.9816374954881495,0.00232803467917661,-0.1885901953472671,-0.028568836790821197
1729876091908494300,1.751494384765625,-2.3552873134613037,-0.2691619098186493,0.14691300690174103,-0.37209609150886536,0.00021397577074822038,-0.9281941652297974,-0.012471258640289307,-0.5965275168418884,0.18980616331100464,0.9814319320262791,-0.005860848533690863,-0.18938996749638362,-0.029806415250358126
1729876091918525400,1.761525390625,-4.0138397216796875,-0.5077401995658875,0.038445379585027695,-0.37552767992019653,0.030192920938134193,-0.9263192415237427,0.04822656512260437,-0.685161292552948,0.33044832944869995,0.9808788606278993,-0.02165015729522189,-0.19071349983174116,-0.03219342824760544
1729876091928555300,1.77155517578125,-5.524991035461426,-0.7520341277122498,-0.6321247220039368,-0.3817065358161926,0.07365953922271729,-0.9213438034057617,0.08107781410217285,-0.7426049113273621,0.358187735080719,0.979401267938904,-0.04510040732472087,-0.19311667118867465,-0.0380165417287174
1729876091938586000,1.781586181640625,-6.3059210777282715,-0.6419506669044495,-1.154279351234436,-0.38925671577453613,0.12496383488178253,-0.9126134514808655,0.01089969277381897,-0.5983983278274536,0.18612724542617798,0.9767150164503619,-0.07364912431866784,-0.19562486305067905,-0.04831843431126654
1729876091948616200,1.7916162109375,-5.88612174987793,-0.56524658203125,-0.4826523959636688,-0.3958253860473633,0.17778456211090088,-0.9009522795677185,-0.027850240468978882,-0.15259234607219696,0.044827401638031006,0.973170160695791,-0.10318503861629293,-0.19717180113940166,-0.05844812661599384
1729876091958647300,1.801647216796875,-4.31650447845459,-0.853870689868927,0.2271505892276764,-0.4021873474121094,0.22367167472839355,-0.887815535068512,0.1765402853488922,0.28928297758102417,0.04730039834976196,0.969470596088548,-0.1283970776037618,-0.19901366019836073,-0.06352002068531798
1729876091968677400,1.811677490234375,-2.924654960632324,-1.0868041515350342,0.10836507380008698,-0.4104190766811371,0.25595518946647644,-0.8752388954162598,0.3703494369983673,0.4318956732749939,-0.14185088872909546,0.9660958210757592,-0.14617999635287987,-0.20251408723119976,-0.06540924010826812
1729876091978708200,1.821708251953125,-2.4631507396698,-1.0420100688934326,-0.13293781876564026,-0.41987037658691406,0.2789999842643738,-0.8636364340782166,0.1831302046775818,0.35887837409973145,-0.22271305322647095,0.9629476619700994,-0.15935758980376932,-0.20685004046802266,-0.06745478320055391
1729876091988739300,1.8317392578125,-2.2156178951263428,-0.934749186038971,-0.08271140605211258,-0.42872047424316406,0.29849761724472046,-0.8527003526687622,-0.03636747598648071,0.21552512049674988,-0.13101845979690552,0.9599468340772183,-0.17078079318210018,-0.21091168274130845,-0.06965795362772832
1729876091998769400,1.841769287109375,-2.355520486831665,-0.8398569226264954,0.039165496826171875,-0.4362848699092865,0.3176617920398712,-0.8418708443641663,-0.06641602516174316,-0.04445323348045349,-0.08760297298431396,0.9569968296010583,-0.1819540756163527,-0.21437649888352975,-0.07136311973507685
1729876092008800300,1.85180029296875,-2.5743942260742188,-0.702258288860321,0.04516533389687538,-0.44260814785957336,0.3386498987674713,-0.8303098082542419,-0.06923279166221619,-0.2670251727104187,-0.05183130502700806,0.9538422075812137,-0.1941544243005053,-0.21713856973487436,-0.07307657025725697
1729876092018830300,1.861830322265625,-2.6965065002441406,-0.6286826133728027,0.06019701063632965,-0.44787678122520447,0.36055198311805725,-0.8181740045547485,-0.1093132495880127,-0.309129923582077,0.025846123695373535,0.9505020659801655,-0.2069769118826982,-0.21925681446464967,-0.0750534766442024
1729876092028861200,1.871861083984375,-2.917314052581787,-0.47950220108032227,0.012027089484035969,-0.4522380828857422,0.3836376368999481,-0.8051726222038269,-0.13685807585716248,-0.211259126663208,0.033764541149139404,0.9468925665237242,-0.2206095333873161,-0.22078296657164487,-0.07733708053832192
1729876092038891300,1.881891357421875,-2.711251735687256,-0.42953890562057495,0.028476368635892868,-0.4557987153530121,0.406616747379303,-0.791776716709137,-0.10056734085083008,-0.027466416358947754,-0.04480165243148804,0.9431339544753699,-0.23435965541179146,-0.22178185331617542,-0.07991714390945774
1729876092048922400,1.89192236328125,-2.0928237438201904,-0.48370441794395447,0.04875713959336281,-0.4592001140117645,0.4257602393627167,-0.7796560525894165,-0.04345500469207764,0.10794639587402344,0.006600022315979004,0.939745745941045,-0.24595240979323382,-0.22288873672807227,-0.08189109932477374
1729876092058952400,1.901952392578125,-1.5242952108383179,-0.44417789578437805,0.06603892147541046,-0.46260491013526917,0.4400400221347809,-0.7696502804756165,0.011173516511917114,0.16869410872459412,0.12092286348342896,0.9369798126772164,-0.25469388926488545,-0.22428970973362258,-0.08303112763335216
1729876092068983300,1.9119833984375,-1.1010979413986206,-0.32174625992774963,0.07598289847373962,-0.46532103419303894,0.4504559338092804,-0.7619487643241882,-0.00530591607093811,0.2538744807243347,0.10568350553512573,0.9348646160042495,-0.2611054981403421,-0.2254984119913842,-0.08368274262320785
1729876092079013400,1.922013427734375,-0.576756477355957,-0.08497198671102524,0.009663001634180546,-0.4666486382484436,0.45717763900756836,-0.7571180462837219,-0.08414795994758606,0.34094855189323425,0.13230115175247192,0.9335316752712955,-0.2652346214684255,-0.2260344754709099,-0.08412922266152177
1729876092089044200,1.932044189453125,0.056740302592515945,0.1826101839542389,-0.1363658308982849,-0.4665602445602417,0.45892080664634705,-0.7561172246932983,-0.16532155871391296,0.39007818698883057,0.07893216609954834,0.9332055857620749,-0.26639333737570964,-0.22577858864466427,-0.0847704490164124
1729876092099075600,1.94207568359375,0.7163267135620117,0.4156118333339691,-0.26444417238235474,-0.46520745754241943,0.4552196264266968,-0.7591819167137146,-0.23648333549499512,0.42280158400535583,0.0809440016746521,0.9339407105670736,-0.2643386823788045,-0.22479793627073316,-0.08570738881139554
1729876092109106400,1.9521064453125,1.9902061223983765,0.6985892057418823,-0.33239632844924927,-0.46231842041015625,0.4436538815498352,-0.767745316028595,-0.23160558938980103,0.50800621509552,0.10865724086761475,0.9361698868516425,-0.2575386154630521,-0.22316181347809855,-0.08636312746354281
1729876092119136500,1.962136474609375,3.465336322784424,0.9386743307113647,-0.39931464195251465,-0.4574859142303467,0.4207598865032196,-0.7833695411682129,-0.17863783240318298,0.6089184284210205,0.10520792007446289,0.940358732917511,-0.24394675340981456,-0.22091902212587675,-0.08608362145251451
1729876092129167600,1.972167724609375,5.038374900817871,1.2229950428009033,-0.47462376952171326,-0.45067811012268066,0.3849973678588867,-0.8053982257843018,-0.1434076726436615,0.738583505153656,0.17482876777648926,0.9463182480143028,-0.22295412886427898,-0.218156672229326,-0.08474126614044396
1729876092139197700,1.98219775390625,6.757725238800049,1.3285716772079468,-0.39361122250556946,-0.4416179955005646,0.334377259016037,-0.8325656056404114,-0.13261613249778748,0.8923072814941406,0.2867434620857239,0.9537214784396856,-0.19374264958415807,-0.21489762774765903,-0.08184314434391585
1729876092149228500,1.992228515625,7.667482376098633,0.953260064125061,-0.11434523016214371,-0.4323951005935669,0.2715115249156952,-0.8598348498344421,-0.11293885111808777,0.9775424003601074,0.30157679319381714,0.96129906339873,-0.15807603500806036,-0.21235474620206962,-0.07629958398544445
1729876092159258600,2.002258544921875,7.788059234619141,0.27774906158447266,0.12421620637178421,-0.42704394459724426,0.20358867943286896,-0.8810136914253235,-0.008167356252670288,0.8989198207855225,0.29538142681121826,0.9673793559429466,-0.12024082437410145,-0.21221519931444177,-0.06844067325772368
1729876092169289500,2.01228955078125,7.460916042327881,0.20696917176246643,0.38140273094177246,-0.4250005781650543,0.13698498904705048,-0.8947679400444031,0.14318591356277466,0.46756815910339355,0.11051195859909058,0.9715415642857144,-0.08349188018019177,-0.21364724246620512,-0.05908493611318643
1729876092179319600,2.022319580078125,5.726510047912598,0.10857617110013962,0.2045331597328186,-0.42292657494544983,0.07651405036449432,-0.9029278755187988,0.31132370233535767,-0.2942723035812378,-0.26320981979370117,0.9741311993730188,-0.05035263676278154,-0.21447770695159876,-0.05032246784314385
1729876092189350700,2.0323505859375,1.9493168592453003,-0.17883723974227905,-0.19565632939338684,-0.42295050621032715,0.042366307228803635,-0.9051618576049805,0.2994763255119324,-1.0719531774520874,-0.17136090993881226,0.97490734176906,-0.031941319810123665,-0.21540387940463782,-0.04622327476999031
1729876092199380700,2.042380615234375,0.13819429278373718,-0.246956467628479,-0.4628387689590454,-0.4256787598133087,0.032752763479948044,-0.9042813777923584,0.22929808497428894,-1.5279921293258667,0.6863859295845032,0.9746512863195723,-0.027237955250363162,-0.21706541340038507,-0.04685742129523315
1729876092209411600,2.05241162109375,-0.1944073736667633,0.4415617287158966,-0.7201762795448303,-0.42492908239364624,0.030965978279709816,-0.9046968817710876,0.09688028693199158,-1.453787088394165,0.6084474921226501,0.9746096387942429,-0.026965173615528967,-0.21662051913495017,-0.049845365854981366
1729876092219441700,2.062441650390625,0.3423299789428711,0.80680251121521,-0.6677314639091492,-0.419224351644516,0.027560319751501083,-0.9074642658233643,-0.17347285151481628,-0.519610583782196,0.12162137031555176,0.9751286151499504,-0.02583556594706512,-0.21354249072369874,-0.05344528807463455
1729876092229472500,2.072472412109375,1.0944042205810547,0.6446689963340759,-0.02427099645137787,-0.41258400678634644,0.019655441865324974,-0.9107074737548828,-0.3347610533237457,0.5157296061515808,0.12076002359390259,0.9758932434622062,-0.021839102029075932,-0.210164956751385,-0.05464712903600749
1729876092239502600,2.082502685546875,2.993131637573242,0.6966691017150879,0.1533362865447998,-0.40635600686073303,0.0019853280391544104,-0.9137126803398132,-0.13577356934547424,0.9537488222122192,-0.07868838310241699,0.9768085723135219,-0.012050159128018444,-0.20736066279752477,-0.05197723874977633
1729876092249533700,2.09253369140625,3.8932716846466064,0.43393391370773315,-0.28963503241539,-0.4009948968887329,-0.03106442093849182,-0.9155534505844116,0.14107662439346313,0.6596806645393372,-0.4688459038734436,0.977451780332013,0.005671460874551853,-0.20540475521516147,-0.048629015507924
1729876092259563800,2.102563720703125,3.718815565109253,0.06420646607875824,-0.3425951600074768,-0.39856207370758057,-0.06758196651935577,-0.9146479964256287,0.12510928511619568,0.2147986739873886,-0.5690555572509766,0.9773306756326229,0.02484775721503676,-0.2050819216119835,-0.046354681918514405
1729876092269594600,2.1125947265625,2.8861892223358154,-0.09758350253105164,-0.2564331293106079,-0.39867767691612244,-0.0993831679224968,-0.9116902947425842,0.16837665438652039,-0.048672959208488464,-0.11099952459335327,0.9766672051500579,0.04152594527863056,-0.2059865574558519,-0.0443453865642539
1729876092279624700,2.122624755859375,1.6729670763015747,0.054340947419404984,-0.2610260248184204,-0.3988303542137146,-0.12119444459676743,-0.9089809060096741,0.11571872234344482,-0.24631358683109283,0.06663477420806885,0.9760226512253751,0.05292853582299993,-0.2066594180545257,-0.0432488085428135
1729876092289655800,2.13265576171875,0.9698091745376587,0.43361422419548035,-0.428690642118454,-0.3960643708705902,-0.13429376482963562,-0.9083491563796997,-0.10868120193481445,-0.32482802867889404,0.20693320035934448,0.9758501055224922,0.05964645589678732,-0.20559112773797134,-0.04348866642715284
1729876092299685600,2.142685546875,0.6388713717460632,0.6536294221878052,-0.5983627438545227,-0.39018815755844116,-0.1434856653213501,-0.9094861745834351,-0.2598973512649536,-0.34658095240592957,0.24536269903182983,0.976069922499247,0.06413728007565392,-0.20283818244799234,-0.045062345057388806
1729876092309716700,2.152716796875,0.5050097107887268,0.556822657585144,-0.5024948120117188,-0.38366469740867615,-0.1508987993001938,-0.9110603332519531,-0.19665765762329102,-0.24056553840637207,0.1029549241065979,0.9763781681580257,0.06764522643300336,-0.19973470621520556,-0.04707281613781823
1729876092319746800,2.162746826171875,0.33602192997932434,0.14342597126960754,-0.18312722444534302,-0.3799130916595459,-0.15593725442886353,-0.911783754825592,0.041412025690078735,-0.06594090163707733,0.11147558689117432,0.9765066356281071,0.07006464527220617,-0.19798754245170194,-0.04823554870440647
1729876092329777700,2.172777587890625,0.21515943109989166,-0.16407352685928345,-0.00932746846228838,-0.37994006276130676,-0.15897932648658752,-0.9112470149993896,0.2683219313621521,-0.03816431760787964,0.19824963808059692,0.9763644340320118,0.0716067196659329,-0.1981135212380531,-0.04833294679083219
1729876092339807700,2.182807861328125,-0.5633253455162048,-0.37220925092697144,0.021586503833532333,-0.38246646523475647,-0.15776747465133667,-0.910400390625,0.3020220696926117,-0.2720727324485779,0.190338134765625,0.9761373410445913,0.07089490208657491,-0.19943351533162912,-0.048540365936671104
1729876092349838800,2.1928388671875,-1.7143073081970215,-0.3774237036705017,0.1349698007106781,-0.38613203167915344,-0.14717218279838562,-0.9106274843215942,0.15842503309249878,-0.534605860710144,0.291944682598114,0.9761501572130286,0.0651985184213833,-0.20108557204755334,-0.04944434590738021
1729876092359868400,2.202868408203125,-3.010697603225708,-0.29400068521499634,0.17947255074977875,-0.3893997371196747,-0.1250169724225998,-0.9125451445579529,0.03701317310333252,-0.7151320576667786,0.34224796295166016,0.9765557488105965,0.053429212431099375,-0.2021700947383708,-0.051104887260217
1729876092369899800,2.212899658203125,-4.430379390716553,-0.4108348786830902,0.10211756825447083,-0.39268743991851807,-0.09034867584705353,-0.9152233004570007,-0.05624145269393921,-0.8311907052993774,0.2891552448272705,0.9770723423438987,0.03497235857313867,-0.20289228535637746,-0.05423474837551002
1729876092379929600,2.2229296875,-5.6372880935668945,-0.6179593801498413,-0.1520148366689682,-0.397465318441391,-0.04373587667942047,-0.9165743589401245,-0.11753413081169128,-0.846141517162323,0.332025408744812,0.9771131162200224,0.009963427141028776,-0.2039940261583524,-0.05947499073729302
1729876092389960400,2.23296044921875,-6.028255939483643,-0.5372021794319153,-0.7133306264877319,-0.40294182300567627,0.008484737947583199,-0.9151862859725952,-0.0984925627708435,-0.7273569107055664,0.2506355047225952,0.9762245790378749,-0.018561561357682894,-0.20509103832039693,-0.06766694165911659
1729876092399990500,2.242990478515625,-5.8785881996154785,-0.35085856914520264,-0.3741395175457001,-0.4070740342140198,0.06090672314167023,-0.9113622307777405,-0.12258914113044739,-0.3207029402256012,-0.0052637457847595215,0.9745704508092166,-0.04740545308091701,-0.20511364352211273,-0.0767700875842935
1729876092410021600,2.253021728515625,-4.493366241455078,-0.5352928638458252,0.23398958146572113,-0.410959392786026,0.10902677476406097,-0.905110776424408,-0.07248488068580627,0.40453821420669556,-0.0003457069396972656,0.972521274289883,-0.07338898746353935,-0.20508208306430295,-0.08220593025805999
1729876092420051500,2.263051513671875,-2.3012866973876953,-0.7437742948532104,-0.05455779656767845,-0.4167059063911438,0.14007212221622467,-0.8981848359107971,0.16354721784591675,0.9008976221084595,-0.028771281242370605,0.9705182685676963,-0.0902278023549044,-0.2068006637896161,-0.08477570546119717
1729876092430082600,2.27308251953125,-1.425006628036499,-0.6912567615509033,-0.2843981683254242,-0.42354023456573486,0.15505540370941162,-0.8925085663795471,0.1230488121509552,0.7860303521156311,-0.2733391523361206,0.9688305052948339,-0.0989158784572751,-0.20966964590277992,-0.08730409644909354
1729876092440112600,2.283112548828125,-1.4029461145401,-0.628221869468689,-0.033093515783548355,-0.4296119809150696,0.16674470901489258,-0.8874850869178772,0.012497633695602417,0.49560874700546265,-0.1536526083946228,0.9673570283511163,-0.10576964749328023,-0.2122975072967572,-0.08923635269357887
1729876092450143500,2.2931435546875,-1.7597819566726685,-0.5554842948913574,-0.06914553046226501,-0.4349181652069092,0.18042509257793427,-0.8822091817855835,0.07253709435462952,0.10473109781742096,0.132590651512146,0.9658580756257689,-0.11353863924367312,-0.2144863534916032,-0.09068019098967622
1729876092460173600,2.303173583984375,-2.250750780105591,-0.45712360739707947,-0.28412359952926636,-0.4395809769630432,0.1973552405834198,-0.8762531280517578,0.06862446665763855,-0.4215374290943146,0.1894092559814453,0.964049805054722,-0.1233006538939963,-0.21603332107207668,-0.09345943087973602
1729876092470204700,2.31320458984375,-2.8040874004364014,-0.49255698919296265,-0.20293287932872772,-0.4443923830986023,0.2183472216129303,-0.8688152432441711,-0.0063523054122924805,-0.6954896450042725,0.18384826183319092,0.9617576554012205,-0.13546085083524426,-0.21735393053299168,-0.09710842078974041
1729876092480234500,2.323234375,-3.1405839920043945,-0.49807560443878174,-0.17098453640937805,-0.448947012424469,0.2435280978679657,-0.8597329258918762,0.05188268423080444,-0.5580881237983704,0.09741908311843872,0.9590021293656589,-0.14993771548480944,-0.2182939002935102,-0.10090312344300491
1729876092490265600,2.333265625,-3.0286920070648193,-0.7675579190254211,-0.1891494244337082,-0.4546736180782318,0.26926031708717346,-0.8489822149276733,0.10312631726264954,-0.22052383422851562,-0.0029616951942443848,0.9557867495089772,-0.16493478885153684,-0.21978489718830313,-0.1047038691600124
1729876092500295700,2.343295654296875,-2.742683172225952,-1.0684106349945068,-0.0975811630487442,-0.4630279839038849,0.2930210530757904,-0.8365069031715393,0.13481134176254272,0.01188001036643982,-0.1109876036643982,0.9521702329695959,-0.1791064608706706,-0.22286188908045643,-0.10782153294985458
1729876092510326500,2.353326416015625,-2.391329765319824,-1.0208953619003296,-0.06970692425966263,-0.4720371961593628,0.3141401708126068,-0.82370924949646,0.17633703351020813,0.12140664458274841,-0.18585801124572754,0.948546398334402,-0.19187910195930002,-0.22655639046125778,-0.11006594747959252
1729876092520356600,2.363356689453125,-2.236992359161377,-0.9327521920204163,-0.17902301251888275,-0.48050886392593384,0.3322354257106781,-0.8116223812103271,0.07293128967285156,0.14013084769248962,-0.14693468809127808,0.9450920204315374,-0.20310871014001,-0.23007753226505773,-0.11230434834201493
1729876092530387700,2.3733876953125,-2.051525831222534,-0.6327324509620667,-0.31205058097839355,-0.487734854221344,0.3486093580722809,-0.8003663420677185,-0.09939292073249817,0.12616777420043945,0.035717904567718506,0.9417645129057085,-0.21355531068640426,-0.23283246161698384,-0.11516490168440946
1729876092540417800,2.383417724609375,-1.4753453731536865,-0.34935006499290466,-0.4434163272380829,-0.49293404817581177,0.3609902560710907,-0.7916452288627625,-0.1704724133014679,0.14984342455863953,0.15988558530807495,0.939033115427933,-0.22180108202856835,-0.23448172384812396,-0.11848868824596367
1729876092550448600,2.39344873046875,-1.0439668893814087,-0.27810996770858765,-0.5759421586990356,-0.4971894919872284,0.3679828643798828,-0.7857425212860107,-0.16424858570098877,0.1710948348045349,0.09702181816101074,0.9370032424332718,-0.2270670513246989,-0.23573142785460655,-0.12205043959358282
1729876092560478700,2.403478759765625,-0.6180392503738403,-0.13049808144569397,-0.4634065330028534,-0.5008327960968018,0.3720904588699341,-0.7814827561378479,-0.10712319612503052,0.23479729890823364,0.0987282395362854,0.9354412027611531,-0.23059749805360238,-0.23681938332650956,-0.12526496093360798
1729876092570509600,2.413509521484375,-0.37366172671318054,-0.008080565370619297,-0.5364817976951599,-0.5031703114509583,0.37339043617248535,-0.7793582677841187,0.003353297710418701,0.3220135569572449,0.08039891719818115,0.9345034510107999,-0.23229590476321338,-0.23740151073383142,-0.12799456323841224
1729876092580539600,2.42353955078125,-0.2889300286769867,0.016996026039123535,-0.578460693359375,-0.5051695108413696,0.37307238578796387,-0.7782164216041565,0.03138399124145508,0.32013437151908875,-0.03332221508026123,0.9337608735868971,-0.23316100898356557,-0.2377555970508507,-0.13114491086800256
1729876092590570800,2.43357080078125,-0.23845192790031433,-0.09462105482816696,-0.39805763959884644,-0.5073105692863464,0.3725445568561554,-0.7770756483078003,0.01454317569732666,0.23797476291656494,-0.007165014743804932,0.9330965825385621,-0.23377392730705351,-0.2383525358154294,-0.13367331395639695
1729876092600600800,2.443600830078125,-0.28415414690971375,-0.011745447292923927,-0.44595006108283997,-0.5093873739242554,0.37254127860069275,-0.7757173776626587,0.09025895595550537,0.1337910294532776,0.022482573986053467,0.9324274292537073,-0.23457296500699748,-0.23899126923757746,-0.1357858024040982
1729876092610631700,2.453631591796875,-0.1279669553041458,0.1787874698638916,-0.5899229645729065,-0.5106325745582581,0.3716296851634979,-0.7753359079360962,0.06127643585205078,0.0737743079662323,-0.05939614772796631,0.9319075543140763,-0.23494709851154277,-0.23902279250157502,-0.13862331608394635
1729876092620661800,2.463661865234375,0.35422852635383606,0.2753961384296417,-0.6128950715065002,-0.511092483997345,0.36779412627220154,-0.7768602967262268,-0.041733503341674805,0.09128174185752869,-0.07834899425506592,0.9318686875481275,-0.23361837338362063,-0.23873059704446417,-0.14160138176777193
1729876092630692600,2.473692626953125,0.9953815937042236,0.4290807843208313,-0.6201854944229126,-0.510600209236145,0.35945796966552734,-0.7810745239257812,-0.025624215602874756,0.15952390432357788,-0.01468658447265625,0.9326217034046517,-0.22952246519779385,-0.23829013897442,-0.1440623705501104
1729876092640722700,2.48372265625,1.8169037103652954,0.552984893321991,-0.6261962652206421,-0.5089015960693359,0.34523558616638184,-0.7885630130767822,0.008871018886566162,0.2336675524711609,-0.008250951766967773,0.9343430615090158,-0.22186169749715304,-0.2376885958010875,-0.1458932027567935
1729876092650753800,2.49375390625,2.707759141921997,0.7182750701904297,-0.5518946051597595,-0.5058775544166565,0.32421696186065674,-0.7993568181991577,0.009020805358886719,0.2935808598995209,-0.017217278480529785,0.9371066484992441,-0.21008549682680042,-0.2370351748172251,-0.14666195413893549
1729876092660783600,2.50378369140625,3.5953540802001953,0.7884013056755066,-0.4849129021167755,-0.5012770891189575,0.2961377799510956,-0.8130336999893188,0.011439383029937744,0.35501572489738464,0.03782618045806885,0.9408310394952678,-0.19407648377326975,-0.23625723504505963,-0.14613009476516914
1729876092670814700,2.513814697265625,4.266646385192871,0.6552861332893372,-0.4747247099876404,-0.4966040551662445,0.26119792461395264,-0.8277440071105957,-0.0006799697875976562,0.3792896866798401,0.1378026008605957,0.9450017756715802,-0.1742745402575256,-0.23612789790501454,-0.14437422276452117
1729876092680844500,2.523844482421875,4.535833358764648,0.5261498093605042,-0.5013148188591003,-0.4927937686443329,0.22169286012649536,-0.8414312601089478,0.03248181939125061,0.304781049489975,0.12716740369796753,0.9489849418009835,-0.15223157889864794,-0.236875292458469,-0.14192719421762204
1729876092690875600,2.533875732421875,4.257019996643066,0.2112450748682022,-0.4126003682613373,-0.49049219489097595,0.18179994821548462,-0.8522711992263794,0.10653522610664368,0.1353081315755844,0.031256794929504395,0.9522473214803531,-0.13030874249189153,-0.23850371619641567,-0.1391432320559607
1729876092700905500,2.543905517578125,3.421556234359741,-0.11759310960769653,-0.2766750156879425,-0.49075809121131897,0.14687186479568481,-0.8588278293609619,0.1881762146949768,-0.09462584555149078,0.011705636978149414,0.9544006007723903,-0.11135271603788412,-0.2412191163899203,-0.13613832496019454
1729876092710936600,2.5539365234375,2.173192262649536,-0.21058909595012665,-0.2527824640274048,-0.4926448166370392,0.12141074240207672,-0.8617194890975952,0.2386774718761444,-0.3315701484680176,-0.01653057336807251,0.9554805241827022,-0.09773108537668894,-0.24410832821530115,-0.13385359926279555
1729876092720966700,2.563966552734375,1.0446192026138306,-0.19232012331485748,-0.23561066389083862,-0.49467733502388,0.10648741573095322,-0.8625281453132629,0.14927929639816284,-0.4980127811431885,-0.022267937660217285,0.9558108504697977,-0.08997202194896188,-0.24625385091191473,-0.1330031072590777
1729876092730997500,2.57399755859375,0.4737708270549774,-0.06129340082406998,-0.2574065029621124,-0.49606993794441223,0.098977230489254,-0.862622857093811,-0.004815161228179932,-0.5348141193389893,-0.015337347984313965,0.9558143071953317,-0.08625390848273798,-0.2474850394898616,-0.13315594335417436
1729876092741027600,2.584027587890625,0.37222182750701904,0.12760674953460693,-0.36279550194740295,-0.4960324764251709,0.09431419521570206,-0.8631666302680969,-0.10951262712478638,-0.3973080515861511,-0.0602799654006958,0.9558134569090689,-0.08410626018334029,-0.2476748280202048,-0.13417914634707595
1729876092751058700,2.59405859375,0.9854242205619812,0.2131538689136505,-0.4210532307624817,-0.49479207396507263,0.08635729551315308,-0.8647099137306213,-0.15759751200675964,-0.11022212356328964,-0.07811534404754639,0.9560524571092217,-0.08018970648169393,-0.2474159483058242,-0.1353466499254645
1729876092761088500,2.604088623046875,1.4404277801513672,0.18541012704372406,-0.3472599685192108,-0.49338996410369873,0.07398445904254913,-0.8666560053825378,-0.09906309843063354,0.1424613893032074,-0.16581463813781738,0.9565046310302479,-0.0737909671284337,-0.24744065283990066,-0.1357463832341352
1729876092771119600,2.61411962890625,1.9165204763412476,0.12662562727928162,-0.3342110216617584,-0.49219009280204773,0.05767872557044029,-0.8685747385025024,-0.011212706565856934,0.35809266567230225,-0.05946475267410278,0.9570632430177755,-0.06519201327869721,-0.2479165575372523,-0.13534197540990225
1729876092781149700,2.624149658203125,2.244840383529663,0.008135369047522545,-0.3020778298377991,-0.4916377663612366,0.03771461546421051,-0.8699827194213867,0.02751109004020691,0.41589856147766113,-0.059216439723968506,0.9575799893206159,-0.05461745269743022,-0.24904931892280782,-0.1342837320912787
1729876092791180500,2.6341806640625,2.3951661586761475,0.06591051816940308,-0.28145086765289307,-0.4916294813156128,0.016259079799056053,-0.8706526756286621,0.040762752294540405,0.26222899556159973,-0.15321201086044312,0.9579640223290286,-0.043223209697468755,-0.2506100833731337,-0.13278292487016602
1729876092801210600,2.644210693359375,2.1655988693237305,0.07343597710132599,-0.2999696731567383,-0.4908928871154785,-0.005590600892901421,-0.8712019920349121,0.022097021341323853,0.009374681860208511,-0.18258517980575562,0.9583211510802769,-0.03156424956258341,-0.2517989083007698,-0.13123165857957908
1729876092811241700,2.65424169921875,1.721753478050232,0.19091705977916718,-0.4645807445049286,-0.4896852970123291,-0.024394631385803223,-0.8715579509735107,-0.07180771231651306,-0.14221617579460144,-0.09717679023742676,0.9584991943088205,-0.021679487570963142,-0.2524896620246382,-0.13060767219167613
1729876092821271600,2.664271484375,1.6705337762832642,0.3003784120082855,-0.5430579781532288,-0.4874570667743683,-0.0412374883890152,-0.8721725940704346,-0.1532290279865265,0.0037312880158424377,0.041621506214141846,0.9585991399832179,-0.01300675360960167,-0.252476760581608,-0.13104971546045313
1729876092831302700,2.674302734375,2.1666066646575928,0.3028881847858429,-0.4524364471435547,-0.4843120872974396,-0.060539375990629196,-0.8727982640266418,-0.1815967857837677,0.25096896290779114,-0.07211744785308838,0.9587659312107274,-0.0028904737110408657,-0.25217555134842345,-0.13102370656387005
1729876092841332700,2.684332763671875,2.435299873352051,0.10912248492240906,-0.461528480052948,-0.48214974999427795,-0.0829460546374321,-0.8721534609794617,-0.08027401566505432,0.35951149463653564,-0.25232774019241333,0.9587025861652386,0.00893001112425489,-0.25267278224630463,-0.13025464291678046
1729876092851363600,2.694363525390625,2.691972494125366,-0.03440937399864197,-0.5921179056167603,-0.481189101934433,-0.108151376247406,-0.8699197769165039,0.013781815767288208,0.32079774141311646,-0.2001485824584961,0.9582292355473887,0.022110451600317944,-0.25406938751033015,-0.1294481317146724
1729876092861393700,2.7043935546875,1.0175050497055054,-0.23454374074935913,-0.1738671362400055,-0.48297277092933655,-0.12521517276763916,-0.866636335849762,0.04528960585594177,0.104615718126297,-0.12849605083465576,0.957416926933474,0.030816599342138852,-0.2563828798390044,-0.1291164756146128
1729876092871424800,2.7144248046875,2.202942132949829,-0.005374474450945854,-0.25694790482521057,-0.4838305115699768,-0.13979186117649078,-0.8639249205589294,0.07373520731925964,-0.010644659399986267,0.24168682098388672,0.9568546991113056,0.038529410606088714,-0.2579787249525774,-0.1280294729353736
1729876092881454600,2.72445458984375,1.5601454973220825,0.002293459139764309,-0.5169160962104797,-0.48292115330696106,-0.15908989310264587,-0.8610909581184387,-0.04178285598754883,-0.3367598056793213,-0.076637864112854,0.9562122296689877,0.04870843882360232,-0.25900197565212335,-0.1272937701344023
1729876092891485700,2.734485595703125,0.6637603044509888,0.11711032688617706,-0.36722302436828613,-0.48193734884262085,-0.17011579871177673,-0.8595330119132996,-0.19695675373077393,-0.43105006217956543,-0.12516236305236816,0.9556852928367918,0.05420630603471193,-0.25941310814968815,-0.12818832884259712
1729876092901515800,2.744515869140625,0.696078896522522,0.19657835364341736,-0.16951686143875122,-0.47988829016685486,-0.17724305391311646,-0.8592392802238464,-0.10585090517997742,-0.1465943306684494,0.3330399990081787,0.9555698641328241,0.05793465601997503,-0.2588898218835273,-0.12847518328847585
1729876092911546600,2.754546630859375,0.5619693398475647,0.15387456119060516,-0.09478378295898438,-0.47812095284461975,-0.18349307775497437,-0.858912467956543,0.004915297031402588,-0.17098397016525269,0.08471208810806274,0.9555198826454216,0.061342809041010325,-0.25841983681440156,-0.128210990532481
1729876092921576700,2.76457666015625,0.02277008630335331,0.1447499394416809,0.04761384427547455,-0.47677406668663025,-0.18627789616584778,-0.8590617179870605,0.048688679933547974,-0.22419889271259308,0.06493335962295532,0.9556018204318898,0.06295234162114946,-0.25788783702423046,-0.12789116911045625
1729876092931607800,2.77460791015625,-0.6556920409202576,0.14718593657016754,0.22894103825092316,-0.4757801294326782,-0.1828186810016632,-0.8603549599647522,0.07947877049446106,-0.23133549094200134,0.24258768558502197,0.9559791710834497,0.06131197070690504,-0.2570279557411834,-0.12759845568230813
1729876092941637600,2.7846376953125,-1.099604845046997,0.14972977340221405,0.3937970995903015,-0.47503238916397095,-0.173664852976799,-0.8626614809036255,0.09478330612182617,-0.32770854234695435,0.337286114692688,0.9566370501195421,0.056755647533793654,-0.25582820399669887,-0.1271863995053368
1729876092951668700,2.794668701171875,-1.9350565671920776,0.09457945078611374,0.5044327974319458,-0.4746801257133484,-0.15875254571437836,-0.8657230734825134,0.10682114958763123,-0.5806121826171875,0.3103947639465332,0.9574794767686573,0.049193863940809136,-0.2543981679679948,-0.1268647357088016
1729876092961698600,2.804698486328125,-3.151282787322998,0.06850038468837738,0.5149695873260498,-0.47469329833984375,-0.13414891064167023,-0.8698679804801941,0.09622949361801147,-0.7786014080047607,0.39138293266296387,0.9584687491311258,0.03637977693540029,-0.2524727893921583,-0.12756058600973916
1729876092971729700,2.814729736328125,-4.196515083312988,-0.15791650116443634,0.1649007946252823,-0.4753791391849518,-0.10005268454551697,-0.874073326587677,0.06169804930686951,-0.8064873218536377,0.4803507924079895,0.9591806367757373,0.018126222796576105,-0.2502694278156429,-0.13041953228624692
1729876092981759500,2.824759521484375,-4.897652626037598,-0.21527551114559174,-0.3503148853778839,-0.4772433042526245,-0.06050629913806915,-0.8766856789588928,0.0036866962909698486,-0.6170297861099243,0.3317638635635376,0.9589761510919828,-0.0038638307679047523,-0.2482785137619462,-0.1367757176672532
1729876092991790600,2.83479052734375,-4.4716315269470215,-0.14065586030483246,0.21049864590168,-0.4785672128200531,-0.018995441496372223,-0.8778454661369324,-0.07145118713378906,-0.052522603422403336,0.13471192121505737,0.9583152033539563,-0.026843607312578285,-0.2456760109584817,-0.14336913807908278
1729876093001820700,2.844820556640625,-2.7201926708221436,-0.009736358188092709,0.7989131808280945,-0.47920939326286316,0.015739722177386284,-0.8775594830513,0.042792677879333496,0.6194072961807251,0.07726651430130005,0.9579804582577145,-0.04506398495388651,-0.24328891799728627,-0.14509726136743614
1729876093011851500,2.8548515625,-1.5328763723373413,0.1228075698018074,0.5269820690155029,-0.4785449504852295,0.03706829994916916,-0.8772802948951721,0.15696591138839722,0.916316032409668,-0.16443723440170288,0.9580320246983592,-0.0556944271133899,-0.24136692360041326,-0.14427368257846346
1729876093021881600,2.864881591796875,-0.9402222037315369,0.2805478572845459,0.4472227692604065,-0.4765147864818573,0.050161052495241165,-0.877734363079071,-0.054430097341537476,0.9209539890289307,-0.09508973360061646,0.958237109471448,-0.062064262398751915,-0.2393341999585807,-0.14369761482882343
1729876093031912400,2.874912353515625,-0.40559977293014526,0.1069667711853981,0.7666249871253967,-0.47429999709129333,0.058687202632427216,-0.8784050345420837,-0.06395387649536133,0.7862223982810974,0.15437549352645874,0.9587229957244894,-0.06570983339207749,-0.23765459100640998,-0.14160857338442517
1729876093041942500,2.884942626953125,-0.6974055171012878,-0.04636291787028313,0.8467544317245483,-0.47367727756500244,0.0670982301235199,-0.8781387209892273,0.16189438104629517,0.42475348711013794,0.07111674547195435,0.9591451202584879,-0.06913097837925627,-0.2369631551679767,-0.13823890153634208
1729876093051973600,2.8949736328125,-1.1924853324890137,-0.13591356575489044,0.7082138657569885,-0.4738122820854187,0.07922995835542679,-0.8770545125007629,0.17283260822296143,0.04634980112314224,0.12285834550857544,0.9592438660111687,-0.07470994336789315,-0.2364131426423646,-0.1355680840640165
1729876093062003700,2.905003662109375,-1.4312289953231812,-0.29780563712120056,0.5282313227653503,-0.4752625823020935,0.09391632676124573,-0.8748172521591187,0.05685126781463623,-0.2032914161682129,0.13841283321380615,0.9588676899185069,-0.08202599212598534,-0.23635377172188057,-0.1340952233787663
1729876093072034600,2.91503466796875,-1.2958130836486816,-0.47198542952537537,0.43206512928009033,-0.4780694842338562,0.10821156948804855,-0.8716305494308472,0.044002652168273926,-0.2351495325565338,-0.004742681980133057,0.9581448870336795,-0.08945016558826807,-0.2370303444117949,-0.1333180886244343
1729876093082065700,2.925065673828125,-0.9944539666175842,-0.7348614931106567,0.5157168507575989,-0.48282796144485474,0.12054868787527084,-0.8673783540725708,0.10843825340270996,-0.013172663748264313,-0.1500319242477417,0.9571943417145735,-0.09596495679915311,-0.2389593022398936,-0.13216799111962071
1729876093092095500,2.935095458984375,-0.5374113321304321,-0.7307008504867554,0.5632675886154175,-0.48864760994911194,0.12980832159519196,-0.8627707362174988,0.15444952249526978,0.2803631126880646,-0.16559529304504395,0.9562738468844821,-0.10076661338256084,-0.24178650273586774,-0.13009955074026713
1729876093102126600,2.945126708984375,-0.23933376371860504,-0.5739501714706421,0.5378187298774719,-0.49352648854255676,0.1358136236667633,-0.8590613007545471,0.0837363600730896,0.40518665313720703,-0.16654294729232788,0.9556462567652814,-0.1036774283214365,-0.2443774839842454,-0.12755731167680046
1729876093112156700,2.95515673828125,-0.10756881535053253,-0.4727974236011505,0.42061567306518555,-0.49734869599342346,0.1396995484828949,-0.8562291264533997,-0.035595089197158813,0.34275275468826294,-0.09111273288726807,0.9552234398310723,-0.10542229988244706,-0.2465189220423562,-0.12515094533432422
1729876093122187500,2.9651875,-0.007925574667751789,-0.5262497663497925,0.2460411787033081,-0.5010685920715332,0.14178681373596191,-0.8537135124206543,-0.023543834686279297,0.19935382902622223,0.05256611108779907,0.9547930504639279,-0.1063852951724045,-0.24864715439043492,-0.12339788390969095
1729876093132217600,2.975217529296875,0.10157881677150726,-0.6741393804550171,0.18137697875499725,-0.5058768391609192,0.14248739182949066,-0.8507561087608337,0.08807593584060669,0.08148103952407837,0.12468194961547852,0.9541969555539124,-0.10681184865133203,-0.251422307753385,-0.12200925141128437
1729876093142248700,2.985248779296875,0.19510343670845032,-0.7685460448265076,0.10968067497015,-0.5118989944458008,0.14191021025180817,-0.8472431302070618,0.2050294280052185,0.016765877604484558,0.15905648469924927,0.9534396063465522,-0.10670047068892113,-0.25493811939064454,-0.12072479650314138
1729876093152278800,2.99527880859375,0.2719481587409973,-0.9290720820426941,0.03602642938494682,-0.5189396142959595,0.14049051702022552,-0.8431869149208069,0.23414945602416992,-0.04494006931781769,0.14169460535049438,0.9525084555945753,-0.10629458105604903,-0.25905213030849067,-0.11967176404423926
1729876093162309600,3.0053095703125,0.28682562708854675,-1.0028520822525024,0.10935603827238083,-0.5270662307739258,0.1381852626800537,-0.8385142087936401,0.22256171703338623,-0.040254414081573486,0.015394091606140137,0.9514357740038482,-0.10546462083883743,-0.26385622832946193,-0.11843640775970092
1729876093172339700,3.015339599609375,-0.0005166602786630392,-0.8874857425689697,0.17802299559116364,-0.534853994846344,0.13782371580600739,-0.8336281180381775,0.11882305145263672,0.021355897188186646,-0.10864782333374023,0.9503278029401809,-0.10556166152562185,-0.26840764904848174,-0.1170097898867535
1729876093182370600,3.02537060546875,-0.170838862657547,-0.901885986328125,0.15492139756679535,-0.5419642925262451,0.13950282335281372,-0.828742265701294,-0.013074278831481934,0.048897385597229004,-0.012978315353393555,0.9491821021768131,-0.10674454015746118,-0.27246003098533705,-0.11586506101765548
1729876093192400600,3.035400634765625,-0.18277302384376526,-0.808271586894989,0.10220305621623993,-0.549035906791687,0.14186541736125946,-0.8236709237098694,-0.09172654151916504,0.041545167565345764,0.09745943546295166,0.9479420581942717,-0.10838496500161805,-0.27643665490748054,-0.11507141992857935
1729876093202431700,3.045431640625,0.06715699285268784,-0.7089475393295288,0.1312277913093567,-0.5550001263618469,0.1430012434720993,-0.8194666504859924,-0.09526854753494263,0.07216286659240723,0.11815744638442993,0.9469364136509083,-0.10926385216207189,-0.2798715641046121,-0.11421418022632306
1729876093212461800,3.0554619140625,0.2620393931865692,-0.7118805050849915,0.12150990217924118,-0.5606293082237244,0.14235816895961761,-0.815738320350647,-0.033792197704315186,0.060431063175201416,0.04080545902252197,0.9461019564042064,-0.109054821780242,-0.28326293400849245,-0.11296182775890715
1729876093222492700,3.06549267578125,0.37477219104766846,-0.6659005284309387,0.07094845920801163,-0.5661537647247314,0.14024920761585236,-0.8122807741165161,0.044455647468566895,-0.018529921770095825,0.06894892454147339,0.9453412089733559,-0.10804417047948874,-0.2866811062577962,-0.1116711211891039
1729876093232522500,3.0755224609375,0.34199056029319763,-0.5384507179260254,-0.05750725045800209,-0.5710079073905945,0.13727255165576935,-0.8093863725662231,0.03452402353286743,-0.11899259686470032,0.14790260791778564,0.9446852968929077,-0.1066172678066309,-0.28972327409119647,-0.11073839177910094
1729876093242553600,3.0855537109375,0.3163596987724304,-0.516402542591095,-0.07061079889535904,-0.5752755403518677,0.13442377746105194,-0.8068385124206543,0.017963409423828125,-0.1585785150527954,0.1405634880065918,0.9440524214675076,-0.10537944557598468,-0.2923626636969168,-0.11038287628654908
1729876093252583400,3.09558349609375,0.7649058103561401,-0.6465227603912354,-0.1452661156654358,-0.5800858736038208,0.12970735132694244,-0.8041619062423706,0.022605955600738525,-0.1018601506948471,0.17458432912826538,0.9434176302325548,-0.10311188497632078,-0.2954436941097683,-0.10974643482646236
1729876093262614500,3.105614501953125,1.0498793125152588,-0.9122716784477234,-0.31529325246810913,-0.5865686535835266,0.1207360029220581,-0.8008495569229126,0.08002257347106934,-0.06777280569076538,-0.002510368824005127,0.94261389926388,-0.09873395836837016,-0.2997112180111456,-0.10910503114855527
1729876093272644600,3.11564453125,0.9632967114448547,-1.1650290489196777,-0.11014889180660248,-0.5953232049942017,0.11120779812335968,-0.7957531809806824,0.07814168930053711,-0.011308588087558746,-0.21799492835998535,0.941375891005716,-0.09413856677696959,-0.30538719698523403,-0.10811153243197141
1729876093282675500,3.125675537109375,0.5981873869895935,-1.2362631559371948,0.0654735341668129,-0.6049264669418335,0.10479365289211273,-0.7893556356430054,0.054373979568481445,0.1409795880317688,-0.20835554599761963,0.9398688532961091,-0.09101956903589134,-0.31150862059259044,-0.10641641453787279
1729876093292705500,3.13570556640625,0.27230167388916016,-1.2177741527557373,0.18424201011657715,-0.6144968271255493,0.10226313024759293,-0.7822633385658264,-0.046803951263427734,0.2553417682647705,-0.1777738332748413,0.9381889562348396,-0.08988297502107112,-0.31747343476874934,-0.10456197761870364
1729876093302736600,3.145736572265625,0.14244015514850616,-1.1619502305984497,0.24647074937820435,-0.6235698461532593,0.1021084263920784,-0.7750706672668457,-0.1856343150138855,0.30847495794296265,-0.15083259344100952,0.9364713476159119,-0.08996330633348523,-0.3230654218735422,-0.10274651508662624
1729876093312766500,3.155766357421875,0.10992775857448578,-1.1251674890518188,0.3445728123188019,-0.632135808467865,0.10305806994438171,-0.7679735422134399,-0.24422228336334229,0.2597042918205261,-0.134110689163208,0.9348125148739216,-0.09044703486527733,-0.328378677649568,-0.10056068662124655
1729876093322797600,3.165797607421875,0.1515350639820099,-0.8792136907577515,0.23645487427711487,-0.6395303010940552,0.10406792163848877,-0.7616894841194153,-0.21445846557617188,0.11153868585824966,-0.09771597385406494,0.9333494766749026,-0.09089557315898793,-0.3330063688453577,-0.09850675327641115
1729876093332827600,3.17582763671875,0.1842924803495407,-0.7495917677879333,0.07699862867593765,-0.6454734206199646,0.10372062772512436,-0.756707489490509,-0.19641512632369995,-0.10039427876472473,-0.08305996656417847,0.9321626880040561,-0.0907117614719027,-0.3367753587827242,-0.09709085391523771
1729876093342858500,3.1858583984375,0.02254311926662922,-0.6896177530288696,-0.05393168702721596,-0.6509420275688171,0.10292909294366837,-0.7521171569824219,-0.1657389998435974,-0.26683908700942993,0.07398605346679688,0.9309866559779401,-0.09056268229082157,-0.34020557048272815,-0.09655369027524108
1729876093352888600,3.195888671875,0.0722624734044075,-0.5078311562538147,-0.11794076859951019,-0.6555894613265991,0.10220634192228317,-0.7481687068939209,-0.11775654554367065,-0.25090333819389343,0.23963910341262817,0.9299147950258966,-0.09061591086453631,-0.3430807613545796,-0.09665917979026939
1729876093362919700,3.205919677734375,0.365331768989563,-0.33033546805381775,-0.16477032005786896,-0.6588315367698669,0.09958590567111969,-0.7456700205802917,-0.11260718107223511,-0.12615154683589935,0.24962210655212402,0.9292300470449699,-0.08953647476301058,-0.3451785303001349,-0.09678189011355985
1729876093372949500,3.215949462890625,0.5642493963241577,-0.25547507405281067,-0.16511546075344086,-0.6611382961273193,0.09491568058729172,-0.7442359328269958,-0.11727362871170044,-0.05151975899934769,0.1001320481300354,0.9288619429911628,-0.08716491342245489,-0.3468202699610741,-0.09661007506368965
1729876093382980600,3.225980712890625,0.5445185303688049,-0.2611960768699646,-0.05523424223065376,-0.6631019115447998,0.08986803889274597,-0.7431148290634155,-0.04952937364578247,-0.019250452518463135,-0.0396762490272522,0.9286193947444736,-0.08441027467379333,-0.3483066198763831,-0.09603894310405008
1729876093393010700,3.2360107421875,0.10669054836034775,-0.44972604513168335,0.06544184684753418,-0.665705680847168,0.08739756792783737,-0.7410786747932434,0.027827203273773193,0.008747987449169159,-0.08727514743804932,0.9281529463992138,-0.08300780307610159,-0.35010049930862275,-0.09524452202003895
1729876093403041500,3.24604150390625,-0.0713876336812973,-0.43622323870658875,0.10694268345832825,-0.668986439704895,0.08809554576873779,-0.7380354404449463,0.06481462717056274,0.04901985079050064,0.021955788135528564,0.9273919010002384,-0.08344535607111166,-0.352163514369554,-0.09466845093272046
1729876093413071600,3.256071533203125,0.11988085508346558,-0.4099152088165283,0.09498908370733261,-0.6719372868537903,0.08873335272073746,-0.7352733016014099,0.06112784147262573,0.09408212453126907,-0.031053543090820312,0.9267183618546371,-0.0837742166553707,-0.3540412969490953,-0.09396764642502892
1729876093423102700,3.266102783203125,0.2816426455974579,-0.5384387969970703,-0.004461872857064009,-0.6753458976745605,0.08754664659500122,-0.7322865128517151,0.0817941427230835,0.09267483651638031,-0.18591105937957764,0.9259911634363717,-0.08312727488261909,-0.35629567907715354,-0.09318608073749828
1729876093433132500,3.276132568359375,0.3175380825996399,-0.7170660495758057,-0.08303604274988174,-0.6799752712249756,0.08498013764619827,-0.7282938957214355,0.1454140543937683,0.08666590601205826,-0.17940562963485718,0.92497328933164,-0.08190601610481213,-0.35936673280886056,-0.09258177117859946
1729876093443163600,3.28616357421875,0.3600187599658966,-0.8666941523551941,-0.12072829902172089,-0.6858956813812256,0.08184269815683365,-0.7230829000473022,0.1941658854484558,0.09235155582427979,-0.07684385776519775,0.9236099867717807,-0.08053885640053147,-0.363279572770511,-0.09211952841373795
1729876093453193700,3.29619384765625,0.3695022761821747,-0.8682624697685242,-0.14402402937412262,-0.692277729511261,0.07816684246063232,-0.7173851728439331,0.1890885829925537,0.08461383730173111,-0.028143882751464844,0.9221065330434212,-0.0789413034441095,-0.3675264258611341,-0.09171822423221204
1729876093463224600,3.306224609375,0.2582029104232788,-0.846311092376709,-0.07986688613891602,-0.6985082030296326,0.07511352747678757,-0.7116490602493286,0.13930398225784302,0.06024710834026337,-0.07265263795852661,0.9205887962732153,-0.07766956402349497,-0.371675810034336,-0.0913295006601502
1729876093473254700,3.316254638671875,0.06605690717697144,-0.8751917481422424,0.00736629031598568,-0.7046703100204468,0.07362590730190277,-0.7057046890258789,0.11793923377990723,0.018704935908317566,-0.04194539785385132,0.9190182246620611,-0.07721132145854276,-0.37574733730407683,-0.0908739866769053
1729876093483285800,3.32628564453125,0.024731704965233803,-0.8811396956443787,-0.07528438419103622,-0.7109497785568237,0.07340835779905319,-0.6994010210037231,0.13767701387405396,0.015947014093399048,0.07333290576934814,0.9173342192513594,-0.07750601560891235,-0.3798582862941573,-0.09054624040647093
1729876093493315600,3.336315673828125,0.2894086241722107,-0.7727977633476257,-0.20300984382629395,-0.716792643070221,0.07127581536769867,-0.693634033203125,0.1385912299156189,0.07522374391555786,0.10546886920928955,0.9157522236603537,-0.07689905069255519,-0.383757094231674,-0.09063694092780868
1729876093503346700,3.3463466796875,0.37112492322921753,-0.7573046684265137,-0.20711643993854523,-0.7221972942352295,0.06729494780302048,-0.6884057521820068,0.07076895236968994,0.07162097841501236,0.03819829225540161,0.9143266788794817,-0.07519856061388112,-0.38748200610664896,-0.0906069856749578
1729876093513376800,3.356376708984375,0.23096171021461487,-0.7560104131698608,-0.1944781392812729,-0.72757488489151,0.06376742571592331,-0.6830582618713379,0.10664886236190796,0.033354684710502625,0.02860891819000244,0.9128575900897629,-0.07378025661789828,-0.39118709400099283,-0.09066545288425366
1729876093523407600,3.36640771484375,0.1542307734489441,-0.6916305422782898,-0.17977136373519897,-0.7325907349586487,0.06122393161058426,-0.677910327911377,0.1105966567993164,0.009607277810573578,0.07874363660812378,0.9114242520190697,-0.07293981765615265,-0.3946195720424871,-0.09089045680502728
1729876093533437400,3.3764375,0.2507956624031067,-0.600983202457428,-0.2430635243654251,-0.7371467351913452,0.05828874930739403,-0.6732140183448792,0.05282050371170044,-0.024673741310834885,0.0395318865776062,0.9101038748486241,-0.07188470518962141,-0.3977757957305162,-0.09120256672617291
1729876093543468800,3.38646875,0.3084584176540375,-0.5775754451751709,-0.26509585976600647,-0.7412127256393433,0.054587025195360184,-0.6690471172332764,-0.02747941017150879,-0.04692720249295235,-0.03929626941680908,0.908916290874206,-0.07041607543231677,-0.4006469869857753,-0.09162381752181577
1729876093553498600,3.39649853515625,0.3369225561618805,-0.6139174699783325,-0.25553590059280396,-0.7453101277351379,0.05039222911000252,-0.6648109555244446,-0.07964116334915161,-0.02939622849225998,-0.016127705574035645,0.9077197122678873,-0.06863031711893845,-0.40358940016264977,-0.09192753299318156
1729876093563529500,3.406529541015625,0.22784094512462616,-0.6154686808586121,-0.17388099431991577,-0.749535083770752,0.04685904458165169,-0.6603040099143982,-0.08045154809951782,-0.0034173578023910522,-0.046421945095062256,0.9064595969132583,-0.0671626804040275,-0.40661673521512354,-0.09210327607239677
1729876093573559600,3.4165595703125,0.1650952696800232,-0.5528542995452881,-0.1563720405101776,-0.7535231113433838,0.04447176307439804,-0.6559155583381653,-0.10356312990188599,-0.0013962984085083008,-0.028746187686920166,0.9052345088587503,-0.06628540615774466,-0.4094489621475765,-0.09224093491821915
1729876093583590400,3.42659033203125,0.10756133496761322,-0.4786897897720337,-0.1482403427362442,-0.7568691968917847,0.04234987869858742,-0.6521928906440735,-0.14225506782531738,-0.05826488509774208,-0.02409183979034424,0.9041803768555752,-0.0655461698357069,-0.4118340025116903,-0.09249022789177591
1729876093593620500,3.436620361328125,-0.04195917397737503,-0.4319550395011902,-0.11824596673250198,-0.7599799036979675,0.041128989309072495,-0.6486440300941467,-0.17045533657073975,-0.12451834976673126,0.007866501808166504,0.9031622022934698,-0.06533042048693928,-0.4140168175405138,-0.09284519305370184
1729876093603651600,3.446651611328125,0.0029618272092193365,-0.33319804072380066,-0.13235405087471008,-0.7624737024307251,0.04056691378355026,-0.6457462906837463,-0.13866472244262695,-0.10231931507587433,0.08728992938995361,0.9023058476892734,-0.0654984676960424,-0.4157364664522615,-0.09336730631938542
1729876093613681700,3.456681640625,0.2454780638217926,-0.26966220140457153,-0.18299618363380432,-0.7644590139389038,0.03842441737651825,-0.6435263156890869,-0.12708163261413574,-0.04001142084598541,0.10130524635314941,0.9016567541653706,-0.06465983701724674,-0.41720013661130595,-0.09369309115673378
1729876093623712500,3.46671240234375,0.19840149581432343,-0.25919774174690247,-0.19184507429599762,-0.7662652730941772,0.035495150834321976,-0.6415432691574097,-0.1030890941619873,-0.02803369238972664,0.03277873992919922,0.9010762281372237,-0.06335661779312093,-0.4185860609935199,-0.09398680638087234
1729876093633742600,3.47674267578125,0.2986506223678589,-0.13452771306037903,-0.20253846049308777,-0.767626166343689,0.03246587514877319,-0.6400752067565918,-0.07542204856872559,0.009892437607049942,0.024596750736236572,0.9006355118955812,-0.06196749601619689,-0.41966943364672393,-0.0943056273036915
1729876093643773400,3.4867734375,0.42632439732551575,-0.12405388057231903,-0.27224671840667725,-0.768419086933136,0.02827032469213009,-0.6393223404884338,-0.08651578426361084,0.021580057218670845,0.010965406894683838,0.9004015238974648,-0.0598440845440617,-0.4204253981236311,-0.09454362766017886
1729876093653803500,3.496803466796875,0.3177579939365387,-0.26925128698349,-0.31063830852508545,-0.7697550654411316,0.023495368659496307,-0.6379069089889526,-0.06949371099472046,0.00041506439447402954,-0.08925062417984009,0.8999574118464865,-0.05756898864060932,-0.42158317270845064,-0.09502740119537963
1729876093663834600,3.506834716796875,0.24394933879375458,-0.24357831478118896,-0.27398574352264404,-0.7715293765068054,0.01952076517045498,-0.6358941793441772,-0.053513407707214355,0.010233782231807709,-0.1776127815246582,0.8993263967681785,-0.05586752890105463,-0.42300323352375446,-0.09570319491785723
1729876093673864700,3.51686474609375,0.22084695100784302,-0.16398946940898895,-0.22276118397712708,-0.7728092670440674,0.01598442532122135,-0.6344371438026428,-0.09379845857620239,0.015021337196230888,-0.1467822790145874,0.8988611351041293,-0.05430863812709775,-0.4240660480581262,-0.096267342245142
1729876093683895600,3.5268955078125,0.0820569097995758,-0.18523728847503662,-0.0666903555393219,-0.7739585638046265,0.01391590479761362,-0.6330834031105042,-0.11581200361251831,0.01635744608938694,-0.06692874431610107,0.8984521545625328,-0.05342249384246768,-0.42497568173711775,-0.09656929612255015
1729876093693925600,3.536925537109375,0.06193593144416809,-0.23296166956424713,-0.022750599309802055,-0.7752654552459717,0.013371114619076252,-0.6314941644668579,0.009686112403869629,0.05288246273994446,0.05721437931060791,0.8980121481150644,-0.05323796346674077,-0.4259326779354637,-0.09654760704068195
1729876093703956500,3.54695654296875,0.1782797873020172,-0.3311445713043213,-0.09738542139530182,-0.7769700884819031,0.01224047876894474,-0.6294186115264893,0.15453344583511353,0.06947024911642075,0.10404336452484131,0.8974417098073596,-0.052745760278889754,-0.42721022228036337,-0.09647710632669589
1729876093713986600,3.556986572265625,0.4016188681125641,-0.4677160084247589,-0.22817671298980713,-0.7795557975769043,0.009057906456291676,-0.6262673139572144,0.19044435024261475,0.044775016605854034,0.1138010025024414,0.8965655493704754,-0.05123051354126702,-0.42923392776986535,-0.09645686776785223
1729876093724017700,3.567017578125,0.2462257444858551,-0.4392715394496918,-0.26122042536735535,-0.7824926376342773,0.004895056132227182,-0.6226406097412109,0.15793508291244507,-0.005291874520480633,0.08370023965835571,0.8955240407580288,-0.04934877559571834,-0.43156043051099036,-0.09673149793574957
1729876093734047700,3.5770478515625,0.06141914799809456,-0.3280789852142334,-0.1163758933544159,-0.7849196791648865,0.00254344055429101,-0.6195924282073975,0.019584476947784424,-0.0012312775943428278,-0.01640903949737549,0.8946159015387812,-0.048539302216450836,-0.43341402595626016,-0.09725645414788449
1729876093744078600,3.58707861328125,0.11325890570878983,-0.0553317554295063,-0.048557162284851074,-0.7862027287483215,0.0013974132016301155,-0.6179671883583069,-0.15102273225784302,0.02069721929728985,0.03439486026763916,0.8941561017658427,-0.04805555606038191,-0.4344042765696247,-0.09730673554553197
1729876093754108700,3.597108642578125,0.05080964416265488,0.13125596940517426,-0.04222603142261505,-0.7858192324638367,0.0005244978819973767,-0.6184561252593994,-0.21875852346420288,-0.019323421642184258,-0.09489214420318604,0.894285877358738,-0.047566494851419824,-0.4341766548334798,-0.09737003400675946
1729876093764139800,3.607139892578125,0.05862608551979065,0.07111209630966187,-0.02055535465478897,-0.7851356267929077,0.00003378317705937661,-0.6193239092826843,-0.18469786643981934,-0.06457855552434921,-0.0629117488861084,0.8945228287314431,-0.0472537398673788,-0.43371088591433987,-0.09742125189257721
1729876093774169600,3.617169677734375,0.11209650337696075,-0.2067842334508896,-0.080410435795784,-0.7854934334754944,-0.0007994371699169278,-0.6188694834709167,-0.0027909278869628906,-0.12305624037981033,0.10448050498962402,0.8943966174306274,-0.046824660584492646,-0.43401923877187437,-0.09741396887473874
1729876093784200700,3.62720068359375,0.17658840119838715,-0.3092723786830902,-0.11309940367937088,-0.7872380614280701,-0.0025458582676947117,-0.6166439652442932,0.11696517467498779,-0.16658265888690948,0.10265177488327026,0.8937618890756714,-0.046084687576826266,-0.4353782482266807,-0.09752822223570994
1729876093794230800,3.637230712890625,0.20362135767936707,-0.08750295639038086,0.019193656742572784,-0.7885079383850098,-0.004210116807371378,-0.6150102615356445,0.04514545202255249,-0.18507525324821472,0.007344305515289307,0.8933334175314512,-0.04516002114348407,-0.4364120220055439,-0.09726591474206905
1729876093804261600,3.64726171875,0.06887559592723846,0.06077461317181587,0.133426234126091,-0.7885352969169617,-0.004357981961220503,-0.6149740815162659,-0.0976036787033081,-0.16708986461162567,0.03245466947555542,0.8933954562574681,-0.04475590357319169,-0.43647434888981745,-0.0966006639552397
1729876093814291700,3.657291748046875,0.12391648441553116,0.19788771867752075,0.17505650222301483,-0.7877609133720398,-0.0036085001192986965,-0.6159706115722656,-0.12292951345443726,-0.09458190202713013,0.016147732734680176,0.893767299679052,-0.044674205625996416,-0.4359115697202455,-0.09573637663428362
1729876093824322800,3.66732275390625,0.23067595064640045,0.2937026619911194,0.15523245930671692,-0.7861854434013367,-0.0034194216132164,-0.6179811954498291,-0.04732602834701538,-0.032194677740335464,0.0023655295372009277,0.8944464695391435,-0.04409414342346374,-0.4348161664032041,-0.09463668769499677
1729876093834352400,3.677352294921875,0.14406836032867432,0.21922096610069275,0.11363919824361801,-0.784501850605011,-0.0035634932573884726,-0.6201162338256836,0.08595436811447144,0.0003590555861592293,0.022109150886535645,0.8951468130924156,-0.043378790469840084,-0.43365902563894354,-0.09364991910434117
1729876093844383700,3.6873837890625,0.11800412833690643,0.07110906392335892,0.03125564381480217,-0.7836097478866577,-0.0036967722699046135,-0.6212425231933594,0.2201024889945984,0.055042512714862823,0.08233267068862915,0.8955180826060644,-0.042960200226968906,-0.43305098224979566,-0.0931068716981114
1729876093854413600,3.69741357421875,0.19223414361476898,0.048095352947711945,-0.016263138502836227,-0.7833372950553894,-0.004667522385716438,-0.6215794086456299,0.25935041904449463,0.09663215279579163,0.09518176317214966,0.8956492671865246,-0.04222557668274156,-0.4329287519451176,-0.09274751991720952
1729876093864444400,3.7074443359375,0.052699025720357895,0.11483869701623917,0.01910470426082611,-0.7828261256217957,-0.005509406328201294,-0.6222161054611206,0.16782057285308838,0.06561367958784103,0.02039438486099243,0.8958527687904121,-0.04159373262690378,-0.43262212713262355,-0.09249772759119151
1729876093874474500,3.717474609375,0.07695402950048447,0.2651645541191101,0.10344435274600983,-0.7816731929779053,-0.005342226475477219,-0.6236655116081238,0.05521738529205322,0.03399813547730446,0.051659345626831055,0.8962941344372647,-0.041409534648751495,-0.43180146222363897,-0.0921401147591411
1729876093884505600,3.727505615234375,0.009743633680045605,0.3638963997364044,0.15526734292507172,-0.7796518802642822,-0.00473096314817667,-0.6261954307556152,0.046863675117492676,0.021393466740846634,0.07709276676177979,0.8970679142590333,-0.04124474731809986,-0.43035002737047434,-0.0914716358011961
1729876093894535400,3.737535400390625,-0.10286200791597366,0.42099350690841675,0.23451076447963715,-0.7772071361541748,-0.0027627230156213045,-0.6292388439178467,0.13250792026519775,-0.0006706006824970245,0.14919745922088623,0.8979806226172166,-0.041807193770697755,-0.42852390590355816,-0.09083136523201228
1729876093904566500,3.74756640625,0.0359354242682457,0.5027650594711304,0.2742486000061035,-0.77426677942276,-0.0006226156838238239,-0.6328591108322144,0.24402374029159546,0.0070006949827075005,0.2792825698852539,0.8990899547338818,-0.04224623473002526,-0.42636332816598754,-0.08981652639881287
1729876093914596600,3.7575966796875,-0.1806698590517044,0.39371156692504883,0.270289808511734,-0.7712821364402771,0.0018134521087631583,-0.6364908218383789,0.3324850797653198,-0.03141560032963753,0.28474533557891846,0.9002012650518965,-0.042843137194407875,-0.42416864616190075,-0.088787138231559
1729876093924627500,3.76762744140625,-0.3194897770881653,0.036759451031684875,0.2247076779603958,-0.7699217200279236,0.005527079105377197,-0.6381144523620605,0.4007810354232788,-0.013736393302679062,0.21889454126358032,0.9007023309337279,-0.04452916467290159,-0.42303655982329297,-0.08827601769287757
1729876093934657500,3.777657470703125,-0.23492617905139923,-0.1597195267677307,0.15930655598640442,-0.7703679800033569,0.008774363435804844,-0.6375391483306885,0.37959033250808716,0.05549556016921997,0.14176595211029053,0.9005703733286804,-0.04622082141517466,-0.42319504997705615,-0.08799233546089086
1729876093944688600,3.787688720703125,-0.1989610493183136,-0.16736935079097748,0.14647571742534637,-0.7714628577232361,0.011296656914055347,-0.6361740827560425,0.1785520315170288,0.07593774795532227,-0.04439830780029297,0.9002175084528824,-0.04757772154867594,-0.4238505916019497,-0.08772423685955083
1729876093954718500,3.797718505859375,-0.1847168654203415,0.043157003819942474,0.25696173310279846,-0.7719494104385376,0.01403606217354536,-0.6355290412902832,-0.07872813940048218,0.0754413902759552,-0.13165223598480225,0.9000842787426915,-0.048906194110418265,-0.4240797924697329,-0.08725165838265726
1729876093964749600,3.80774951171875,0.04056892544031143,0.3359977602958679,0.3312583565711975,-0.770667314529419,0.016961107030510902,-0.6370120048522949,-0.22077256441116333,0.06976975500583649,-0.0505642294883728,0.900608363662764,-0.049858135323117926,-0.4230935806741741,-0.08608521138876983
1729876093974779600,3.817779541015625,0.14148622751235962,0.4563031494617462,0.29722076654434204,-0.7679631114006042,0.01869056187570095,-0.6402214169502258,-0.1471218466758728,-0.006590431556105614,0.1473015546798706,0.9016462651805219,-0.04985057836259051,-0.42119380895864444,-0.08452713673787876
1729876093984810500,3.827810546875,0.04263826459646225,0.3773171901702881,0.26214373111724854,-0.7651835680007935,0.020255010575056076,-0.6434935331344604,0.0728616714477539,-0.12018490582704544,0.18408203125,0.902680734117322,-0.049839399538220266,-0.41924845272402106,-0.08315250884215904
1729876093994840600,3.837840576171875,-0.07536426931619644,0.2837773859500885,0.14253343641757965,-0.7630293369293213,0.02192748337984085,-0.645991861820221,0.25889408588409424,-0.1847998946905136,0.2809711694717407,0.903448331245202,-0.05019797285131889,-0.417713088047988,-0.08232333279718726
1729876094004871700,3.84787158203125,-0.22777318954467773,0.3417713940143585,0.07070904225111008,-0.7610816955566406,0.02368076704442501,-0.6482236385345459,0.24446481466293335,-0.22436445951461792,0.27772510051727295,0.9040715948363166,-0.05097280323482403,-0.41628108627773197,-0.08225855323974993
1729876094014901800,3.85790185546875,-0.29093486070632935,0.5500644445419312,0.11997086554765701,-0.7581708431243896,0.026119980961084366,-0.6515325307846069,0.05594605207443237,-0.20269477367401123,0.14825201034545898,0.9049628597407262,-0.05219217261934921,-0.41413729224378704,-0.0825136682319527
1729876094024932600,3.8679326171875,-0.31259971857070923,0.5628350377082825,0.15277062356472015,-0.7543368339538574,0.0291257593780756,-0.6558412313461304,-0.10078102350234985,-0.1417052000761032,0.033999860286712646,0.906140284686968,-0.05358924813261819,-0.4113484947256718,-0.08264645984084454
1729876094034962700,3.877962646484375,-0.33516815304756165,0.4699719548225403,0.19022639095783234,-0.7509109377861023,0.03254427760839462,-0.659601092338562,-0.10666358470916748,-0.09949993342161179,-0.022527635097503662,0.9071722922276609,-0.05520754971097671,-0.40884173901328685,-0.08269855340399615
1729876094044993500,3.88799365234375,-0.37077900767326355,0.5308477282524109,0.3438098132610321,-0.747572660446167,0.036819979548454285,-0.6631587147712708,-0.01883065700531006,-0.06869567930698395,-0.03381693363189697,0.9081813489838918,-0.05713384867566119,-0.4063943338291739,-0.08237788392051373
1729876094055023600,3.898023681640625,-0.40281152725219727,0.6599742770195007,0.48957449197769165,-0.7433889508247375,0.042571116238832474,-0.6675032377243042,0.07435202598571777,-0.01917947828769684,0.13684844970703125,0.9094641874034634,-0.059509109435984975,-0.4033696081019193,-0.08140386516768923
1729876094065054700,3.9080546875,-0.3803798258304596,0.7548970580101013,0.5808223485946655,-0.7383756637573242,0.04926561564207077,-0.6725877523422241,0.19014257192611694,0.05896489694714546,0.16143369674682617,0.9109865848026567,-0.062142309083185854,-0.3998055080281896,-0.07998389472897062
1729876094075084800,3.918084716796875,-0.41652533411979675,0.8512720465660095,0.7092331051826477,-0.7326029539108276,0.056514330208301544,-0.6783061027526855,0.2810647487640381,0.09198411554098129,0.18923145532608032,0.9127223358421334,-0.0648024774214771,-0.3957873008000181,-0.07804571480977182
1729876094085115600,3.92811572265625,-0.7312326431274414,0.8333594799041748,0.8327741622924805,-0.7262766361236572,0.0661979392170906,-0.6842076778411865,0.3653298616409302,0.06868966668844223,0.2767370343208313,0.9145169760844842,-0.0686807509857036,-0.3913810279757908,-0.07591258058707709
1729876094095145700,3.938145751953125,-0.8046059608459473,0.7254175543785095,0.7975698709487915,-0.7203178405761719,0.07757602632045746,-0.6892926096916199,0.4239767789840698,0.08106952905654907,0.30699896812438965,0.9160688941825713,-0.0735878039504998,-0.38721896823639146,-0.07392066916143733
1729876094105176600,3.948176513671875,-0.8050868511199951,0.46921297907829285,0.6388750076293945,-0.7155283689498901,0.0884096696972847,-0.6929668188095093,0.3883035182952881,0.08506741374731064,0.14711427688598633,0.9171938480849211,-0.0784892392842414,-0.38386979721052034,-0.07238134306624838
1729876094115206400,3.958206298828125,-0.8328542709350586,0.3024849593639374,0.5019320845603943,-0.712491512298584,0.09809903800487518,-0.6947895288467407,0.26020562648773193,0.09632837027311325,-0.102283775806427,0.9177594614251516,-0.08318148152710725,-0.38168845648242467,-0.07150091141183954
1729876094125237800,3.96823779296875,-0.5990111231803894,0.46182987093925476,0.5127314925193787,-0.709409236907959,0.10680840909481049,-0.6966566443443298,0.04786437749862671,0.16919249296188354,-0.2651352286338806,0.9183220485693854,-0.08741454601347591,-0.37951332050919195,-0.07080251787680228
1729876094135267600,3.978267578125,-0.2852875292301178,0.7318965196609497,0.6231277585029602,-0.7045968770980835,0.11374795436859131,-0.7004317045211792,-0.17910069227218628,0.22975783050060272,-0.16718286275863647,0.9194680764311592,-0.09019749733053066,-0.3763622530057534,-0.06924111244959585
1729876094145298400,3.98829833984375,-0.28121572732925415,0.8163976669311523,0.6700779795646667,-0.6982341408729553,0.12033627927303314,-0.7056828737258911,-0.21532487869262695,0.216074138879776,-0.04981023073196411,0.9210525661992138,-0.0924521351371295,-0.372305219205128,-0.06710928414965463
1729876094155328500,3.99832861328125,-0.21091942489147186,0.766653299331665,0.6215564608573914,-0.6918182969093323,0.1266445815563202,-0.7108787894248962,-0.10388189554214478,0.17416712641716003,0.045794010162353516,0.9226175140402043,-0.09455176083746664,-0.36826699601826385,-0.06493337950728952
1729876094165359600,4.008359619140625,-0.3145821988582611,0.7345097661018372,0.5579143762588501,-0.6856585144996643,0.13248074054718018,-0.7157662510871887,-0.012965261936187744,0.04386499524116516,0.1386483907699585,0.92407382279467,-0.09653305939141704,-0.3644149306958286,-0.06301416160323106
1729876094175389400,4.018389404296875,-0.43793341517448425,0.7419384121894836,0.5376408100128174,-0.6796736717224121,0.13898184895515442,-0.7202275991439819,0.008729338645935059,-0.06769287586212158,0.12347167730331421,0.9253780671416221,-0.09908568437322335,-0.36064973159683217,-0.061557773992598534
1729876094185420500,4.028420654296875,-0.5078164339065552,0.816673994064331,0.5737439393997192,-0.6731804013252258,0.1461251825094223,-0.7248969674110413,-0.051749467849731445,-0.07079261541366577,0.010114312171936035,0.9267290552937031,-0.10199581833626352,-0.35657868095301,-0.0601827740998188
1729876094195450600,4.03845068359375,-0.5800917148590088,0.720209002494812,0.5071188807487488,-0.6666287779808044,0.15387989580631256,-0.7293334007263184,-0.1284763216972351,-0.052286937832832336,-0.10658884048461914,0.9279991937685799,-0.10533001307877396,-0.3524753869350324,-0.05902886612961495
1729876094205481500,4.0484814453125,-0.5002666711807251,0.5565779805183411,0.3700190484523773,-0.6612805724143982,0.16072630882263184,-0.7327176332473755,-0.13260382413864136,-0.03207951784133911,-0.20267659425735474,0.928958555196278,-0.10840725569052638,-0.3491261025627422,-0.05826747299364981
1729876094215511600,4.058511474609375,-0.6200636625289917,0.45406225323677063,0.38260623812675476,-0.6570347547531128,0.1672472208738327,-0.7350740432739258,-0.11390042304992676,-0.024379238486289978,-0.26184362173080444,0.9296205126038121,-0.11150263269184206,-0.34645365388223837,-0.0578187793377578
1729876094225542700,4.068542724609375,-0.5765641927719116,0.5191976428031921,0.5025693774223328,-0.6527441143989563,0.17464958131313324,-0.7371721267700195,-0.10401564836502075,0.007143557071685791,-0.07218456268310547,0.9302299339465958,-0.11497143568909328,-0.3437957319367369,-0.05708354399060342
1729876094235572500,4.078572509765625,-0.4705067276954651,0.5831608772277832,0.5122292041778564,-0.6476593017578125,0.18188801407814026,-0.7399014830589294,-0.06106579303741455,0.030148059129714966,-0.06174945831298828,0.9310360495513418,-0.11813112751808741,-0.34072611564242145,-0.055881639266842545
1729876094245603600,4.088603515625,-0.39738160371780396,0.4913727641105652,0.39336007833480835,-0.6427584290504456,0.18805071711540222,-0.7426294684410095,-0.05391216278076172,-0.004289194941520691,-0.10482829809188843,0.9318320455349327,-0.12077136852066517,-0.3377862184406774,-0.05480765205946935
