time,seconds_elapsed,rotationRateX,rotationRateY,rotationRateZ,gravityX,gravityY,gravityZ,accelerationX,accelerationY,accelerationZ,quaternionW,quaternionX,quaternionY,quaternionZ
1728407180658399200,0.041399169921875,0.17585110664367676,-0.24773408472537994,0.2963014245033264,-0.036111053079366684,-0.13404087722301483,-0.9903176426887512,0.00853845477104187,-0.012000858783721924,-0.02291172742843628,0.9975764684110743,0.06718326071929662,-0.01809939191383315,-1.165232123546709e-17
1728407180668430000,0.05143017578125,0.19918519258499146,-0.23587743937969208,0.3145400881767273,-0.03892832249403,-0.13578437268733978,-0.9899733066558838,-0.002987537533044815,-0.021655693650245667,-0.04121565818786621,0.9974891534562127,0.06809167878935199,-0.019412845883261847,0.001469452852548547
1728407180678461200,0.061461181640625,0.21884098649024963,-0.22314901649951935,0.3087935149669647,-0.04162733629345894,-0.1377183347940445,-0.9895963072776794,-0.0009599030017852783,-0.01985904574394226,-0.05146509408950806,0.9973912769361027,0.06910042793470633,-0.020663587396621514,0.002952030551898819
1728407180688491000,0.071490966796875,0.247375950217247,-0.1936664879322052,0.31560856103897095,-0.044129785150289536,-0.139907568693161,-0.9891806840896606,-0.01038983091711998,-0.025497570633888245,-0.050370097160339355,0.997281596469631,0.07024195813178308,-0.021811065833549827,0.004457699650797488
1728407180698522000,0.081522216796875,0.20286060869693756,-0.15674112737178802,0.2879287302494049,-0.04625239595770836,-0.14201591908931732,-0.9887831807136536,-0.034848034381866455,-0.028195738792419434,-0.049714744091033936,0.9971741902639283,0.07134462285643749,-0.02276731944433544,0.005931967263775185
1728407180708552200,0.09155224609375,0.18324297666549683,-0.15919922292232513,0.25258803367614746,-0.04820689931511879,-0.14376585185527802,-0.9884368777275085,-0.047328341752290726,-0.026400044560432434,-0.044049084186553955,0.9970785863774232,0.0722656994654762,-0.02364796923610564,0.007258852632134004
1728407180718583000,0.1015830078125,0.174526184797287,-0.165352463722229,0.20665675401687622,-0.050171297043561935,-0.1454075276851654,-0.9880989193916321,-0.03025774285197258,-0.02274419367313385,-0.03691023588180542,0.9969850963517854,0.07312978528616705,-0.02454732690361866,0.008373192426168267
1728407180728614100,0.1116142578125,0.18341447412967682,-0.1612575799226761,0.17313207685947418,-0.052053388208150864,-0.14707696437835693,-0.9877544045448303,-0.006418250501155853,-0.009859547019004822,-0.04325145483016968,0.9968906290596086,0.07400465485100564,-0.025418441608039126,0.009287098927426718
1728407180738644200,0.121644287109375,0.16904911398887634,-0.16735967993736267,0.15334372222423553,-0.05390769615769386,-0.14874130487442017,-0.9874056577682495,0.0056899599730968475,0.0018450766801834106,-0.04588901996612549,0.9967957057237923,0.07487504195877763,-0.02628470337580999,0.010061678281282432
1728407180748675000,0.131675048828125,0.1775275617837906,-0.2235523760318756,0.14394117891788483,-0.05603193864226341,-0.1503528356552124,-0.9870432615280151,0.019273553043603897,-0.0005717277526855469,-0.028383374214172363,0.9966975390510133,0.0757200387798057,-0.027291616667262108,0.010756482464630937
1728407180758705200,0.141705078125,0.19738303124904633,-0.27583691477775574,0.13364219665527344,-0.058712661266326904,-0.15212151408195496,-0.9866163730621338,0.03583977371454239,-0.005974665284156799,-0.011338949203491211,0.9965833814356957,0.07664813168435798,-0.028581075447671973,0.011388489900948696
1728407180768736000,0.151736083984375,0.23300066590309143,-0.28777825832366943,0.12683914601802826,-0.06173188239336014,-0.15416549146175385,-0.9861146807670593,0.04488622024655342,0.00281369686126709,-0.014098942279815674,0.9964507102263231,0.07771806734253976,-0.030042632858174333,0.01196554414455406
1728407180778767000,0.16176708984375,0.2668195962905884,-0.2881692051887512,0.1515229195356369,-0.06478866189718246,-0.15655308961868286,-0.9855422377586365,0.04110705852508545,0.016813218593597412,-0.017082273960113525,0.9962993820137893,0.07896557306037456,-0.03151675259073643,0.012590414278108083
1728407180788797200,0.171797119140625,0.28548911213874817,-0.2801627218723297,0.15869082510471344,-0.06782238930463791,-0.15920017659664154,-0.9849139451980591,0.03362748771905899,0.019521355628967285,-0.022959589958190918,0.9961325023567676,0.08034930361381074,-0.03297014919356743,0.013298913482467393
1728407180798828000,0.181828125,0.2592115104198456,-0.2702963054180145,0.13237319886684418,-0.07078627496957779,-0.16180317103862762,-0.9842809438705444,0.02296527475118637,0.011519506573677063,-0.02450805902481079,0.9959645788088746,0.08171153284486805,-0.03439097025870802,0.013963130273907269
1728407180808859100,0.191859130859375,0.24479608237743378,-0.2284897267818451,0.10525156557559967,-0.0734376534819603,-0.16415639221668243,-0.9836968779563904,0.007016189396381378,-0.009473249316215515,-0.02466493844985962,0.9958102766801221,0.08294297110151791,-0.03566529868660489,0.014503427293543016
1728407180818889200,0.20188916015625,0.31413015723228455,-0.16802345216274261,0.10608620196580887,-0.07557110488414764,-0.16679832339286804,-0.9830906987190247,-0.015584863722324371,-0.021815434098243713,-0.030245482921600342,0.9956510747108884,0.08431512218594077,-0.036682564239707505,0.014973800596681115
1728407180828920000,0.211920166015625,0.37801432609558105,-0.11511549353599548,0.12288755178451538,-0.07712492346763611,-0.17014263570308685,-0.98239666223526,-0.03243314474821091,-0.005852118134498596,-0.05990070104598999,0.9954677328386818,0.08604326741094503,-0.037392755295470134,0.015564021287899849
1728407180838950100,0.2219501953125,0.39329254627227783,-0.14115753769874573,0.11784033477306366,-0.07851500064134598,-0.17387840151786804,-0.9816321730613708,-0.022925376892089844,0.02859961986541748,-0.06110769510269165,0.9952659830789979,0.08797059057154487,-0.038014420782632376,0.016176339060132484
1728407180848981200,0.231981201171875,0.35234591364860535,-0.2217109650373459,0.12989112734794617,-0.08049587905406952,-0.17745254933834076,-0.9808318018913269,0.015340901911258698,0.0327230840921402,-0.032244980335235596,0.9950550857234874,0.08982345801558293,-0.03893391941314545,0.016772303051215957
1728407180859012000,0.24201220703125,0.3546624481678009,-0.26262345910072327,0.19194278120994568,-0.08320997655391693,-0.1807699203491211,-0.9799991250038147,0.057437919080257416,0.01737894117832184,-0.0011867880821228027,0.9948329734564599,0.09156242298736475,-0.0402088104609951,0.017517425361664122
1728407180869042200,0.252042236328125,0.3768870532512665,-0.263874888420105,0.20520958304405212,-0.0861748605966568,-0.1841936856508255,-0.9791049957275391,0.06115049123764038,0.019231051206588745,0.013757705688476562,0.9945904293518084,0.09337130883402994,-0.041584912588182796,0.018501127285902814
1728407180879073000,0.262072998046875,0.35101479291915894,-0.2563702166080475,0.12444949150085449,-0.08902285248041153,-0.1876184642314911,-0.9781994819641113,0.03129889816045761,0.021801337599754333,0.013477802276611328,0.9943477648188769,0.0951751467749132,-0.04291791996956835,0.01929168582262956
1728407180889103000,0.27210302734375,0.30028796195983887,-0.22629085183143616,0.08133318275213242,-0.09156417846679688,-0.1907346248626709,-0.9773619174957275,-0.0053443387150764465,-0.001419156789779663,0.013113260269165039,0.9941283284037874,0.09680693049418578,-0.044130084646849914,0.01974159849539917
1728407180899130000,0.282130126953125,0.2617455720901489,-0.22037863731384277,0.08072731643915176,-0.09389989078044891,-0.19341810047626495,-0.9766126275062561,-0.0197933167219162,-0.016176506876945496,0.009266436100006104,0.9939325739840129,0.09821479916028701,-0.04524968065315491,0.020107087268104763
1728407180909161200,0.2921611328125,0.2497301995754242,-0.2333730012178421,0.060162656009197235,-0.09623082727193832,-0.19582514464855194,-0.9759058356285095,0.009881377220153809,0.008111655712127686,-0.007828354835510254,0.9937489039970968,0.09948044634233973,-0.04637604292516561,0.02039870715000473
1728407180919191000,0.30219091796875,0.23727791011333466,-0.26478034257888794,0.023934606462717056,-0.09874565154314041,-0.19815753400325775,-0.9751835465431213,0.04285275191068649,0.022559508681297302,-0.03174400329589844,0.9935641688430031,0.1007050112892553,-0.04761031675293693,0.020544362181541122
1728407180929222100,0.31222216796875,0.21876254677772522,-0.2726667523384094,-0.005566825158894062,-0.10140679031610489,-0.2003755122423172,-0.9744569063186646,0.041882291436195374,0.015210241079330444,-0.03950488567352295,0.9933823809581382,0.10186462509690677,-0.048940089570390186,0.02048966214111681
1728407180939252200,0.322252197265625,0.19459722936153412,-0.29219216108322144,-0.004851234145462513,-0.10411687195301056,-0.20241449773311615,-0.9737494587898254,0.04045725613832474,0.006507024168968201,-0.04642266035079956,0.9932069083544469,0.10293098146396279,-0.0503038078878378,0.02036654194423468
1728407180949281800,0.33228173828125,0.15876013040542603,-0.32662761211395264,-0.02345421351492405,-0.10710535943508148,-0.20414191484451294,-0.9730644822120667,0.04933562129735947,-0.014562174677848816,-0.03726571798324585,0.9930378746972384,0.10384048768721482,-0.051816065057222326,0.020197958651180768
1728407180959313000,0.34231298828125,0.11471404135227203,-0.3606741726398468,-0.0897355005145073,-0.1103394478559494,-0.2055392861366272,-0.9724087715148926,0.04461989551782608,-0.03449659049510956,-0.026187419891357422,0.992881184014178,0.10457195011544036,-0.053482004906018024,0.019780140828677004
1728407180969342700,0.3523427734375,0.05868539214134216,-0.3671320676803589,-0.14908483624458313,-0.11360970139503479,-0.20651350915431976,-0.9718255996704102,0.023857533931732178,-0.03231692314147949,-0.030158042907714844,0.9927494037966826,0.10506804931719219,-0.055207822778396316,0.019009756771154573
1728407180979373600,0.36237353515625,0.031609565019607544,-0.39466169476509094,-0.18433870375156403,-0.11694224923849106,-0.20707905292510986,-0.9713098406791687,0.022932887077331543,-0.03323148190975189,-0.029453158378601074,0.9926382445545153,0.10534111282867636,-0.056994204615558715,0.018003385010577414
1728407180989403600,0.372403564453125,-0.01318000815808773,-0.49191343784332275,-0.16316577792167664,-0.120901919901371,-0.2075682133436203,-0.9707204103469849,0.05327500402927399,-0.044445812702178955,-0.04301249980926514,0.9925120791951433,0.10556380618635983,-0.059127550581049584,0.016730673839252842
1728407180999434800,0.382434814453125,-0.24385297298431396,-0.6189388036727905,0.7106208205223083,-0.12577493488788605,-0.2059297263622284,-0.970450222492218,0.17037640511989594,-0.052157312631607056,-0.04074978828430176,0.9924232956542814,0.10486093752201413,-0.06147420680425984,0.017919276115226625
1728407181009465600,0.392465576171875,-0.22452187538146973,-1.0646408796310425,0.8215188980102539,-0.13637986779212952,-0.2024548202753067,-0.9697487354278564,0.4589964747428894,-0.09576283395290375,0.00928419828414917,0.9921782074427126,0.1034579338474563,-0.06649883294213864,0.021373306337958364
1728407181019495700,0.40249560546875,-0.25624340772628784,-0.9275305867195129,0.5728504657745361,-0.14751781523227692,-0.19918538630008698,-0.9687949419021606,0.132335364818573,-0.13276945054531097,-0.051041483879089355,0.9918715715377819,0.10216628603471643,-0.07186493140503956,0.024255817468592292
1728407181029526800,0.41252685546875,-0.15959088504314423,-0.6912466287612915,0.39591777324676514,-0.15631546080112457,-0.1963094174861908,-0.9680020809173584,-0.15764933824539185,-0.07293178141117096,-0.0965425968170166,0.9916247757768528,0.10098847531703899,-0.07615952326619331,0.026102605961944556
1728407181039557600,0.4225576171875,-0.006000591441988945,-0.5251585245132446,0.3150697946548462,-0.16273899376392365,-0.19499588012695312,-0.9672086834907532,-0.20731711387634277,-0.07670198380947113,-0.11112993955612183,0.9913876338102019,0.10054236974408837,-0.07928992988710311,0.027475384471040847
1728407181049587700,0.432587646484375,-0.2492382675409317,0.012295564636588097,-0.4763455092906952,-0.16613955795764923,-0.19417455792427063,-0.9667956829071045,-0.1458873599767685,-0.12943370640277863,-0.10176205635070801,0.9912789944951262,0.10019984795328522,-0.08100710439528873,0.027636162068882704
1728407181059618800,0.442618896484375,-0.35082873702049255,-0.6736978888511658,-0.959214448928833,-0.16740486025810242,-0.19276489317417145,-0.9668595194816589,-0.145308718085289,-0.2863151729106903,-0.049589455127716064,0.9914092034709562,0.09913767747183656,-0.08210948382355165,0.02318321982563153
1728407181069648600,0.452648681640625,-0.500042200088501,-0.9445046186447144,-0.16839994490146637,-0.17389966547489166,-0.18966460227966309,-0.9663261771202087,0.16031937301158905,-0.30238544940948486,0.028520941734313965,0.9913534739033609,0.09734931674343664,-0.08579062828461151,0.019527556688671198
1728407181079679700,0.4626796875,-0.5099908709526062,-1.1011346578598022,0.684338390827179,-0.18470901250839233,-0.18408969044685364,-0.9653981328010559,0.3553633689880371,-0.12015517055988312,0.013066589832305908,0.991105019395829,0.09473481509709862,-0.09124827308157647,0.02024478757389512
1728407181089710600,0.472710693359375,-0.25679221749305725,-0.8621751666069031,0.7528716325759888,-0.19567707180976868,-0.1787974238395691,-0.9642313122749329,0.13502342998981476,-0.04510992765426636,-0.039934396743774414,0.9907405776358804,0.09251769514715934,-0.09656517469928294,0.023427950155797378
1728407181099740700,0.48274072265625,0.043302375823259354,-0.5487543940544128,0.41206106543540955,-0.203545480966568,-0.1766301393508911,-0.9630010724067688,-0.15801148116588593,-0.04941342771053314,-0.13970589637756348,0.9903675570199404,0.09180210500634899,-0.10035859382324583,0.025934551242645116
1728407181109771800,0.492771728515625,0.26051032543182373,-0.4903334379196167,0.1803087741136551,-0.20880860090255737,-0.1775154024362564,-0.9617105722427368,-0.19776180386543274,-0.05716463923454285,-0.16457116603851318,0.9900076258245373,0.09248184474132551,-0.10291654473129865,0.027206775482228364
1728407181119801900,0.5028017578125,0.3519308567047119,-0.35025590658187866,0.3799278736114502,-0.21345430612564087,-0.18007723987102509,-0.9602132439613342,-0.08447350561618805,-0.05608290433883667,-0.14040321111679077,0.9895985548817762,0.09399317291756015,-0.10516019675769243,0.02830814630374645
1728407181129832700,0.512832763671875,0.35679006576538086,-0.4013789892196655,0.8468612432479858,-0.21801282465457916,-0.18212686479091644,-0.9588014483451843,0.08741289377212524,0.013044372200965881,-0.10224896669387817,0.9891476808297811,0.09546726942845525,-0.10716939141231391,0.0314249634726561
1728407181139863800,0.52286376953125,0.40724650025367737,-0.423435777425766,1.0292598009109497,-0.22411155700683594,-0.18378280103206635,-0.9570778012275696,0.23544888198375702,0.052648887038230896,-0.052779436111450195,0.9885560793154259,0.09695425849333929,-0.10982247616248497,0.03599740399838743
1728407181149894000,0.532893798828125,0.4077455997467041,-0.5978187918663025,1.1437946557998657,-0.23092812299728394,-0.18526674807071686,-0.9551693201065063,0.24313519895076752,-0.014669030904769897,-0.03967326879501343,0.9878646490001195,0.09848885175932244,-0.11276207699849002,0.041328425267110724
1728407181159924700,0.5429248046875,0.3364260792732239,-1.0165972709655762,1.0514756441116333,-0.24077115952968597,-0.18621903657913208,-0.9525501132011414,0.37266817688941956,-0.08805756270885468,-0.024439692497253418,0.9869596243013973,0.09989354549201701,-0.1172442922059568,0.0467517518431476
1728407181169955800,0.552955810546875,0.025258861482143402,-1.1974883079528809,0.6970421671867371,-0.2530406415462494,-0.18584749102592468,-0.9494372606277466,0.28448906540870667,-0.15401139855384827,0.007176518440246582,0.9859796845788191,0.10056819443595469,-0.12315600741317485,0.05062240513276894
1728407181179985700,0.562985595703125,-0.14993485808372498,-1.2140064239501953,0.5736592411994934,-0.265785276889801,-0.18349500000476837,-0.9464077949523926,0.07936868071556091,-0.19535009562969208,-0.004779338836669922,0.9850844317472953,0.1001092596497894,-0.12951534724947936,0.05303287835950671
1728407181190016800,0.573016845703125,-0.2123183310031891,-1.0834153890609741,0.5862645506858826,-0.277710497379303,-0.18017341196537018,-0.9436177015304565,0.018509507179260254,-0.17602762579917908,-0.07112228870391846,0.9842583706637656,0.09912423279510404,-0.13551947232008746,0.055173968287128956
1728407181200046800,0.583046875,-0.15117377042770386,-0.9854645133018494,0.6711557507514954,-0.2885725796222687,-0.17660462856292725,-0.9410295486450195,0.009687751531600952,-0.0930790901184082,-0.09528636932373047,0.983460443269008,0.09804679252934671,-0.14096822227380124,0.05762171139734114
1728407181210077700,0.59307763671875,0.024634016677737236,-0.9486375451087952,0.7657171487808228,-0.2988983690738678,-0.17385819554328918,-0.9383139610290527,0.03678297996520996,-0.011078178882598877,-0.09147119522094727,0.9825880467013072,0.0974853721006953,-0.14608088277059791,0.060643533333529114
1728407181220108800,0.60310888671875,0.24484294652938843,-0.9298734068870544,0.8486950993537903,-0.30907586216926575,-0.1726221889257431,-0.9352399110794067,0.06936034560203552,0.041869744658470154,-0.06239503622055054,0.9815759473670013,0.09781785493887,-0.1510354822144705,0.06425351256669869
1728407181230139000,0.613138916015625,0.4788666367530823,-0.9164920449256897,0.8983833193778992,-0.31922027468681335,-0.1732870191335678,-0.931702733039856,0.08750036358833313,0.04001687467098236,-0.020308375358581543,0.9803955531580846,0.09924831088488567,-0.1558794284276984,0.06838035794086013
1728407181240169700,0.623169677734375,0.588949978351593,-0.873598575592041,0.9096889495849609,-0.3291384279727936,-0.17539243400096893,-0.9278498888015747,0.07523223757743835,-0.002830103039741516,0.0006189942359924316,0.9790932630883519,0.10150682114817877,-0.1605348382153947,0.07280929687513704
1728407181250200800,0.633200927734375,0.6328034400939941,-0.879201352596283,0.8945651054382324,-0.338833212852478,-0.17806123197078705,-0.9238432049751282,0.0379452109336853,-0.0584956556558609,0.0496213436126709,0.9777255154381103,0.10410665613732496,-0.16504607319118958,0.0772943055474927
1728407181260230700,0.643230712890625,0.6298691034317017,-0.8997041583061218,0.855437159538269,-0.34859806299209595,-0.18089531362056732,-0.9196500778198242,0.006373971700668335,-0.11068476736545563,0.06412023305892944,0.9762985146426149,0.10682666813692217,-0.16959664166297153,0.08164701784376995
1728407181270261800,0.65326171875,0.5769563317298889,-0.9217127561569214,0.830039381980896,-0.35849469900131226,-0.18348081409931183,-0.9153230786323547,-0.011149406433105469,-0.12715749442577362,0.032800495624542236,0.9748348870610537,0.10944159168167514,-0.17424405757324093,0.08578242486122468
1728407181280291800,0.663291748046875,0.5370506048202515,-0.9401506185531616,0.8613120913505554,-0.36856821179389954,-0.1854827105998993,-0.9109081625938416,-0.014259487390518188,-0.10446469485759735,0.017994284629821777,0.9733337867303075,0.11180940701623139,-0.17901001300923847,0.08986380442537269
1728407181290322700,0.67332275390625,0.5464470386505127,-0.9311038255691528,0.9298695921897888,-0.37876856327056885,-0.18705889582633972,-0.9063902497291565,-0.001510918140411377,-0.08044281601905823,-0.005139291286468506,0.971763223481927,0.11406498031487114,-0.1838315576462255,0.09418788034956885
1728407181300353800,0.683353759765625,0.5620900988578796,-0.908545196056366,0.9944273233413696,-0.3889036476612091,-0.1883958876132965,-0.901809811592102,0.002886861562728882,-0.060947880148887634,-0.035064637660980225,0.9701189677842736,0.11631806201759184,-0.1885873900161626,0.09886354400815418
1728407181310383900,0.6933837890625,0.592991054058075,-0.8591403961181641,1.016541838645935,-0.3987899422645569,-0.18961644172668457,-0.8972247242927551,-0.011167913675308228,-0.05595839023590088,-0.04375433921813965,0.968420820530725,0.1186053859379909,-0.19318489442233694,0.10379539305236549
1728407181320414700,0.703414794921875,0.5891895890235901,-0.8014904260635376,1.0120656490325928,-0.4081520140171051,-0.1908387988805771,-0.8927443623542786,-0.03404763340950012,-0.06456269323825836,-0.03767561912536621,0.9667132231064252,0.12093240492059892,-0.19749218289717158,0.1088020660095533
1728407181330445800,0.71344580078125,0.547721803188324,-0.7437307238578796,1.0303086042404175,-0.4169931411743164,-0.1917068362236023,-0.888462245464325,-0.05738729238510132,-0.07819052040576935,0.02357882261276245,0.96502448933735,0.12310073891640129,-0.2015318142086577,0.11383717783242274
1728407181340476000,0.723475830078125,0.5193172097206116,-0.695021390914917,1.075556993484497,-0.4253726899623871,-0.19200018048286438,-0.8844173550605774,-0.06696733832359314,-0.09018048644065857,0.09567523002624512,0.9633499224912672,0.12502058575152158,-0.20533190308497035,0.1190193900831377
1728407181350506800,0.7335068359375,0.5587708353996277,-0.6379538774490356,1.1281802654266357,-0.4334179162979126,-0.1920013427734375,-0.8805023431777954,-0.07949095964431763,-0.10514821112155914,0.1416412591934204,0.9616417578967293,0.12687584916084452,-0.20892901525864369,0.12448459938560774
1728407181360536800,0.743536865234375,0.5958319306373596,-0.5223720073699951,1.1632263660430908,-0.4407804012298584,-0.19201527535915375,-0.8768367767333984,-0.10487383604049683,-0.1193859875202179,0.16048240661621094,0.9599255734456251,0.12879417139386398,-0.21211709219708968,0.13023553786621464
1728407181370567700,0.753567626953125,0.6368318200111389,-0.34901565313339233,1.1640431880950928,-0.44682982563972473,-0.19229096174240112,-0.8737089037895203,-0.1306847333908081,-0.10911577939987183,0.13846415281295776,0.9582783333337469,0.1308299463427575,-0.21454386630130787,0.13622399999353607
1728407181380598800,0.763598876953125,0.6446741223335266,-0.20092685520648956,1.1498823165893555,-0.4514283239841461,-0.19267523288726807,-0.871256947517395,-0.1321592628955841,-0.06889082491397858,0.10760033130645752,0.9567546084327082,0.13284161985885357,-0.21615878648053852,0.14229916584092855
1728407181390628900,0.77362890625,0.6422807574272156,-0.11516615003347397,1.1228363513946533,-0.45493611693382263,-0.19313696026802063,-0.8693280220031738,-0.0994461178779602,-0.014611348509788513,0.06119197607040405,0.9553292295523436,0.13480922613835034,-0.21716919666926124,0.148357666826016
1728407181400659700,0.78365966796875,0.6374894380569458,-0.08036401122808456,1.0901814699172974,-0.45789650082588196,-0.19363237917423248,-0.8676619529724121,-0.04573503136634827,0.04080045223236084,0.027512967586517334,0.9539537876060452,0.13672801566386444,-0.21788637478271067,0.15428233318061113
1728407181410689800,0.793689697265625,0.6544127464294434,-0.05699477344751358,1.0784680843353271,-0.4605615437030792,-0.19424834847450256,-0.8661123514175415,0.008489459753036499,0.09683634340763092,0.027809739112854004,0.9525869228084506,0.13867209616057327,-0.21843502412440863,0.1601073460198109
1728407181420721000,0.803720947265625,0.691022515296936,-0.040086258202791214,1.0895236730575562,-0.463090181350708,-0.19506888091564178,-0.8645783066749573,0.03485232591629028,0.12905946373939514,0.046234130859375,0.9511786716869791,0.14073290476031444,-0.21887235128021776,0.16597663846993801
1728407181430751700,0.813751708984375,0.746549665927887,-0.0067381542176008224,1.1225261688232422,-0.4654802680015564,-0.19613640010356903,-0.8630519509315491,0.02161744236946106,0.12498477101325989,0.0887293815612793,0.9497045315341284,0.1429583209626892,-0.21917332891569824,0.17200981987242123
1728407181440781800,0.82378173828125,0.7988440990447998,0.06791377067565918,1.1310967206954956,-0.4674389064311981,-0.19756586849689484,-0.861666202545166,-0.019880980253219604,0.088190957903862,0.12617725133895874,0.9481836681419821,0.14538585762293707,-0.21915715303042468,0.1782719074756355
1728407181450813000,0.83381298828125,0.8003376126289368,0.19206394255161285,1.0871089696884155,-0.46849507093429565,-0.1992756575345993,-0.8606982827186584,-0.07528230547904968,0.05512596666812897,0.15301084518432617,0.9467309837447508,0.1478528835435851,-0.21861008728246997,0.184525247489036
1728407181460843800,0.84384375,0.7857054471969604,0.2804008722305298,0.9746700525283813,-0.4684959650039673,-0.2013019472360611,-0.8602262139320374,-0.09656742215156555,0.04773759841918945,0.15627717971801758,0.9454242785549091,0.15028232978441605,-0.2174905266821607,0.19048917397217113
1728407181470873900,0.853873779296875,0.6582257747650146,0.3271105885505676,0.8504804968833923,-0.4676637351512909,-0.20329108834266663,-0.8602112531661987,-0.06439489126205444,0.08967424929141998,0.11286622285842896,0.9443300109084319,0.15243052055391149,-0.21600768555466324,0.1958225112323266
1728407181480904700,0.86390478515625,0.5870996713638306,0.28574317693710327,0.782377302646637,-0.4666442275047302,-0.20482277870178223,-0.8604015707969666,0.012603759765625,0.1541179120540619,0.09537160396575928,0.9433861595631513,0.1541688862152568,-0.21454878877756597,0.20055766261467103
1728407181490934800,0.873934814453125,0.5918678045272827,0.23078672587871552,0.759950578212738,-0.46598947048187256,-0.20628374814987183,-0.8604073524475098,0.08587783575057983,0.171524316072464,0.05826801061630249,0.9424247811672435,0.15585348707364807,-0.21332136188442197,0.2050348676663393
1728407181500966000,0.8839658203125,0.5952529311180115,0.20949529111385345,0.7108320593833923,-0.46565529704093933,-0.20797830820083618,-0.8601803183555603,0.0952329933643341,0.16424672305583954,0.03596150875091553,0.9414224459317888,0.15765430637678274,-0.21226153061546255,0.20931794533149306
1728407181510996700,0.893996826171875,0.5332574844360352,0.2447936236858368,0.6360832452774048,-0.4651295840740204,-0.20976051688194275,-0.8600319623947144,0.04600122570991516,0.1593150645494461,0.02586442232131958,0.940495535762374,0.1593935250490778,-0.2111343597614575,0.21327005984137978
1728407181521026800,0.90402685546875,0.437272310256958,0.2847558259963989,0.5660948157310486,-0.4640951454639435,-0.21113398671150208,-0.86025470495224,-0.015457987785339355,0.14990057051181793,0.017984747886657715,0.9397408928366379,0.16075220576835236,-0.20983657248320045,0.2168279056531781
1728407181531058000,0.914057861328125,0.41657155752182007,0.30707207322120667,0.5123538374900818,-0.462666779756546,-0.21224437654018402,-0.860750675201416,-0.050425171852111816,0.12183615565299988,0.02893298864364624,0.9391241072054428,0.1618340715819341,-0.20840917040447166,0.22004832153702777
1728407181541088800,0.9240888671875,0.42750731110572815,0.35651451349258423,0.43076178431510925,-0.460822194814682,-0.2137390673160553,-0.8613701462745667,-0.05323106050491333,0.10299086570739746,0.019481658935546875,0.9385952237491694,0.16298359611173585,-0.2067638034922344,0.2229891970534627
1728407181551118800,0.934118896484375,0.41405460238456726,0.3597920536994934,0.3626463711261749,-0.45852845907211304,-0.21555311977863312,-0.8621417880058289,-0.0415630042552948,0.13480371236801147,-0.024683773517608643,0.9381866352276431,0.16414115822542474,-0.20490676127763816,0.22555859446343143
1728407181561150000,0.94414990234375,0.4170215129852295,0.33855554461479187,0.33617907762527466,-0.4562298655509949,-0.21757127344608307,-0.86285400390625,0.008231908082962036,0.17446529865264893,-0.014373779296875,0.9378067076251351,0.1653494175933359,-0.20305801828294465,0.22791592555913284
1728407181571179800,0.9541796875,0.3645644187927246,0.307356059551239,0.3250529170036316,-0.4541511833667755,-0.21946799755096436,-0.8634700179100037,0.058963894844055176,0.20297333598136902,0.00009715557098388672,0.9374286643667401,0.1664915996322712,-0.20135920152548764,0.2301360039341448
1728407181581211000,0.9642109375,0.2997731864452362,0.2704112231731415,0.3188490867614746,-0.4523528516292572,-0.22087393701076508,-0.864055335521698,0.06827396154403687,0.21864625811576843,0.03197824954986572,0.93707052985955,0.16738784864688894,-0.19988407900095084,0.23222083546347896
1728407181591241700,0.97424169921875,0.25702226161956787,0.25884589552879333,0.3087221384048462,-0.4507693350315094,-0.2218320667743683,-0.8646372556686401,0.04441261291503906,0.20130908489227295,0.026029348373413086,0.936729462386518,0.16806134049335864,-0.19858693897394522,0.2342146694769263
1728407181601271800,0.984271728515625,0.2901826500892639,0.24155639111995697,0.2277575135231018,-0.44918835163116455,-0.2229345142841339,-0.8651763200759888,0.007889002561569214,0.16302861273288727,-0.017254769802093506,0.9364366689107768,0.1687519245203719,-0.19731862286825555,0.2359545661475623
1728407181611303000,0.994302978515625,0.4020916223526001,0.24562835693359375,0.1430729776620865,-0.4475066363811493,-0.22508719563484192,-0.8654903769493103,-0.017794787883758545,0.11647522449493408,-0.03342020511627197,0.9361646994577241,0.16989629025262104,-0.19593383728597813,0.23736234543114318
1728407181621333800,1.004333740234375,0.4964579939842224,0.259255588054657,0.11535027623176575,-0.44558873772621155,-0.2284509241580963,-0.8655985593795776,-0.014250040054321289,0.07954049110412598,-0.02520960569381714,0.9358801503640528,0.17158997122141584,-0.19431316157762407,0.2385952065745685
1728407181631363800,1.01436376953125,0.4876357316970825,0.27034738659858704,0.17938677966594696,-0.44362345337867737,-0.23216432332992554,-0.8656200170516968,0.004490852355957031,0.047533079981803894,-0.018687963485717773,0.9355298976031133,0.17348687932730272,-0.1925936311040399,0.23998715254923164
1728407181641395000,1.02439501953125,0.35724279284477234,0.2819034457206726,0.22789892554283142,-0.4416874051094055,-0.23494486510753632,-0.8658597469329834,0.02324575185775757,0.006566658616065979,0.008941411972045898,0.9351785938180687,0.17494744567304576,-0.19095419999822222,0.2416007241961445
1728407181651424800,1.0344248046875,0.17375153303146362,0.3065158426761627,0.21765001118183136,-0.4396376311779022,-0.2362944334745407,-0.866535484790802,0.014863550662994385,-0.021762117743492126,0.06683754920959473,0.9349524580284008,0.17563600322933617,-0.18943139670442397,0.24317032259973884
1728407181661456000,1.044455810546875,-0.01876845210790634,0.3234423100948334,0.2142488956451416,-0.43739378452301025,-0.2359965592622757,-0.8677513003349304,0.0007025599479675293,0.006061956286430359,0.10467445850372314,0.9349323808098634,0.17538781740730536,-0.18805175599639556,0.24449369335664994
1728407181671487000,1.054487060546875,-0.052839603275060654,0.36128076910972595,0.2841947078704834,-0.43502581119537354,-0.23449908196926117,-0.8693461418151855,0.017362326383590698,0.05172939598560333,0.10280555486679077,0.9349866864159694,0.17451656027342186,-0.18673749521247668,0.24591269497139784
1728407181681516800,1.064516845703125,-0.03896985948085785,0.4319836497306824,0.342023640871048,-0.43228745460510254,-0.23274406790733337,-0.8711817860603333,0.0437072217464447,0.06414979696273804,0.05094552040100098,0.93500747861499,0.17352247596248455,-0.1852000151054116,0.2476931792401893
1728407181691548000,1.0745478515625,-0.02621012181043625,0.4768648147583008,0.37632328271865845,-0.42911267280578613,-0.23091502487659454,-0.8732357025146484,0.03656512498855591,0.05382160842418671,0.06883805990219116,0.9350095347062676,0.1724708865837688,-0.18340104822173708,0.24974998082597394
1728407181701578800,1.084578857421875,-0.04441489279270172,0.48515456914901733,0.3674190044403076,-0.4257321059703827,-0.22903230786323547,-0.8753835558891296,0.034100115299224854,0.006315112113952637,0.07341206073760986,0.9350072892630173,0.1713720707976497,-0.18149337057070772,0.25189889071134103
1728407181711608800,1.09460888671875,-0.08744625002145767,0.4673004746437073,0.30817434191703796,-0.4223558306694031,-0.22701714932918549,-0.8775413036346436,0.02893856167793274,-0.04822079837322235,0.07384556531906128,0.935058457463862,0.17016216343798166,-0.1796501461220187,0.2538433501396235
1728407181721640000,1.104639892578125,-0.21302542090415955,0.5018999576568604,0.20785623788833618,-0.4186702370643616,-0.22462968528270721,-0.87991863489151,0.022842079401016235,-0.08925877511501312,0.052144527435302734,0.9352869761515743,0.1686220677816956,-0.1777843990470972,0.25533838442395523
1728407181731670000,1.114669921875,-0.3966652750968933,0.5545117259025574,0.058479271829128265,-0.4142911732196808,-0.22135624289512634,-0.8828160762786865,0.02029407024383545,-0.0919066071510315,0.09360092878341675,0.9358383628027779,0.1663868314814164,-0.17580495030783908,0.2561535428941339
1728407181741700900,1.124700927734375,-0.60514897108078,0.5394363403320312,-0.12686821818351746,-0.409309059381485,-0.21703006327152252,-0.8862076997756958,0.02713748812675476,-0.018657103180885315,0.13367468118667603,0.936785323762628,0.16334075273159238,-0.1738273847881123,0.25600216307586726
1728407181751732000,1.13473193359375,-0.7346856594085693,0.44148579239845276,-0.20375287532806396,-0.404497355222702,-0.21172434091567993,-0.8896936178207397,0.0555594265460968,0.1318904459476471,0.09645015001296997,0.9379943306071542,0.1596734525147064,-0.17221378469825074,0.2549773854002388
1728407181761761800,1.14476171875,-0.6656723618507385,0.33104801177978516,0.00375743443146348,-0.4008755087852478,-0.20579670369625092,-0.8927186131477356,0.13485386967658997,0.2588668465614319,0.03673100471496582,0.9390290755344936,0.1559264525619677,-0.1712531122767925,0.2541333093513991
1728407181771793000,1.15479296875,-0.41567718982696533,0.34912076592445374,0.24860791862010956,-0.39813563227653503,-0.2003680169582367,-0.895176351070404,0.2104983627796173,0.27692145109176636,-0.07337534427642822,0.9395695005704365,0.15281239115974332,-0.1704705181816942,0.25455340286233014
1728407181781822700,1.16482275390625,-0.1637667864561081,0.38853195309638977,0.24076838791370392,-0.3953404128551483,-0.19684435427188873,-0.8971946835517883,0.18109184503555298,0.2114623636007309,-0.18924641609191895,0.9397572663649928,0.1508170998588418,-0.16928341201854652,0.25583894170893595
1728407181791853800,1.174853759765625,-0.06330276280641556,0.3335464596748352,0.06700484454631805,-0.39227294921875,-0.1952272355556488,-0.8988928198814392,0.09037789702415466,0.13840359449386597,-0.21083319187164307,0.9399585959577728,0.14967903358874404,-0.1677789786445945,0.2567573000039415
1728407181801885000,1.184885009765625,0.03140317648649216,0.29877009987831116,-0.04667990654706955,-0.3896091878414154,-0.19503197073936462,-0.9000928997993469,0.05522817373275757,0.06055635213851929,-0.14727044105529785,0.9402005313611499,0.1492107201534805,-0.16640225684183207,0.25703987309663867
1728407181811914800,1.194914794921875,-0.2373579740524292,0.26387977600097656,-0.13768091797828674,-0.38688895106315613,-0.19474539160728455,-0.9013274312019348,0.05497989058494568,-0.03181701898574829,-0.11213088035583496,0.9406138425476686,0.14858330989321833,-0.16510382296101836,0.2567282999392039
1728407181821945900,1.20494580078125,-0.5522976517677307,0.09804950654506683,-0.12266868352890015,-0.3848768472671509,-0.19155855476856232,-0.9028704762458801,0.07185813784599304,-0.07824726402759552,-0.07904791831970215,0.9412488372737366,0.14651287757819176,-0.16461692234092587,0.2559019820056916
1728407181831977000,1.21497705078125,-0.7806485295295715,-0.0635516345500946,-0.27165868878364563,-0.38441145420074463,-0.18626590073108673,-0.9041752219200134,0.12443229556083679,-0.1091136485338211,-0.031005501747131348,0.9419709336775307,0.1435245641657452,-0.1652667088909889,0.2545159563408808
1728407181842006800,1.2250068359375,-0.9480050206184387,-0.19701403379440308,-0.573386549949646,-0.3848235309123993,-0.1798814982175827,-0.9052919149398804,0.06739503145217896,0.014842525124549866,0.02850663661956787,0.9430313363909345,0.13986439089610653,-0.16670927207946318,0.25167020354714614
1728407181852038000,1.235037841796875,-0.7281911969184875,-0.19892433285713196,-0.6618887186050415,-0.385599285364151,-0.17451336979866028,-0.9060122966766357,0.027872294187545776,0.16648733615875244,0.07703274488449097,0.9442513058453009,0.13658296726652838,-0.16834174923712472,0.247781420453827
1728407181862067700,1.245067626953125,-0.35171887278556824,-0.05716739967465401,-0.4889174997806549,-0.3857369124889374,-0.1719057857990265,-0.9064521193504333,0.03870636224746704,0.23120152950286865,0.09007632732391357,0.9452373292250561,0.13469127577438805,-0.16921053265121272,0.24444299134868683
1728407181872098600,1.2550986328125,-0.05603819340467453,0.09403064101934433,-0.11886542290449142,-0.3850207030773163,-0.1713208258152008,-0.906867265701294,0.04326969385147095,0.26395702362060547,0.05942457914352417,0.9457665909320081,0.13399903659847318,-0.16914676012295302,0.24281516239321135
1728407181882130000,1.2651298828125,0.10247834771871567,0.22086213529109955,0.17492838203907013,-0.3836374580860138,-0.17141179740428925,-0.9074360728263855,0.055054813623428345,0.2090553343296051,-0.036457359790802,0.9458291248512966,0.1339024368259272,-0.1683807857846298,0.24315676779030154
1728407181892159700,1.27515966796875,0.06572992354631424,0.27847006916999817,0.17111900448799133,-0.38160982728004456,-0.17153868079185486,-0.9082667231559753,0.02438637614250183,0.04034370183944702,-0.07365167140960693,0.9457506558488582,0.13387289182690673,-0.16716667224176712,0.24431325139010968
1728407181902190600,1.285190673828125,-0.06476303935050964,0.21840064227581024,-0.07642262428998947,-0.3795163929462433,-0.1715478152036667,-0.9091417193412781,-0.04263317584991455,-0.14380547404289246,-0.0755842924118042,0.9458626286425587,0.13364995529346393,-0.16603264230118356,0.2447746804676553
1728407181912220700,1.295220703125,-0.457270085811615,0.09410478174686432,-0.2505358159542084,-0.3776264786720276,-0.1697750985622406,-0.9102607369422913,-0.06767067313194275,-0.21227435767650604,-0.05572742223739624,0.9464107886007248,0.1323071625457866,-0.16542198811595446,0.24379695780443858
1728407181922251800,1.305251708984375,-0.5651692748069763,-0.045255184173583984,-0.17158243060112,-0.3770630657672882,-0.16579627990722656,-0.9112272262573242,-0.014279037714004517,-0.19505873322486877,0.08908361196517944,0.9470454672357873,0.12996160226690634,-0.16582030018313046,0.24231898841625346
1728407181932282600,1.31528271484375,-0.6216016411781311,-0.06930939108133316,-0.02947961539030075,-0.3775211274623871,-0.1607750803232193,-0.9119370579719543,0.04442182183265686,-0.16300107538700104,0.07613682746887207,0.9474927995032336,0.12732074854147318,-0.1667959935508001,0.24130048346356212
1728407181942312700,1.325312744140625,-0.6626622080802917,0.03006715700030327,0.07230586558580399,-0.37772050499916077,-0.1548333466053009,-0.9128821492195129,0.01945948600769043,-0.13177238404750824,0.12529975175857544,0.9478611347516471,0.12427735399196134,-0.16767245659174054,0.24083264863463388
1728407181952343800,1.33534375,-0.8419062495231628,0.1804603934288025,0.18311120569705963,-0.376952201128006,-0.1475975662469864,-0.9143970608711243,-0.020371317863464355,-0.14746153354644775,0.20475655794143677,0.9482438591409558,0.12054223088545507,-0.16813993157550378,0.2408984531959026
1728407181962374700,1.345374755859375,-1.2448384761810303,0.29460081458091736,0.16222989559173584,-0.374973326921463,-0.1374201774597168,-0.916793704032898,-0.024089694023132324,-0.18226662278175354,0.2654417157173157,0.9488370121374227,0.11518020973337545,-0.16833498843664174,0.2410500620446352
1728407181972404700,1.35540478515625,-1.7698585987091064,0.2706366181373596,0.05968061834573746,-0.3724275827407837,-0.123167984187603,-0.9198517799377441,-0.011361360549926758,-0.20968714356422424,0.25519418716430664,0.949788473098259,0.10758260750645655,-0.1688196804211511,0.2404739072474392
1728407181982435600,1.365435546875,-2.3921968936920166,0.16824238002300262,-0.07749241590499878,-0.3703175485134125,-0.1039525642991066,-0.9230703115463257,0.042329996824264526,-0.20198605954647064,0.1823170781135559,0.95106134319095,0.09739162242714826,-0.17023431826278798,0.2387833644132251
1728407181992465700,1.375465576171875,-2.546647310256958,-0.197063148021698,-0.2102952003479004,-0.3700854480266571,-0.08101420104503632,-0.925458550453186,0.09796032309532166,-0.14074167609214783,0.13551098108291626,0.9524014191600465,0.08541898036901811,-0.17313098313831204,0.23592574476294295
1728407182002496800,1.385496826171875,-2.021538257598877,-0.5171511173248291,-0.5104542374610901,-0.3734242618083954,-0.06109888106584549,-0.9256463646888733,0.13689786195755005,-0.009701810777187347,-0.11649841070175171,0.9533927857882748,0.07525731798540757,-0.17751940650825213,0.23208923728377204
1728407182012527600,1.395527587890625,-1.299696683883667,-0.6325197815895081,-0.7233715653419495,-0.378502756357193,-0.047807104885578156,-0.9243647456169128,0.10170841217041016,0.2767500877380371,-0.27699023485183716,0.9542025414139544,0.06841922983844652,-0.1820341758426196,0.22733231834493245
1728407182022557700,1.4055576171875,-0.24769669771194458,-0.37873613834381104,-0.6048156023025513,-0.38306424021720886,-0.043100662529468536,-0.9227156043052673,0.07120519876480103,0.5611061453819275,-0.21609359979629517,0.9547683129399642,0.06585175813157469,-0.18521807524402814,0.22310371304014365
1728407182032588800,1.4155888671875,0.5734237432479858,0.07126221060752869,0.0035654199309647083,-0.3842730224132538,-0.0463092066347599,-0.9220573306083679,0.07616764307022095,0.6604145169258118,-0.25357139110565186,0.9549137863400134,0.06733911481805183,-0.18557152521316447,0.22173900596124316
1728407182042619600,1.42561962890625,1.1740548610687256,0.40978044271469116,0.6842374205589294,-0.38234925270080566,-0.05313457176089287,-0.9224889278411865,0.05973276495933533,0.5083959102630615,-0.13641005754470825,0.9544049366415687,0.07100763747653949,-0.18361227125225285,0.2244008705470524
1728407182052649700,1.435649658203125,1.0976074934005737,0.4843604266643524,0.8614609837532043,-0.3783874809741974,-0.06104082986712456,-0.9236325025558472,-0.018813997507095337,0.1724911332130432,-0.04615515470504761,0.9534911360543653,0.07540024849036099,-0.18027358604623148,0.22950147518453157
1728407182062680800,1.445680908203125,0.513653039932251,0.4199860095977783,0.6549496054649353,-0.3747073709964752,-0.06567791849374771,-0.9248139262199402,-0.10612750053405762,-0.08958014845848083,0.07685250043869019,0.9526847935837168,0.0780782289716352,-0.177473445145281,0.2340912487976538
1728407182072710700,1.455710693359375,-0.10008974373340607,0.2430410534143448,0.41891470551490784,-0.3718113303184509,-0.06546588987112045,-0.9259970784187317,-0.06909129023551941,-0.2829379439353943,0.09445405006408691,0.9522871239328383,0.07811280380952682,-0.17578354540426427,0.236955464154754
1728407182082741800,1.46574169921875,-0.44482752680778503,0.017045417800545692,0.07651259750127792,-0.3709207773208618,-0.06204119697213173,-0.9265897870063782,0.023554503917694092,-0.4161386489868164,0.053848087787628174,0.9521789226981023,0.07648661429493635,-0.1756556062319345,0.23801314496172013
1728407182092772600,1.475772705078125,-0.8112838268280029,-0.27792975306510925,-0.23307321965694427,-0.3718923330307007,-0.05639123544096947,-0.9265614151954651,0.05611178278923035,-0.31267300248146057,-0.024015367031097412,0.9524430330524577,0.07361281886046787,-0.17691927909134478,0.23692385934279517
1728407182102802700,1.485802734375,-0.5374370813369751,-0.5804759860038757,-0.0732039287686348,-0.3759138286113739,-0.05034402757883072,-0.925286054611206,0.08567652106285095,-0.04271923378109932,0.015038251876831055,0.9525246647715498,0.0708390143764258,-0.17982996059033485,0.23524386396496963
1728407182112833800,1.495833740234375,0.020855724811553955,-0.5597398281097412,0.16615033149719238,-0.38136327266693115,-0.04777263104915619,-0.9231900572776794,0.15710493922233582,0.13569387793540955,-0.19099152088165283,0.9520097600093815,0.07026810861606608,-0.1829409029436545,0.23510111301526893
1728407182122864600,1.50586474609375,0.5186098217964172,-0.34274718165397644,0.14775827527046204,-0.38573238253593445,-0.049657270312309265,-0.921273410320282,0.04144841432571411,0.24123145639896393,-0.1424626111984253,0.9512813318472623,0.07197031546480023,-0.18488798535664322,0.23600983663526484
1728407182132894700,1.515894775390625,0.8168915510177612,-0.14791135489940643,0.014112602919340134,-0.38787513971328735,-0.05568235367536545,-0.9200284481048584,-0.1187470555305481,0.2787659466266632,-0.0554811954498291,0.9507259476258677,0.07543465856168105,-0.1851901501438417,0.2369268038229821
1728407182142925800,1.52592578125,0.8689239621162415,0.03882725164294243,-0.024988194927573204,-0.38838544487953186,-0.06368914246559143,-0.9192934632301331,-0.16653084754943848,0.2166128158569336,0.008770942687988281,0.9503521676405929,0.07962665908313143,-0.18442578792603734,0.23765004509305984
1728407182152955600,1.53595556640625,0.6036555767059326,0.04333918169140816,0.07648516446352005,-0.3878275156021118,-0.07059317827224731,-0.9190247058868408,-0.13028454780578613,0.10291139781475067,0.11555790901184082,0.9500800586149926,0.08314027635900892,-0.1832357345850156,0.23845419476678556
1728407182162986800,1.54598681640625,0.13100972771644592,-0.02322285622358322,0.27417004108428955,-0.3878483474254608,-0.07328398525714874,-0.9188052415847778,-0.03454536199569702,0.008373185992240906,0.13418304920196533,0.9497276437686971,0.08470782868274107,-0.18281673138006777,0.23962453170683695
1728407182173017900,1.556017822265625,-0.12507665157318115,-0.1327192485332489,0.34361088275909424,-0.3888094425201416,-0.07190403342247009,-0.9185080528259277,0.06568941473960876,-0.10576921701431274,0.02563995122909546,0.949273351800754,0.08444193992109206,-0.18334540041468653,0.241110314595153
1728407182183047700,1.566047607421875,-0.2784979045391083,-0.134678915143013,0.1745443493127823,-0.39034292101860046,-0.0690845400094986,-0.9180738925933838,0.06859615445137024,-0.21802473068237305,-0.04040694236755371,0.9488889455947543,0.08346037595355776,-0.18438385391217016,0.2421706519087206
1728407182193078800,1.576078857421875,-0.5285239815711975,-0.12388484925031662,0.01572168432176113,-0.3915444016456604,-0.06495395302772522,-0.9178637862205505,0.010135829448699951,-0.20825457572937012,-0.0012493729591369629,0.9488443916273661,0.08156743084038823,-0.18551240994636647,0.24212840022692753
1728407182203108900,1.58610888671875,-0.5999303460121155,-0.0733204334974289,0.04507983848452568,-0.39251241087913513,-0.059559646993875504,-0.9178162217140198,-0.0029952824115753174,-0.13427264988422394,0.12792974710464478,0.948954528390646,0.07892774580445051,-0.18671447466974614,0.24164713853095654
1728407182213139700,1.5961396484375,-0.6410900354385376,0.010797376744449139,0.16450637578964233,-0.3928425908088684,-0.0535169318318367,-0.9180471897125244,0.008809506893157959,-0.07871563732624054,0.15332245826721191,0.9490406865766398,0.07595222645845383,-0.18763706407760342,0.24154762990556114
1728407182223170800,1.6061708984375,-0.6719699501991272,0.12053362280130386,0.28531667590141296,-0.39233288168907166,-0.046526264399290085,-0.9186458587646484,0.01876729726791382,-0.033917974680662155,0.16026878356933594,0.9490795692658239,0.07250288009019586,-0.18820307246761556,0.24201448612334756
1728407182233201000,1.616200927734375,-0.7480359673500061,0.1459801197052002,0.36700621247291565,-0.3911326229572296,-0.038837920874357224,-0.9195144772529602,0.04678761959075928,-0.051143061369657516,0.13129115104675293,0.949063735720909,0.0687120514813111,-0.18847126342172307,0.24297155266554127
1728407182243231700,1.626231689453125,-1.1824631690979004,0.05354057997465134,0.35816773772239685,-0.3902823328971863,-0.028655625879764557,-0.9202492237091064,0.09085920453071594,-0.10894803702831268,0.09891432523727417,0.9490250556923568,0.06372919143869364,-0.1892458484306284,0.24387740351568912
1728407182253262800,1.636262939453125,-1.615321159362793,-0.15239474177360535,0.23860855400562286,-0.3907432556152344,-0.014422668144106865,-0.9203867316246033,0.12936028838157654,-0.18018782138824463,0.096885085105896,0.9490382210655125,0.05676779715843304,-0.19126958887624948,0.24396703940039818
1728407182263292700,1.646292724609375,-1.879591464996338,-0.3518957495689392,0.10905376076698303,-0.39314374327659607,0.002395268762484193,-0.9194739460945129,0.11723440885543823,-0.2786403000354767,0.07860779762268066,0.9490394003504186,0.04859177969772793,-0.19468405065191904,0.24302528971237858
1728407182273323800,1.65632373046875,-2.1779160499572754,-0.45495501160621643,0.013355199247598648,-0.3968774080276489,0.021318629384040833,-0.9176239967346191,0.07789251208305359,-0.3202687203884125,0.05777597427368164,0.9490145875959989,0.0393716326043471,-0.19909260065273787,0.24121222156091593
1728407182283353600,1.666353515625,-2.47802472114563,-0.4346567988395691,0.015564292669296265,-0.40098801255226135,0.042741041630506516,-0.9150856733322144,0.013292789459228516,-0.27179062366485596,0.11351096630096436,0.9489516495785221,0.028825680583844195,-0.20402508382911827,0.238817190987775
1728407182293384700,1.676384765625,-2.730576992034912,-0.3043736219406128,0.04331309720873833,-0.40453603863716125,0.06675078719854355,-0.9120827317237854,-0.021336644887924194,-0.17875021696090698,0.1219063401222229,0.9488094315432706,0.016854680966877127,-0.2089845744970785,0.23622448745930658
1728407182303415800,1.686415771484375,-2.930887460708618,-0.06410013884305954,0.03533240407705307,-0.40598806738853455,0.09281328320503235,-0.9091531038284302,-0.03326660394668579,-0.06565253436565399,0.12068569660186768,0.9487373853516174,0.003509842295914611,-0.2130988552974323,0.23339666237817144
1728407182313445600,1.696445556640625,-2.9251468181610107,0.01804080232977867,0.01782877743244171,-0.4061237573623657,0.11973549425601959,-0.9059397578239441,-0.029575645923614502,0.04626496881246567,0.06313580274581909,0.9486385166203903,-0.010514896297808251,-0.2166092033010575,0.2303360691509448
1728407182323476500,1.7064765625,-2.6489663124084473,0.03516615182161331,0.024824902415275574,-0.4058349132537842,0.1452127993106842,-0.902336597442627,0.00022584199905395508,0.12721772491931915,-0.0031962990760803223,0.948407680554255,-0.023892426433512248,-0.21968355059684871,0.22735719410115723
1728407182333506600,1.716506591796875,-2.3704679012298584,0.0197610966861248,0.06981448084115982,-0.40541285276412964,0.1679023951292038,-0.8985817432403564,0.004274636507034302,0.15619440376758575,-0.0014426708221435547,0.9480233351885213,-0.035832946357335575,-0.22231760022896938,0.22481678226179053
1728407182343537700,1.72653759765625,-2.224365234375,0.03347552567720413,0.0930609479546547,-0.4049680233001709,0.1889016330242157,-0.8946044445037842,-0.0024567842483520508,0.10632550716400146,0.04972529411315918,0.9474734991363412,-0.04686578237640805,-0.22472514153216883,0.22270194754410164
1728407182353568500,1.736568603515625,-1.9060839414596558,-0.006474288180470467,-0.029763508588075638,-0.40477079153060913,0.20756949484348297,-0.8905478715896606,0.0030221939086914062,-0.013096138834953308,0.07673561573028564,0.9469270951183606,-0.056765038330467206,-0.22694446552099962,0.22046096219083655
1728407182363598600,1.7465986328125,-1.6651122570037842,-0.07273213565349579,-0.04284469038248062,-0.4052572548389435,0.2232295721769333,-0.886529803276062,0.019545674324035645,-0.08637340366840363,0.02672755718231201,0.9463757127121722,-0.06509684703322045,-0.22912331872368694,0.21826111021127764
1728407182373629700,1.756629638671875,-1.500381588935852,-0.13218721747398376,0.006419796030968428,-0.4061245024204254,0.23714891076087952,-0.8825096487998962,0.05740022659301758,-0.07726722955703735,0.02963489294052124,0.9457441459684767,-0.07245788490436388,-0.2312899341034523,0.21638570010241345
1728407182383660500,1.76666064453125,-1.3279849290847778,-0.23009192943572998,0.08271589875221252,-0.4076612591743469,0.24989213049411774,-0.8782745599746704,0.05890646576881409,-0.010115429759025574,0.05166018009185791,0.9449398805759993,-0.0790539493051422,-0.2336946517530668,0.21500206612399145
1728407182393690600,1.776690673828125,-0.9361550807952881,-0.28001928329467773,0.15737655758857727,-0.40956395864486694,0.26045963168144226,-0.8743100762367249,0.052432119846343994,0.03653755784034729,-0.017596662044525146,0.9440401041322254,-0.08434938612183708,-0.23607232752907947,0.21434369130903727
1728407182403721500,1.786721435546875,-0.6602849960327148,-0.3470103442668915,0.12086620926856995,-0.4119419455528259,0.2678561806678772,-0.8709517121315002,0.02116444706916809,0.054760485887527466,-0.11702436208724976,0.9431708395812949,-0.0878558668733284,-0.2383390124006654,0.21425361625570455
1728407182413751600,1.79675146484375,-0.5529502630233765,-0.32267677783966064,0.01066114567220211,-0.4146626591682434,0.27344173192977905,-0.8679196238517761,-0.02924594283103943,0.09119763970375061,-0.1876680850982666,0.942426265717158,-0.09045580401389491,-0.2405367389926584,0.21399198785675516
1728407182423782700,1.80678271484375,-0.4681214988231659,-0.34944480657577515,-0.09249906241893768,-0.417635440826416,0.27762773633003235,-0.8651609420776367,-0.06895199418067932,0.1249450147151947,-0.2561006546020508,0.9418482110473922,-0.09242957041903442,-0.24264437844394715,0.2133131836474496
1728407182433813500,1.8168134765625,-0.5780112743377686,-0.4635007977485657,-0.02706093154847622,-0.4213198721408844,0.28170132637023926,-0.8620522022247314,-0.06987574696540833,0.1389378309249878,-0.20688700675964355,0.9412005910963914,-0.09430224486039795,-0.2451142521921553,0.21252672143170875
1728407182443843600,1.826843505859375,-0.7762468457221985,-0.4910286068916321,0.1796909123659134,-0.4253104329109192,0.28797146677970886,-0.8580113053321838,-0.010251611471176147,0.1206895112991333,-0.14375871419906616,0.940182102966123,-0.09712557291579489,-0.24811482138749033,0.2122808082447855
1728407182453874700,1.836874755859375,-0.7080965042114258,-0.43341538310050964,0.23747697472572327,-0.428617000579834,0.29537615180015564,-0.8538386225700378,0.023374170064926147,0.009082585573196411,-0.09914904832839966,0.9389958734630449,-0.10045411890346227,-0.25097741376904004,0.21261701137323796
1728407182463904500,1.846904541015625,-0.8071765899658203,-0.3881913423538208,0.18723458051681519,-0.4314836859703064,0.3025825023651123,-0.8498621582984924,-0.01372191309928894,-0.08754029870033264,-0.013541162014007568,0.9378735115542416,-0.10375004886100954,-0.25358401590504054,0.21289521019517882
1728407182473935600,1.856935546875,-0.97635817527771,-0.334041029214859,0.24488909542560577,-0.43389174342155457,0.3111369013786316,-0.8455364108085632,-0.03823035955429077,-0.060236573219299316,0.11715811491012573,0.9367195064822861,-0.10786794252713522,-0.25611777812137787,0.21289599535921214
1728407182483966500,1.866966552734375,-0.9365780353546143,-0.3101193308830261,0.403584748506546,-0.43560582399368286,0.3207574784755707,-0.8410483002662659,-0.024187177419662476,0.009091883897781372,0.18269258737564087,0.935418650019566,-0.11249463785511447,-0.2584972086211827,0.21334524376860098
1728407182493996500,1.87699658203125,-0.6014274954795837,-0.14209118485450745,0.37470942735671997,-0.43625596165657043,0.32921311259269714,-0.8374362587928772,-0.029457420110702515,0.08205708861351013,0.030795633792877197,0.934218246624071,-0.11648667712451782,-0.26021670743554365,0.2143696842998933
1728407182504027600,1.887027587890625,-0.022768519818782806,0.11525288969278336,0.1362704634666443,-0.43545734882354736,0.33297717571258545,-0.8363630175590515,-0.10270479321479797,0.1748201847076416,-0.09398061037063599,0.9337421921847842,-0.11828180994776016,-0.2604378855994848,0.21519090750916692
1728407182514058500,1.89705859375,0.5153232216835022,0.24171122908592224,-0.01918117143213749,-0.43369626998901367,0.33109399676322937,-0.8380240797996521,-0.14705315232276917,0.3013981878757477,-0.0257301926612854,0.9340886382538879,-0.1173863479406844,-0.2592458351105713,0.21561672271361054
1728407182524088600,1.907088623046875,1.152727484703064,0.3031754195690155,0.08041492849588394,-0.43133267760276794,0.32427510619163513,-0.8419013023376465,-0.09092983603477478,0.4044542610645294,0.023831844329833984,0.9348999480402957,-0.11387204502463985,-0.2570652036765172,0.21659322319087546
1728407182534119700,1.91711962890625,1.8647792339324951,0.356594979763031,0.2518250346183777,-0.4279881715774536,0.3121104836463928,-0.8481822609901428,-0.010244160890579224,0.39014488458633423,-0.0033497214317321777,0.9359813973216047,-0.10731245689864101,-0.25375757889483547,0.21915708434926634
1728407182544149800,1.927149658203125,2.3357229232788086,0.40373724699020386,0.2793501317501068,-0.4238646328449249,0.2952220141887665,-0.8562608957290649,0.00475156307220459,0.29166164994239807,0.02708303928375244,0.937251316303616,-0.09816085502695414,-0.24946743571448118,0.22291330759027775
1728407182554180600,1.9371806640625,2.4419713020324707,0.4254191219806671,0.25750982761383057,-0.419478178024292,0.2755175530910492,-0.8649439811706543,-0.038453251123428345,0.20418834686279297,0.0962214469909668,0.9385885383061612,-0.08760651469936583,-0.24464894644566704,0.22698773713760406
1728407182564211700,1.947211669921875,2.369194507598877,0.4061698317527771,0.2130400836467743,-0.4151632487773895,0.25551775097846985,-0.8731266856193542,-0.06921163201332092,0.13921192288398743,0.13629502058029175,0.9398312315266476,-0.0770439592602831,-0.23979344297658695,0.23082600971300427
1728407182574241500,1.957241455078125,2.4163472652435303,0.3521348536014557,0.22657667100429535,-0.4113309979438782,0.23546908795833588,-0.8805459141731262,-0.04801949858665466,0.04633031785488129,0.03740626573562622,0.9408810005754399,-0.06650658405374806,-0.23516783421456205,0.23455487740871245
1728407182584272600,1.967272705078125,2.4533374309539795,0.32032066583633423,0.24347175657749176,-0.40781909227371216,0.21476778388023376,-0.8874448537826538,0.02077999711036682,-0.07740806043148041,-0.1303926706314087,0.9417380705807616,-0.055639387246689154,-0.23061187281482862,0.23843595474884596
1728407182594303500,1.977303466796875,2.4120919704437256,0.28539198637008667,0.14827066659927368,-0.4046919345855713,0.19381439685821533,-0.8936780095100403,0.06249842047691345,-0.16442587971687317,-0.10450619459152222,0.9424535345452741,-0.04471643477219968,-0.2261889205879868,0.242116367166613
1728407182604333600,1.98733349609375,2.1976358890533447,0.2973003387451172,0.04367475584149361,-0.40192273259162903,0.17334474623203278,-0.8991160988807678,0.05777612328529358,-0.15742972493171692,-0.04561656713485718,0.9431296186318847,-0.03421755335922113,-0.22197099449802607,0.24508058695151666
1728407182614364700,1.99736474609375,2.2392470836639404,0.448397696018219,0.0054749068804085255,-0.39851972460746765,0.15366336703300476,-0.9041955471038818,0.06838065385818481,-0.1005626916885376,0.050054311752319336,0.9438233278194603,-0.024349360717259887,-0.21750707776198278,0.24757903420437055
1728407182624394800,2.007394775390625,2.201117992401123,0.46322113275527954,-0.06697292625904083,-0.39431092143058777,0.1331656277179718,-0.909277617931366,0.05883130431175232,-0.001970455050468445,0.09397000074386597,0.9445795063263853,-0.014288151800481376,-0.21250184334381814,0.24981673066549326
1728407182634425600,2.017425537109375,2.2780003547668457,0.3844277858734131,-0.11654554307460785,-0.39050182700157166,0.11253441870212555,-0.913698136806488,0.044585198163986206,0.1847373992204666,0.10934633016586304,0.9452586231497578,-0.004231823296965026,-0.2076848789243425,0.25166513566224125
1728407182644456700,2.027456787109375,2.7679827213287354,0.3351556658744812,-0.05933471769094467,-0.3872828781604767,0.08900821208953857,-0.9176543354988098,0.04876673221588135,0.3026239573955536,0.028234779834747314,0.945729621796602,0.007363692725269222,-0.20277720887754178,0.25381633112583324
1728407182654486800,2.03748681640625,2.9336705207824707,0.2505315840244293,0.004222422372549772,-0.3845554292201996,0.062423594295978546,-0.9209888577461243,0.04376572370529175,0.3126985728740692,-0.05908322334289551,0.9458562018845449,0.02063436909635656,-0.19768612846809597,0.2566135671149109
1728407182664517600,2.047517578125,2.9216902256011963,0.15417669713497162,0.021165719255805016,-0.3827088475227356,0.03539225831627846,-0.9231908321380615,0.01596394181251526,0.2750478982925415,-0.03466439247131348,0.9456283785653717,0.0342535978916475,-0.19295404549814257,0.2595815118153561
1728407182674547700,2.057547607421875,2.7678356170654297,0.05868426337838173,-0.019760942086577415,-0.3815830647945404,0.008600138127803802,-0.9242945313453674,-0.015496313571929932,0.13124676048755646,-0.05393117666244507,0.9451425907802415,0.047808874313138364,-0.1885922466029208,0.26239823257004485
1728407182684578600,2.06757861328125,1.870376467704773,0.20485511422157288,-0.10145074129104614,-0.3805520832538605,-0.012801171280443668,-0.9246708750724792,-0.045778363943099976,0.03309544920921326,-0.07500869035720825,0.9447166852743305,0.058538382560867026,-0.18503464064321867,0.26428349280221486
1728407182694609700,2.077609619140625,1.8534440994262695,0.06748420000076294,0.012366633862257004,-0.37918972969055176,-0.03002302534878254,-0.924831748008728,-0.08540979027748108,-0.05782173573970795,0.09176290035247803,0.9443464466808327,0.06708311034273244,-0.18189001269724306,0.26575502147981395
1728407182704639700,2.0876396484375,1.72586190700531,0.07760164886713028,0.0700850561261177,-0.3785196542739868,-0.04671914130449295,-0.9244134426116943,-0.03908279538154602,-0.2405732423067093,-0.06501227617263794,0.9436887327649375,0.0755630422711579,-0.17911869987416737,0.2676907569457647
1728407182714670600,2.097670654296875,1.099661111831665,0.10638296604156494,0.021662132814526558,-0.37773656845092773,-0.05976879969239235,-0.9239820241928101,-0.032022833824157715,-0.3143155872821808,0.01910531520843506,0.9431451772992572,0.08215096142057296,-0.17680557716405704,0.26919898798099434
1728407182724700700,2.10770068359375,0.5870928168296814,0.1330537348985672,0.05735967308282852,-0.37664759159088135,-0.06728288531303406,-0.9239099621772766,-0.01412990689277649,-0.3540121912956238,0.18321776390075684,0.9428614558025438,0.08585649878534184,-0.17513904726569426,0.2701244585988334
1728407182734731800,2.117731689453125,0.13849666714668274,0.14038540422916412,0.12096820771694183,-0.37542811036109924,-0.07039554417133331,-0.9241743087768555,0.040787696838378906,-0.44661790132522583,0.23473644256591797,0.9426952537027041,0.08735334512729945,-0.17401788391210798,0.2709480853562108
1728407182744762600,2.1277626953125,-0.6357716917991638,0.1660550981760025,0.15726177394390106,-0.3740589916706085,-0.06786550581455231,-0.9249184727668762,0.05907192826271057,-0.48622679710388184,0.31462788581848145,0.9427353684832032,0.08599542041846349,-0.17362477967365597,0.2714944837510598
1728407182754792700,2.137792724609375,-1.9267348051071167,0.08357618749141693,0.28488391637802124,-0.37304821610450745,-0.05532428249716759,-0.926160991191864,0.05316305160522461,-0.48727816343307495,0.4839155077934265,0.94307571839874,0.07966173840552851,-0.17485278664876383,0.2714564112715944
1728407182764823600,2.147823486328125,-3.0493078231811523,0.014022037386894226,0.3640623688697815,-0.37266919016838074,-0.03072165697813034,-0.9274556040763855,0.08729943633079529,-0.5460910201072693,0.5815082788467407,0.9435966482058449,0.06740588148347472,-0.17812539294208288,0.27083805734591565
1728407182774854700,2.157854736328125,-3.7948265075683594,-0.08605848997831345,0.11736708879470825,-0.3730507791042328,0.002293074270710349,-0.9278081059455872,0.10652562975883484,-0.6159557104110718,0.45110827684402466,0.9442225191084846,0.05092648198798306,-0.1830367149620524,0.26897591679260074
1728407182784884700,2.167884765625,-4.172442436218262,-0.19689403474330902,-0.4531160891056061,-0.3743319511413574,0.039121564477682114,-0.9264691472053528,0.06943094730377197,-0.43304237723350525,0.23114138841629028,0.9451403024715335,0.03219575977548212,-0.1890207958002718,0.26446980144567045
1728407182794915600,2.17791552734375,-3.6521549224853516,-0.3377038836479187,-0.9736897945404053,-0.37736859917640686,0.07317560166120529,-0.9231675267219543,0.014621496200561523,0.08753006160259247,-0.0004470348358154297,0.9463114137854739,0.014433717581891659,-0.19546842394133782,0.2570573376371296
1728407182804945700,2.187945556640625,-2.357177495956421,-0.2620027959346771,-0.4384891986846924,-0.3808574378490448,0.09824692457914352,-0.9193993210792542,0.03379637002944946,0.6676833629608154,-0.19597238302230835,0.947129673651936,0.001183840062852919,-0.2007459171385783,0.25029008081539106
1728407182814976800,2.197976806640625,-0.685389518737793,-0.1843452751636505,0.6193103790283203,-0.3827548325061798,0.11285869777202606,-0.9169305562973022,0.19484293460845947,0.9918929934501648,-0.33403074741363525,0.9467398276056581,-0.005961697101846936,-0.20371346789697792,0.2492970860920227
1728407182825007600,2.208007568359375,0.6488121151924133,-0.14032907783985138,0.786167562007904,-0.3833494484424591,0.11534900218248367,-0.9163721203804016,0.18567192554473877,0.8593825697898865,-0.37804627418518066,0.9456162616927124,-0.006313125210361911,-0.2043871120243808,0.25297440537866545
1728407182835037700,2.21803759765625,0.8326954245567322,-0.07913149893283844,0.5073582530021667,-0.3836105465888977,0.11046931147575378,-0.9168639779090881,-0.05625447630882263,0.3892866373062134,-0.09564828872680664,0.9447058216103394,-0.003045212141293267,-0.20385962819109174,0.2568327313326264
1728407182845068800,2.22806884765625,0.29165372252464294,-0.09520016610622406,0.4074460566043854,-0.3838406503200531,0.10666962713003159,-0.917217493057251,-0.07572346925735474,-0.12646019458770752,0.21638131141662598,0.944050732353194,-0.0005568708137436513,-0.20344761593674615,0.2595709929826907
1728407182855098600,2.2380986328125,-0.7921851277351379,-0.38171154260635376,0.38430213928222656,-0.3853681683540344,0.11009564995765686,-0.9161715507507324,0.04894247651100159,-0.4750552773475647,0.20303678512573242,0.9433235971150372,-0.0016684182269156378,-0.20472283449694137,0.2612017631370397
1728407182865129700,2.248129638671875,-2.066138505935669,-0.553483784198761,0.15706123411655426,-0.3896772861480713,0.12473024427890778,-0.9124658703804016,0.11984097957611084,-0.5726061463356018,0.02440434694290161,0.9423695022939159,-0.00826041514442796,-0.2090426539076247,0.2610986684221041
1728407182875160600,2.25816064453125,-2.598869800567627,-0.44543635845184326,-0.22392739355564117,-0.39421379566192627,0.1462443768978119,-0.9073081612586975,0.03622746467590332,-0.3970987796783447,-0.08443683385848999,0.9417453648290559,-0.01880175451824247,-0.21445843605303835,0.2583984419319968
1728407182885190700,2.268190673828125,-2.316926956176758,-0.5426928400993347,-0.2498098611831665,-0.39903131127357483,0.16801129281520844,-0.9014134407043457,-0.05893063545227051,-0.08428619801998138,-0.0646662712097168,0.9412453575813056,-0.029762760900043535,-0.22001692202753334,0.2544876247972206
1728407182895221800,2.2782216796875,-1.5934741497039795,-0.594221830368042,0.008713044226169586,-0.40449392795562744,0.18508271872997284,-0.8956165909767151,-0.0048992931842803955,0.15737037360668182,-0.2096232771873474,0.9404293309530539,-0.0380917561974448,-0.22525701897183226,0.25179572538351175
1728407182905252600,2.288252685546875,-1.1140835285186768,-0.508280336856842,0.21747930347919464,-0.40921327471733093,0.1975257396697998,-0.8908019661903381,-0.006893813610076904,0.30575495958328247,-0.25646066665649414,0.9393673452100775,-0.043815058107528226,-0.2295196475441097,0.2509782301834432
1728407182915282700,2.29828271484375,-0.9501997828483582,-0.4246206283569336,0.2500218152999878,-0.41285520792007446,0.20757968723773956,-0.8868265151977539,-0.053758472204208374,0.3068094551563263,-0.1235647201538086,0.9382903128468942,-0.04829481717514294,-0.23292564429315468,0.25104698706107204
1728407182925313800,2.308313720703125,-0.9475621581077576,-0.39621230959892273,0.18788465857505798,-0.41598835587501526,0.21692222356796265,-0.8831186294555664,-0.05399751663208008,0.13685289025306702,0.02504056692123413,0.9372916510494712,-0.052503807026152295,-0.23597467908982972,0.2510851383626485
1728407182935343600,2.318343505859375,-0.9548919796943665,-0.42452117800712585,0.08421073108911514,-0.41929858922958374,0.22589032351970673,-0.8792964816093445,-0.01839965581893921,-0.07243259251117706,0.10532492399215698,0.9363715892377212,-0.056613772422230646,-0.2390536568691223,0.25071205280302755
1728407182945374700,2.328374755859375,-1.0060042142868042,-0.46586430072784424,0.022136440500617027,-0.4230416715145111,0.2345668375492096,-0.8752223253250122,0.01630347967147827,-0.16794687509536743,0.07175552845001221,0.9355041953805584,-0.06064665341934981,-0.24230313046357246,0.2498862607010738
1728407182955406800,2.33840673828125,-0.996515154838562,-0.4679817855358124,-0.003719390369951725,-0.4271845519542694,0.243606299161911,-0.8707292079925537,0.04238849878311157,-0.12239038944244385,-0.02665543556213379,0.9345844121632897,-0.06488062743745576,-0.24581680223558575,0.2488305476736024
1728407182965437000,2.34843701171875,-0.6799580454826355,-0.46192479133605957,-0.07976728677749634,-0.43126511573791504,0.25077420473098755,-0.8666733503341675,0.018179267644882202,-0.017940253019332886,-0.11974632740020752,0.9337826769638677,-0.06820527100811226,-0.249020805905819,0.24776321544040525
1728407182975468000,2.358468017578125,-0.6117193102836609,-0.4770536720752716,-0.258707195520401,-0.43568912148475647,0.2551679313182831,-0.8631710410118103,-0.05341601371765137,0.09113037586212158,-0.0883670449256897,0.933200385482132,-0.07018171997606187,-0.2519702205432729,0.24641945402613788
1728407182985499000,2.368498779296875,-0.4306681156158447,-0.4104349613189697,-0.1721949577331543,-0.4403071999549866,0.2593340575695038,-0.8595786094665527,-0.10934481024742126,0.19459974765777588,0.012151241302490234,0.9326791077413878,-0.07212043282674986,-0.2549692871630768,0.24474244073937645
1728407182995529000,2.378529052734375,0.3271324932575226,-0.16823458671569824,-0.0703522115945816,-0.44300198554992676,0.2589748203754425,-0.8583014011383057,-0.09448876976966858,0.12318164110183716,-0.13055968284606934,0.9324684416893985,-0.07172507234994496,-0.2563294954585523,0.24424051349708686
1728407183005559800,2.388559814453125,0.30288782715797424,-0.14734970033168793,-0.01700882986187935,-0.4443973898887634,0.2557237148284912,-0.8585547804832458,-0.09335276484489441,-0.008317619562149048,-0.24332815408706665,0.9324458548528909,-0.06981516172905013,-0.2566095221502681,0.24458564408481895
1728407183015590000,2.39858984375,-0.1120007261633873,-0.16626852750778198,-0.02376580238342285,-0.4457567632198334,0.25470855832099915,-0.8581517934799194,-0.07105833292007446,-0.06609457731246948,-0.08136242628097534,0.9323128625535462,-0.06910092563304705,-0.2571948203493614,0.2446806835694702
1728407183025621000,2.40862109375,-0.48926660418510437,-0.1470189392566681,-0.0664895623922348,-0.4472355246543884,0.25725457072257996,-0.8566215634346008,-0.04159495234489441,-0.1528538465499878,0.007698774337768555,0.9320468260205055,-0.07033723209574075,-0.25834453453175465,0.24413017036567555
1728407183035651800,2.41865185546875,-0.707807183265686,-0.1559075117111206,-0.1010478064417839,-0.44871386885643005,0.2620130181312561,-0.8544033169746399,-0.014481842517852783,-0.22877931594848633,0.012713253498077393,0.9317475214036312,-0.07285000606279704,-0.25979071537594073,0.24299830661346397
1728407183045682000,2.428681884765625,-0.8938337564468384,-0.14720343053340912,-0.08719457685947418,-0.45029783248901367,0.268462210893631,-0.8515632152557373,-0.002903372049331665,-0.20779314637184143,0.015549421310424805,0.9313642578509612,-0.07629797060302589,-0.26152821302951557,0.241541429298608
1728407183055713000,2.438713134765625,-0.9042025208473206,-0.06955179572105408,-0.04319356381893158,-0.4514465928077698,0.27598175406455994,-0.8485458493232727,-0.019119083881378174,-0.10782986879348755,0.054081737995147705,0.9309300341689661,-0.08035118514580125,-0.2631934076899907,0.24008789250868626
1728407183065742800,2.448742919921875,-0.6550524234771729,0.08682551234960556,-0.05323820933699608,-0.45147860050201416,0.28253281116485596,-0.8463700413703918,-0.05572345852851868,-0.017136603593826294,0.004206955432891846,0.9306667887381057,-0.08400967345998411,-0.26411615833174495,0.23883959631756652
1728407183075774000,2.45877392578125,-0.29791346192359924,0.22281265258789062,-0.09998361021280289,-0.4503514766693115,0.2862445116043091,-0.8457231521606445,-0.08057799935340881,0.03905770182609558,-0.008067131042480469,0.9307619854314803,-0.08632756828583912,-0.26398102168447996,0.2377891971897169
1728407183085805000,2.46880517578125,0.025201668962836266,0.32487472891807556,-0.1387842744588852,-0.4483376741409302,0.2868133783340454,-0.8465998768806458,-0.06707361340522766,0.08482980728149414,0.06180983781814575,0.9312197389982135,-0.08711549178019547,-0.26288960140218337,0.23691700904561516
1728407183095835000,2.4788349609375,0.3129730224609375,0.36834898591041565,-0.1217442974448204,-0.4457404315471649,0.2848035395145416,-0.84864741563797,-0.03387373685836792,0.11430543661117554,0.09889155626296997,0.9319092120682227,-0.08657846303484977,-0.26111388666670476,0.2363661970076462
1728407183105866000,2.488865966796875,0.665812611579895,0.3766919672489166,-0.09721898287534714,-0.44285932183265686,0.2801155745983124,-0.8517105579376221,-0.0076563358306884766,0.11642995476722717,0.06455540657043457,0.9327353425185094,-0.08457322224444783,-0.25882830290523906,0.23634722528063654
1728407183115896800,2.498896728515625,0.9437273144721985,0.43105587363243103,-0.11827073991298676,-0.43971380591392517,0.2727392017841339,-0.8557248711585999,-0.014189302921295166,0.11443743109703064,0.033962786197662354,0.9337140938965541,-0.08113684150136001,-0.25603588081242984,0.23672848626557785
1728407183125927000,2.508927001953125,1.206125259399414,0.5159074068069458,-0.13186058402061462,-0.4360000193119049,0.2629319727420807,-0.8606804013252258,-0.05212852358818054,0.11904135346412659,0.07694321870803833,0.9348909360035136,-0.07650039333055468,-0.2526014520028456,0.23731639630134746
1728407183135958000,2.5189580078125,1.3821088075637817,0.5990563035011292,-0.09940969944000244,-0.4314313530921936,0.2510628402233124,-0.8665070533752441,-0.07535871863365173,0.10748830437660217,0.10732126235961914,0.9362222137259247,-0.07087116511699156,-0.24844265813639824,0.2382048938019383
1728407183145988000,2.528988037109375,1.2226139307022095,0.5865066051483154,-0.044964566826820374,-0.426398903131485,0.23927320539951324,-0.8723143339157104,-0.07379934191703796,0.06492611765861511,0.10279834270477295,0.9374969880587913,-0.0653136292678995,-0.2440839159961499,0.23928358304284295
1728407183156019000,2.53901904296875,0.8669770359992981,0.5069875121116638,0.022488243877887726,-0.42157015204429626,0.22995027899742126,-0.8771553039550781,-0.03819233179092407,-0.03804038465023041,0.057285308837890625,0.9385120010078926,-0.06098729413775078,-0.24021426182630962,0.24035971812534196
1728407183166050000,2.549050048828125,0.42189449071884155,0.3654162287712097,0.005926578771322966,-0.4176325500011444,0.2243339568376541,-0.8804869651794434,0.01403769850730896,-0.19299229979515076,-0.05461740493774414,0.9392105745733336,-0.058499501109320985,-0.23734852051107797,0.24109537977737888
1728407183176080000,2.559079833984375,-0.03002343513071537,0.20512163639068604,-0.07825008034706116,-0.41517364978790283,0.22249306738376617,-0.8821154236793518,0.04720807075500488,-0.3191269040107727,-0.0811719298362732,0.9396435885463865,-0.057896177926532726,-0.235775989016717,0.24109647286817673
1728407183186111000,2.569111083984375,-0.35644522309303284,0.09717269241809845,-0.16018037497997284,-0.4141649007797241,0.22378508746623993,-0.8822628259658813,0.048961132764816284,-0.3417049050331116,-0.06852757930755615,0.9399039982134029,-0.05888673813305598,-0.23537403553285052,0.24023322377977144
1728407183196141000,2.57914111328125,-0.4583454728126526,0.08643748611211777,-0.1430051177740097,-0.41373664140701294,0.2269243597984314,-0.8816616535186768,0.015741735696792603,-0.23928387463092804,-0.03435397148132324,0.940066738794562,-0.060826297671841376,-0.23551925895026976,0.23896728758842722
1728407183206172000,2.589171875,-0.1384361982345581,0.1444401741027832,-0.09707250446081161,-0.4130164384841919,0.22930100560188293,-0.8813843727111816,-0.029274731874465942,-0.07341712713241577,-0.05365896224975586,0.9402423514874511,-0.06235154232718936,-0.23541471330678174,0.23798401531507535
1728407183216203000,2.599203125,0.44259628653526306,0.21507014334201813,-0.1362907439470291,-0.4117009937763214,0.2276390641927719,-0.8824300169944763,-0.07468804717063904,0.07523271441459656,-0.11705118417739868,0.9406267633453574,-0.06179168779870492,-0.23444995873331595,0.23756292404714427
1728407183226233000,2.609233154296875,1.195285439491272,0.2878628075122833,-0.2131975144147873,-0.40981972217559814,0.21960322558879852,-0.8853373527526855,-0.09555128216743469,0.19712965190410614,-0.14373064041137695,0.9413845673970163,-0.05799982664805833,-0.2323087306134728,0.23762115240361406
1728407183236264000,2.619263916015625,1.7279362678527832,0.2318514585494995,-0.20385141670703888,-0.4079001843929291,0.20556609332561493,-0.8895841836929321,-0.06289440393447876,0.2811283469200134,-0.11012589931488037,0.9423564743766214,-0.05109059112164431,-0.22934179211984154,0.2382361209396887
1728407183246295000,2.629294921875,1.9551873207092285,0.1223686933517456,-0.1218809187412262,-0.40662404894828796,0.18822790682315826,-0.8939950466156006,0.014107048511505127,0.290730357170105,-0.043443918228149414,0.9431971478071535,-0.04231040269537219,-0.22630137461992855,0.2395341144159026
1728407183256325000,2.6393251953125,2.2249674797058105,0.11262152343988419,-0.048338256776332855,-0.40578562021255493,0.16920825839042664,-0.8981684446334839,0.0687190592288971,0.18977011740207672,-0.014871716499328613,0.943807139149036,-0.032510924294663485,-0.2232908667708525,0.24147914319366678
1728407183266356000,2.64935595703125,2.1825246810913086,0.12499910593032837,-0.07362736761569977,-0.4047955870628357,0.1488582193851471,-0.9022094011306763,0.058909446001052856,0.036200493574142456,-0.02367866039276123,0.9443092918074615,-0.02203943980232669,-0.22002174350683282,0.24368981670417583
1728407183276386000,2.659385986328125,1.9983421564102173,0.20375889539718628,-0.1970430463552475,-0.4035259783267975,0.12937186658382416,-0.9057757258415222,0.008369207382202148,-0.048210278153419495,0.027678191661834717,0.9448278775813528,-0.012192389839163112,-0.2167105653777304,0.24533286436110927
1728407183286417000,2.6694169921875,1.9551905393600464,0.3747042715549469,-0.32784712314605713,-0.4011581838130951,0.11021703481674194,-0.9093537926673889,-0.03917980194091797,-0.06231960654258728,-0.045541226863861084,0.9455460841400694,-0.0028522809951751073,-0.21287313443250722,0.24621028192602915
1728407183296448000,2.679447998046875,1.7016104459762573,0.37084323167800903,-0.389907568693161,-0.3980206847190857,0.09198904782533646,-0.9127527475357056,-0.054295510053634644,0.0091157928109169,-0.11582702398300171,0.9463907439561471,0.005761936315363665,-0.2087832177262728,0.24641619730333789
1728407183306478000,2.68947802734375,1.6965419054031372,0.30870530009269714,-0.28857773542404175,-0.39521321654319763,0.07523784041404724,-0.9155030250549316,-0.010792523622512817,0.11340665072202682,-0.12905263900756836,0.9470938913298783,0.013659452552222768,-0.20509000102358582,0.24650496318164067
1728407183316509000,2.699509033203125,1.7094452381134033,0.2658582329750061,-0.13274714350700378,-0.3926543891429901,0.05862903222441673,-0.9178154468536377,0.033691465854644775,0.11941061913967133,-0.20726090669631958,0.9474872741518885,0.021674533527874736,-0.20155022602416314,0.24733716064745795
1728407183326539000,2.7095390625,1.5125385522842407,0.22691267728805542,-0.17954128980636597,-0.39044123888015747,0.04323645681142807,-0.9196119904518127,0.011504560708999634,0.08820285648107529,-0.15910810232162476,0.9477069525046322,0.02915937703344483,-0.1983525285941915,0.24830927636238312
1728407183336570000,2.719570068359375,1.4315102100372314,0.20977923274040222,-0.2721092998981476,-0.3885297477245331,0.028746530413627625,-0.9209876656532288,-0.03560343384742737,0.01480213925242424,-0.07641834020614624,0.9479663900365474,0.03611577934139416,-0.19545287197108951,0.24870348480594162
1728407183346601000,2.72960107421875,1.216620922088623,0.252269446849823,-0.3053569793701172,-0.3865377604961395,0.015432750806212425,-0.9221444725990295,-0.04282921552658081,-0.054724033921957016,-0.040761470794677734,0.9482831559160059,0.0423909482648516,-0.1926934823113868,0.24865914999653382
1728407183356631000,2.739631103515625,1.1123580932617188,0.3361646234989166,-0.38570162653923035,-0.3837522268295288,0.0033496078103780746,-0.9234300255775452,-0.02774667739868164,-0.04267141595482826,-0.016358792781829834,0.9487350817725085,0.047872775806195304,-0.18971869081903928,0.24822744463799618
1728407183366662100,2.749662109375,1.174576759338379,0.3139898180961609,-0.4802212119102478,-0.3806114196777344,-0.008806071244180202,-0.9246931672096252,-0.007297396659851074,0.01992982253432274,-0.03429126739501953,0.9493083162607578,0.05324862004088954,-0.186595852635501,0.2473062576692145
1728407183376693000,2.75969287109375,1.229598045349121,0.16038218140602112,-0.44738495349884033,-0.37824004888534546,-0.021904394030570984,-0.9254483580589294,0.06476360559463501,0.07857562601566315,-0.06571680307388306,0.9497799122038625,0.05918024482407585,-0.18377572031063766,0.24625674741610787
1728407183386722800,2.769722900390625,1.2013357877731323,-0.027043107897043228,-0.3479151129722595,-0.37748822569847107,-0.034661438316106796,-0.9253654479980469,0.16575735807418823,0.08698391914367676,-0.07718276977539062,0.9499561187995597,0.06523284323087453,-0.18182943511777963,0.24549171416641646
1728407183396754000,2.77975390625,1.0697215795516968,-0.23389525711536407,-0.3110628128051758,-0.3785879909992218,-0.04655939340591431,-0.9243935346603394,0.20759809017181396,-0.01571163535118103,-0.06216353178024292,0.9498349653592509,0.07117386466462763,-0.18093513149720752,0.24497027258729032
1728407183406783700,2.78978369140625,0.6018295884132385,-0.2777192294597626,-0.3823561668395996,-0.3809162676334381,-0.05577870458364487,-0.9229255318641663,0.16538596153259277,-0.13535279035568237,-0.009737491607666016,0.949698688058717,0.07588226059132595,-0.18105003139547798,0.24399847693702634
1728407183416814800,2.79981494140625,0.2479521781206131,-0.14645947515964508,-0.4245651364326477,-0.3827139139175415,-0.06096581742167473,-0.9218531250953674,0.08145973086357117,-0.1670614331960678,0.07691293954849243,0.9498416873558242,0.07838982933497401,-0.18146200267489573,0.24233733505614935
1728407183426846000,2.809845947265625,0.07582263648509979,-0.07082174718379974,-0.4805607497692108,-0.3833678364753723,-0.0642770528793335,-0.9213563799858093,0.025747686624526978,-0.14109089970588684,0.12542736530303955,0.9502263996528015,0.07973750484844001,-0.1815592093463228,0.24030813601842532
1728407183436875800,2.819875732421875,-0.015826590359210968,-0.037196673452854156,-0.5488466024398804,-0.3835146725177765,-0.06629176437854767,-0.9211524724960327,0.013931602239608765,-0.00031275302171707153,0.12537610530853271,0.9507977853859676,0.08028452366105228,-0.1815988559832054,0.23782343779079504
1728407183446907000,2.829906982421875,0.29696014523506165,-0.030165981501340866,-0.5359646081924438,-0.3833591043949127,-0.06946006417274475,-0.9209837913513184,0.05737045407295227,0.16183686256408691,0.055337369441986084,0.9513779587458754,0.081360355888319,-0.181352167206695,0.235312425048264
1728407183456938000,2.83993798828125,0.8136985898017883,-0.2561868727207184,-0.466605007648468,-0.3843701183795929,-0.07652422785758972,-0.9200019836425781,0.10893380641937256,0.2529464364051819,-0.01662832498550415,0.9515969898260821,0.0846472341179672,-0.1812011383343317,0.2333756848648197
1728407183466967800,2.8499677734375,1.1029568910598755,-0.39385727047920227,-0.42912447452545166,-0.3869703710079193,-0.08729466795921326,-0.9179507493972778,0.13866418600082397,0.24891585111618042,-0.08616918325424194,0.9513970186646613,0.0901091225550161,-0.18139729447087313,0.2319892127878289
1728407183476999000,2.8599990234375,1.0071688890457153,-0.46426111459732056,-0.32037854194641113,-0.39061373472213745,-0.09866650402545929,-0.9152517914772034,0.1047709584236145,0.09173911809921265,0.002455770969390869,0.9509393031631348,0.0960918364237921,-0.18204525004149033,0.230954950539313
1728407183487028700,2.87002880859375,0.5015236735343933,-0.39728057384490967,-0.22521182894706726,-0.39440011978149414,-0.106831394135952,-0.9127078652381897,0.055029451847076416,-0.16930681467056274,0.12755155563354492,0.9504586055014422,0.100549294227855,-0.18312814836623717,0.23017894266907415
1728407183497059800,2.880059814453125,-0.28983303904533386,-0.23310784995555878,-0.22954559326171875,-0.39697542786598206,-0.10885941982269287,-0.9113507270812988,-0.01743793487548828,-0.41833165287971497,0.25809139013290405,0.9503740189521493,0.10170028193365224,-0.18434125983099292,0.22905125471317653
1728407183507090700,2.890090576171875,-1.194697380065918,-0.16090743243694305,-0.2337973266839981,-0.3984532058238983,-0.10296947509050369,-0.9113903045654297,-0.06132456660270691,-0.5685697197914124,0.3887920379638672,0.9508437008900453,0.09857301825570022,-0.18597901264003172,0.22713744307603326
1728407183517120800,2.900120849609375,-1.9415273666381836,-0.15313446521759033,-0.17054006457328796,-0.39965498447418213,-0.08939070254564285,-0.9122966527938843,-0.03615120053291321,-0.6051129698753357,0.3741954565048218,0.9516837842822887,0.09142678725249374,-0.18839536779499172,0.22460232894087834
1728407183527151900,2.91015185546875,-2.624965190887451,-0.2568856179714203,-0.1002856120467186,-0.4013333022594452,-0.06898568570613861,-0.9133304953575134,-0.008746564388275146,-0.5656577348709106,0.27709996700286865,0.9526373303867072,0.0808489496373699,-0.1918285877626714,0.22169210549060323
1728407183537182000,2.920181884765625,-3.222904682159424,-0.3224518299102783,-0.11678203195333481,-0.4040495753288269,-0.04254605248570442,-0.9137471318244934,-0.01016545295715332,-0.4797927141189575,0.16319775581359863,0.9535370453437747,0.06728164483804383,-0.19646787476000988,0.21826730901192326
1728407183547212800,2.930212890625,-3.7038540840148926,-0.28589218854904175,-0.21420632302761078,-0.4068170189857483,-0.01135390903800726,-0.9134390950202942,-0.05000048875808716,-0.3267044723033905,0.05241614580154419,0.9544429138639647,0.05114332079767129,-0.20165517408320746,0.21391182162510763
1728407183557244000,2.940243896484375,-3.6453864574432373,-0.2301088124513626,-0.3565879464149475,-0.4091027081012726,0.021565603092312813,-0.9122334718704224,-0.09349116683006287,-0.056233473122119904,0.08804523944854736,0.9552823735272464,0.03387413606124775,-0.2067264089882323,0.20869209231287034
1728407183567273700,2.950273681640625,-3.0810000896453857,-0.3152059316635132,-0.3759496510028839,-0.4116741716861725,0.05093294382095337,-0.9099066853523254,-0.10198235511779785,0.2274637520313263,0.09556037187576294,0.9558387750297798,0.018327811105376464,-0.21144913363315512,0.20328721138771594
1728407183577304800,2.960304931640625,-2.2134368419647217,-0.3558702766895294,-0.16934004426002502,-0.4149586856365204,0.07402776926755905,-0.9068236947059631,-0.03682345151901245,0.4281696081161499,0.035562098026275635,0.9559188840447319,0.0062110715460581235,-0.21575352667346073,0.19907514025534118
1728407183587336000,2.9703359375,-1.4125937223434448,-0.35621145367622375,0.020630689337849617,-0.4182347059249878,0.09003250300884247,-0.9038660526275635,0.02735036611557007,0.4641973376274109,-0.06822562217712402,0.9556088578948142,-0.0019496338849820016,-0.2192331195088098,0.19683688588908643
1728407183597365800,2.98036572265625,-1.0609904527664185,-0.24364818632602692,-0.04885970428586006,-0.42110854387283325,0.10100378096103668,-0.9013688564300537,-0.015658944845199585,0.2799014747142792,-0.04965043067932129,0.9552361105795047,-0.007451658615616326,-0.22194601760891677,0.19547004051086275
1728407183607396900,2.99039697265625,-1.1676965951919556,-0.08005199581384659,-0.11494418233633041,-0.42254671454429626,0.11032122373580933,-0.8996018767356873,-0.07066303491592407,-0.02937326580286026,0.036351144313812256,0.9551028502626269,-0.01234769513666448,-0.22371099042066023,0.19385410850740165
1728407183617427000,3.000427001953125,-1.78364098072052,0.018662063404917717,-0.055499497801065445,-0.42301076650619507,0.12312775105237961,-0.8977201581001282,-0.05054563283920288,-0.25592488050460815,0.23059064149856567,0.9550300475886535,-0.01921665115974259,-0.22532343862329213,0.19177497216177253
1728407183627457800,3.010457763671875,-2.197949171066284,0.20484237372875214,-0.22630107402801514,-0.42216038703918457,0.1408488154411316,-0.8955122828483582,-0.019642502069473267,-0.34231048822402954,0.35635823011398315,0.9550257851015617,-0.028894301239699945,-0.2267354874979653,0.18889678491373363
1728407183637489000,3.020489013671875,-2.2146546840667725,0.23480133712291718,-0.38124215602874756,-0.4205196499824524,0.15940913558006287,-0.8931695818901062,-0.028088659048080444,-0.3218693733215332,0.2784692645072937,0.9552165787441942,-0.03938570756126567,-0.22773660751020935,0.18478665688554144
1728407183647519000,3.03051904296875,-1.981008768081665,0.1322203129529953,-0.36034834384918213,-0.41939154267311096,0.17669886350631714,-0.8904427289962769,0.03445813059806824,-0.15727432072162628,0.24124228954315186,0.9553103543188595,-0.049234620075161224,-0.22881126085357548,0.18056405634123013
1728407183657549800,3.0405498046875,-1.634933352470398,-0.10447078943252563,-0.35006240010261536,-0.4199203848838806,0.19131578505039215,-0.8871669173240662,0.13120892643928528,0.020064324140548706,0.10761064291000366,0.9551667407421094,-0.057503266155660246,-0.23045588250555255,0.1767482897910519
1728407183667581000,3.050580810546875,-1.31624436378479,-0.3638722598552704,-0.25184503197669983,-0.4225952923297882,0.20311680436134338,-0.8832648396492004,0.15834367275238037,0.11632604897022247,-0.02033013105392456,0.9547124680051324,-0.06400145362593415,-0.23296220807833687,0.17365657538938303
1728407183677610800,3.06061083984375,-1.3648432493209839,-0.5484106540679932,-0.13027946650981903,-0.42712274193763733,0.21381047368049622,-0.87855064868927,0.1317126750946045,0.08015021681785583,-0.09750831127166748,0.9538937938352299,-0.06960872613333727,-0.23638802803200798,0.1713534542164866
1728407183687641900,3.070641845703125,-1.728184700012207,-0.5378119945526123,-0.06954607367515564,-0.4321967363357544,0.2270459532737732,-0.8727291226387024,0.04509657621383667,-0.02187618613243103,-0.06164282560348511,0.9527353817010195,-0.07643777315075113,-0.24040113746747133,0.16929206627564802
1728407183697672000,3.080671875,-1.979678750038147,-0.47860488295555115,-0.17192117869853973,-0.4368737041950226,0.24279141426086426,-0.8661372065544128,-0.07072511315345764,-0.1510096937417984,-0.029202759265899658,0.9514634397758661,-0.08476553767212543,-0.24443032870667242,0.1666912466426546
1728407183707702800,3.090702880859375,-2.2215826511383057,-0.3661722242832184,-0.24016015231609344,-0.44107869267463684,0.2599925696849823,-0.8589839339256287,-0.1497873067855835,-0.21706947684288025,-0.009897232055664062,0.9501779501709384,-0.094152855877357,-0.2482806034184182,0.16326009029611757
1728407183717734000,3.10073388671875,-2.365495204925537,-0.32166653871536255,-0.16599884629249573,-0.4445704221725464,0.2789194881916046,-0.8512115478515625,-0.13892558217048645,-0.13707369565963745,0.0423736572265625,0.9487655576767048,-0.10463794537281518,-0.2518831795938472,0.15952978589172487
1728407183727764000,3.110763916015625,-2.1297760009765625,-0.26879042387008667,-0.10049840062856674,-0.44740432500839233,0.2976093590259552,-0.8433611392974854,-0.079374760389328,0.004865705966949463,0.04714226722717285,0.9472496701803057,-0.11502104615647203,-0.25512658553778494,0.15620102116859416
1728407183737794800,3.120794921875,-1.7380605936050415,-0.29044803977012634,-0.13196177780628204,-0.45008066296577454,0.31340906023979187,-0.8361831307411194,-0.03771224617958069,0.12645617127418518,-0.06541293859481812,0.9458200867480628,-0.12384873979843478,-0.25801149395148876,0.15334937264955206
1728407183747825000,3.130824951171875,-1.3708972930908203,-0.3065665364265442,-0.09920090436935425,-0.4529500901699066,0.32572707533836365,-0.8299024701118469,-0.02606901526451111,0.2108636200428009,-0.0999222993850708,0.944546759378525,-0.1307699327982461,-0.2606683290460888,0.15093976795334202
1728407183757856000,3.14085595703125,-1.0441186428070068,-0.3316258192062378,-0.0026149777695536613,-0.45581337809562683,0.33563753962516785,-0.8243674039840698,0.007021963596343994,0.2305246889591217,-0.08954250812530518,0.9433329854616526,-0.13623361795160827,-0.2631666587452356,0.14935442729788673
1728407183767886800,3.150886962890625,-0.7494046092033386,-0.20341871678829193,0.009425172582268715,-0.458028107881546,0.3429303467273712,-0.8201274275779724,-0.011927247047424316,0.14194828271865845,-0.07280158996582031,0.9423577834963386,-0.1402028805751963,-0.2651026729143364,0.14841004167591143
1728407183777917000,3.1609169921875,-0.7066049575805664,-0.0476301908493042,0.011630536988377571,-0.45900580286979675,0.3488588035106659,-0.8170747756958008,-0.06391280889511108,0.021075397729873657,-0.004122734069824219,0.9416766817100771,-0.1435098198368163,-0.26620957061603573,0.1475887794525246
1728407183787947800,3.17094775390625,-0.686951756477356,0.046193238347768784,0.0025875079445540905,-0.45894312858581543,0.3546621799468994,-0.8146077990531921,-0.05813136696815491,-0.06625568866729736,0.09993195533752441,0.9411623857835794,-0.14684913429835486,-0.26670474602062416,0.1466873125208398
1728407183797979000,3.180978759765625,-0.5592238903045654,0.11785250902175903,-0.08768805861473083,-0.4583991467952728,0.35958993434906006,-0.8127517104148865,-0.0063224732875823975,-0.1099255383014679,0.057243287563323975,0.9408357553752118,-0.14980806837093194,-0.2667989696362568,0.1456159374126644
1728407183808009000,3.191009033203125,-0.4506320357322693,0.13756293058395386,-0.08432528376579285,-0.4576443135738373,0.3632794916629791,-0.8115354180335999,0.031069695949554443,-0.07613947987556458,0.013866961002349854,0.9407048693846826,-0.15217463075912732,-0.26659930057555675,0.14436768533425776
1728407183818039800,3.201039794921875,-0.2762344181537628,0.028473202139139175,0.04954835772514343,-0.4570312201976776,0.3661690056324005,-0.8105816841125488,0.06777963042259216,0.00736624002456665,0.045643389225006104,0.9405476339803218,-0.15393186836466824,-0.2664847771571666,0.14373898525200385
1728407183828070000,3.21106982421875,-0.13111136853694916,0.14040373265743256,0.08469915390014648,-0.4562234580516815,0.3681531548500061,-0.810137927532196,0.05963236093521118,0.05344730615615845,-0.007183849811553955,0.9404235855870916,-0.15502931447633586,-0.26626483090161496,0.14377923760142614
1728407183838101000,3.22110107421875,0.06449940800666809,0.3323103189468384,0.0316106379032135,-0.45402956008911133,0.3687160313129425,-0.8111138343811035,-0.03458729386329651,0.052655547857284546,0.0019249916076660156,0.9406781730249929,-0.1554563332374813,-0.2650970101696824,0.1438101055416629
1728407183848131800,3.2311318359375,0.2602713108062744,0.4009723663330078,0.031199179589748383,-0.45088279247283936,0.3674921691417694,-0.813421368598938,-0.07095247507095337,0.04397645592689514,0.02655613422393799,0.9412807541410199,-0.15497796675786774,-0.26319414255753837,0.14387974639375606
1728407183858162000,3.241161865234375,0.45381173491477966,0.46526026725769043,0.013350673019886017,-0.4472748935222626,0.3647312521934509,-0.8166494369506836,-0.02210065722465515,0.07687345147132874,-0.0027170181274414062,0.9421000929586233,-0.15366170552841832,-0.26088954349700555,0.14412584415728968
1728407183868193000,3.251193115234375,0.6409476399421692,0.4906097948551178,-0.004509816877543926,-0.44327279925346375,0.36021241545677185,-0.820826530456543,0.019994109869003296,0.15254399180412292,-0.035786569118499756,0.9431544292945916,-0.15141158633762808,-0.2581884158731731,0.1444747304584792
1728407183878222800,3.261222900390625,0.8628019690513611,0.41357144713401794,-0.00019283266738057137,-0.4395337402820587,0.354036420583725,-0.8255109190940857,0.05412733554840088,0.2109966278076172,-0.04146295785903931,0.9443028407138642,-0.14820559797415614,-0.25549879919956153,0.14507795489248906
1728407183888254000,3.27125390625,1.1008870601654053,0.39344581961631775,-0.0062858788296580315,-0.4362087547779083,0.34583795070648193,-0.8307334184646606,0.08280003070831299,0.19227859377861023,-0.08935630321502686,0.9455384427633318,-0.14382488702996174,-0.25287880689183306,0.1460265477291999
1728407183898284800,3.281284912109375,1.289423942565918,0.3549157381057739,-0.04296905919909477,-0.43313154578208923,0.335723340511322,-0.8364728689193726,0.0781511664390564,0.13026490807533264,-0.08341842889785767,0.946878791421197,-0.13838947170023824,-0.2502237312524315,0.14716273226280205
1728407183908315000,3.29131494140625,1.4434994459152222,0.27892208099365234,-0.0359063558280468,-0.43060025572776794,0.3238402307033539,-0.8424434065818787,0.06322973966598511,0.11823749542236328,-0.023492872714996338,0.9482590252274908,-0.13198655432693301,-0.24770516542832072,0.14841304885048043
1728407183918346000,3.301345947265625,1.5517247915267944,0.21635058522224426,0.12917767465114594,-0.42842990159988403,0.3116144835948944,-0.848141610622406,0.045815855264663696,0.22670045495033264,0.07073688507080078,0.9494579355978682,-0.1252377241403352,-0.2454479460786095,0.15033449652960423
1728407183928376800,3.311376953125,2.2757816314697266,0.3381490111351013,0.07711074501276016,-0.4257756173610687,0.2961418628692627,-0.8549942374229431,0.001398235559463501,0.36462482810020447,0.013502538204193115,0.9508323792304441,-0.11667389533073967,-0.24267280533348765,0.15301928649516847
1728407183938407000,3.321406982421875,3.1184394359588623,0.48612597584724426,-0.020462950691580772,-0.4220551550388336,0.2725863456726074,-0.8646190762519836,-0.11424538493156433,0.45901164412498474,-0.12834662199020386,0.9528469331761712,-0.10394431901766399,-0.23850796928669812,0.15617987070017542
1728407183948438000,3.33143798828125,3.469669818878174,0.44147059321403503,0.01180390827357769,-0.41792571544647217,0.24369531869888306,-0.8751860857009888,-0.11260703206062317,0.5367613434791565,-0.05859076976776123,0.9550138059135536,-0.08849283501124672,-0.23361501814210184,0.15981753873289822
1728407183958467300,3.34146728515625,3.970993757247925,0.4311460256576538,0.07882768660783768,-0.4140499234199524,0.21115897595882416,-0.8854233622550964,-0.011197209358215332,0.4846571683883667,-0.08379966020584106,0.9569536268717933,-0.07112197487463817,-0.22853877063991718,0.16416932508581808
1728407183968498200,3.351498291015625,4.172595500946045,0.3300239145755768,0.08955463021993637,-0.4103827476501465,0.17489083111286163,-0.8949856162071228,0.06359633803367615,0.2818811237812042,-0.18303263187408447,0.9585904249290418,-0.05184733708133208,-0.22320183473751853,0.1691072785733982
1728407183978529300,3.361529296875,3.7672691345214844,0.1495785415172577,0.11659370362758636,-0.4080148935317993,0.13922594487667084,-0.9022970795631409,0.09250903129577637,0.13622581958770752,-0.04615873098373413,0.9596310556481307,-0.03292517623091992,-0.21855755366129873,0.17394479086201775
1728407183988559400,3.371559326171875,3.536884069442749,0.05118325352668762,0.18226991593837738,-0.4071040749549866,0.10697142779827118,-0.9070961475372314,0.11222809553146362,0.030678197741508484,0.038230180740356445,0.9600244424695109,-0.01572169733308039,-0.21495293951559732,0.17860886988115462
1728407183998590200,3.381590087890625,3.2529544830322266,0.11494812369346619,0.16086982190608978,-0.4061308205127716,0.07648073881864548,-0.9106088280677795,0.06566154956817627,-0.10644888877868652,-0.07738250494003296,0.9600904961101111,0.0004918788090596512,-0.21141271992925095,0.18311394506787113
1728407184008620300,3.391620361328125,2.659017562866211,0.09366967529058456,0.08889949321746826,-0.40507009625434875,0.0498870387673378,-0.9129236340522766,-0.03795352578163147,-0.12334273755550385,-0.017923593521118164,0.9599734722977602,0.014531149209152395,-0.20815148721930882,0.18684966969840403
1728407184018651100,3.401651123046875,2.1260387897491455,0.046028122305870056,0.005163317080587149,-0.40448760986328125,0.02849121205508709,-0.9140995740890503,-0.1098860502243042,-0.04806813970208168,0.04601180553436279,0.9597579605414942,0.02576154700642102,-0.20563696700196069,0.18951094451902212
1728407184028682200,3.41168212890625,2.0817220211029053,0.13510377705097198,-0.05370026454329491,-0.4036128520965576,0.009036767296493053,-0.9148852229118347,-0.1361514925956726,0.0137447165325284,-0.07708865404129028,0.9595628974280992,0.035840455036182356,-0.20315718722217205,0.19152438180710393
1728407184038712300,3.42171240234375,1.9834518432617188,0.21627026796340942,0.022564144805073738,-0.4019835889339447,-0.009712363593280315,-0.9155953526496887,-0.12526848912239075,0.07784297317266464,-0.12206333875656128,0.9593490570841352,0.04547217715231395,-0.2003362305383885,0.19351221809267916
1728407184048743200,3.4317431640625,1.987328290939331,0.25493162870407104,0.05543793737888336,-0.39976590871810913,-0.027700666338205338,-0.9161986112594604,-0.061324089765548706,0.1492217630147934,-0.049133479595184326,0.9590427522585094,0.05471196239188593,-0.19724932461489394,0.1957967543657791
1728407184058774300,3.441774169921875,2.0192782878875732,0.16093723475933075,-0.027510207146406174,-0.39781656861305237,-0.04590609669685364,-0.9163157939910889,-0.014552116394042969,0.1667405515909195,-0.0014241337776184082,0.9586418211132924,0.06404728560854049,-0.1942679814691199,0.19789858712261363
1728407184068804400,3.451804443359375,2.1790010929107666,0.06223654747009277,-0.11427679657936096,-0.3967137336730957,-0.06562121212482452,-0.9155938625335693,0.03651481866836548,0.1679162234067917,-0.02883368730545044,0.9580999301306179,0.07415829112777804,-0.19158189627697628,0.19960366756373532
1728407184078835200,3.461835205078125,2.1680288314819336,-0.08651458472013474,0.024064570665359497,-0.3967536389827728,-0.08581224083900452,-0.9139052629470825,0.0852302610874176,0.17207027971744537,-0.07013410329818726,0.9572830981573199,0.0846710947636366,-0.18941537765683403,0.2013991055595968
1728407184088865300,3.471865234375,2.131438970565796,-0.23950712382793427,0.17691217362880707,-0.3983836770057678,-0.10508797317743301,-0.9111788868904114,0.1387554407119751,0.05676349997520447,-0.0252530574798584,0.9560350859051291,0.0950769333898153,-0.18807162328864846,0.20392707416907188
1728407184098896400,3.481896484375,1.7564189434051514,-0.31967276334762573,0.038971614092588425,-0.40108105540275574,-0.12283877283334732,-0.9077690243721008,0.0971413254737854,-0.14145860075950623,0.02573472261428833,0.9546494751700539,0.10482454705811849,-0.18742277786795036,0.20622525963109825
1728407184108927200,3.49192724609375,1.0008323192596436,-0.2166321575641632,-0.029754986986517906,-0.4035845100879669,-0.13513140380382538,-0.904908299446106,-0.022440791130065918,-0.18972812592983246,0.16847336292266846,0.9536721568131143,0.11156691166527272,-0.18734637144091978,0.2072768069505714
1728407184118957300,3.501957275390625,0.8632310628890991,-0.049262870103120804,0.08284293115139008,-0.404866099357605,-0.14329257607460022,-0.9030784368515015,-0.059382468461990356,-0.22615312039852142,0.1991294026374817,0.9530011236848416,0.11603960535632647,-0.18707107471383488,0.20815396908672346
1728407184128988200,3.51198828125,0.40737566351890564,0.09958934783935547,0.1635580211877823,-0.4047895669937134,-0.1489514857530594,-0.9021967053413391,-0.04337623715400696,-0.32812970876693726,0.11968016624450684,0.9524905359222856,0.1191512467683716,-0.18629182044605955,0.20942784186339114
1728407184139019300,3.522019287109375,-0.4500918984413147,0.13999801874160767,0.25678756833076477,-0.403919517993927,-0.14781509339809418,-0.9027733206748962,-0.014049142599105835,-0.3177762031555176,0.29283374547958374,0.9524149024873115,0.11866325850528717,-0.18582885038550734,0.21045766604572283
1728407184149049300,3.53204931640625,-0.9284020066261292,0.058152854442596436,0.38424381613731384,-0.40341663360595703,-0.1400539129972458,-0.9042344093322754,0.0696001648902893,-0.36928436160087585,0.3329300880432129,0.9525874846950222,0.11484926697948078,-0.18625904222132433,0.2114099527472319
1728407184159080200,3.542080078125,-1.5930286645889282,-0.04646623134613037,0.3873317241668701,-0.4038790166378021,-0.12729214131832123,-0.9059130549430847,0.1339663863182068,-0.4863857328891754,0.15765249729156494,0.9528596591083912,0.10859971105564052,-0.1877487009563299,0.2121677040126733
1728407184169110000,3.552110107421875,-2.2853546142578125,-0.13993966579437256,0.2169695794582367,-0.4051108658313751,-0.10800839960575104,-0.9078652858734131,0.1075187623500824,-0.4058159589767456,0.11520165205001831,0.953473278472192,0.09893216650854524,-0.19047254750028467,0.21171018828840715
1728407184179141400,3.562141357421875,-1.917724370956421,0.009822659194469452,0.03850582614541054,-0.4060305058956146,-0.08783271163702011,-0.9096288681030273,0.0277804434299469,-0.13335858285427094,0.07228749990463257,0.9542687814263685,0.08858526801054016,-0.1932310221459037,0.2102033012213764
1728407184189172200,3.572172119140625,-1.2340059280395508,0.11315762251615524,-0.024926941841840744,-0.40534406900405884,-0.07342131435871124,-0.9112110137939453,-0.049215167760849,0.2637137770652771,-0.12714964151382446,0.955026354605637,0.08093811042926326,-0.1945341138746701,0.20863884512506164
1728407184199202000,3.5822021484375,-0.3888009190559387,0.14678695797920227,0.2681148052215576,-0.4041966497898102,-0.0655355304479599,-0.9123212695121765,-0.036217719316482544,0.6565237641334534,-0.11862355470657349,0.9553742307368516,0.07678412276263376,-0.19479103924766308,0.20837615912793672
1728407184209233400,3.5922333984375,0.34926363825798035,0.04345742613077164,0.6779707670211792,-0.40347421169281006,-0.0636909008026123,-0.9127716422080994,0.09642165899276733,0.7116860151290894,-0.10062563419342041,0.9549762665752672,0.0762487599706169,-0.1944230281809427,0.2107276378085166
1728407184219263000,3.602262939453125,0.4234182834625244,-0.26838648319244385,0.870002269744873,-0.4049434959888458,-0.06452643126249313,-0.9120619893074036,0.19164100289344788,0.3336000442504883,-0.011460959911346436,0.9538614534957299,0.07770095403008077,-0.19476027607352017,0.21489355261987095
1728407184229294000,3.612294189453125,-0.4972917139530182,-0.6068305969238281,0.887786865234375,-0.4094790518283844,-0.0612458661198616,-0.9102613925933838,0.17292210459709167,-0.24879735708236694,0.1606276035308838,0.952455442807853,0.07748064181059638,-0.19714472416443105,0.2189961045416198
1728407184239325200,3.6223251953125,-2.278897762298584,-0.8355152010917664,0.6889818906784058,-0.41675040125846863,-0.0453481487929821,-0.9078891277313232,0.1180291473865509,-0.7180947661399841,0.25505703687667847,0.9513199790957851,0.07093227768241342,-0.20254394488812025,0.22121233139349597
1728407184249355000,3.63235498046875,-3.7175228595733643,-0.5584467649459839,0.1826997548341751,-0.4234232008457184,-0.015828454867005348,-0.9057937264442444,0.003806561231613159,-0.8474374413490295,0.1542220115661621,0.9510682996795591,0.056760816012101166,-0.2094787373420966,0.2199229657726942
1728407184259386000,3.64238623046875,-4.312243938446045,-0.2899060845375061,0.02611760050058365,-0.42717230319976807,0.021555732935667038,-0.9039132595062256,-0.17957812547683716,-0.5006358027458191,0.12708830833435059,0.9515177978575483,0.037645654173381664,-0.2159309454077282,0.21580221350889528
1728407184269417200,3.652417236328125,-3.5454041957855225,-0.1051313579082489,0.17375312745571136,-0.42880067229270935,0.0582825131714344,-0.9015170931816101,-0.1640947461128235,0.09609075635671616,0.05819433927536011,0.9517760033077008,0.018600974785895494,-0.22112313959220514,0.21185127076775573
1728407184279447000,3.662447021484375,-2.139408826828003,-0.16256482899188995,0.26573261618614197,-0.4297892451286316,0.08492852747440338,-0.8989261984825134,-0.07310983538627625,0.5464344620704651,-0.12675434350967407,0.9515635885289754,0.004912263079905973,-0.22475044305713454,0.20973749278085727
1728407184289478100,3.67247802734375,-1.1458336114883423,-0.26765304803848267,0.43191251158714294,-0.43139174580574036,0.10090914368629456,-0.8965035080909729,0.010737508535385132,0.7430240511894226,-0.15647506713867188,0.9509684309761242,-0.00293369181672789,-0.22746351251395214,0.20954888461338403
1728407184299508000,3.682508056640625,-0.5817555785179138,-0.29949966073036194,0.5945432186126709,-0.4333834648132324,0.11064386367797852,-0.8943918347358704,0.1093631386756897,0.573865532875061,-0.022829294204711914,0.9500730579551894,-0.007199528062113152,-0.22967859733596066,0.21108563705357783
1728407184309539000,3.6925390625,-0.7040112614631653,-0.2928273677825928,0.5577122569084167,-0.43541377782821655,0.1184949055314064,-0.8923977613449097,0.12837651371955872,0.09239692986011505,0.11799895763397217,0.94907030388476,-0.010367485031360327,-0.2317188487324182,0.2132238346363866
1728407184319570200,3.702570068359375,-1.4829879999160767,-0.217378169298172,0.41779109835624695,-0.437115877866745,0.1302064061164856,-0.8899303078651428,0.09083300828933716,-0.34451600909233093,0.2550883889198303,0.9481763675111465,-0.015758495174376726,-0.23406516994027818,0.21430515769244113
1728407184329600000,3.71260009765625,-2.212965726852417,-0.17857319116592407,0.2944287061691284,-0.4382939040660858,0.1484505832195282,-0.8864879608154297,0.07167109847068787,-0.534497857093811,0.3314189910888672,0.9473833759839767,-0.024879139601477352,-0.2369326030634977,0.21379585592491923
1728407184339631000,3.722631103515625,-2.435368537902832,-0.19466426968574524,0.1724228858947754,-0.43955329060554504,0.1703644096851349,-0.8819120526313782,0.06404981017112732,-0.4874572157859802,0.3075101971626282,0.9465482775299997,-0.0361400421513701,-0.24028705753508442,0.2121375729305766
1728407184349662000,3.732661865234375,-2.4260480403900146,-0.2964435815811157,-0.0010495716705918312,-0.4415223002433777,0.19219723343849182,-0.8764235973358154,0.04903581738471985,-0.25336962938308716,0.16562342643737793,0.9456584140126141,-0.0475370053504835,-0.24398451627274945,0.20962334499803004
1728407184359692000,3.742692138671875,-2.3656933307647705,-0.6867457628250122,0.12950657308101654,-0.4455079138278961,0.21332551538944244,-0.8694912195205688,0.0722322165966034,0.04599770903587341,0.021545052528381348,0.944413881057326,-0.05844903389493532,-0.24867269795417146,0.20694944899087186
1728407184369723100,3.75272314453125,-2.1939239501953125,-0.8788316249847412,0.3527095913887024,-0.4520157277584076,0.23454585671424866,-0.8606218695640564,0.15799424052238464,0.2404450625181198,-0.1777387261390686,0.942373572614933,-0.0688623309752881,-0.2548471136295454,0.20553062714223969
1728407184379753200,3.762753173828125,-1.7932443618774414,-0.8069478273391724,0.3575293719768524,-0.45837315917015076,0.2532559335231781,-0.8519128561019897,0.05242842435836792,0.25705909729003906,-0.34680235385894775,0.9401816559872268,-0.07783918148723988,-0.26073864928669716,0.2049753469247256
1728407184389784000,3.7727841796875,-1.7364306449890137,-0.7100678086280823,0.29832783341407776,-0.46395668387413025,0.26946595311164856,-0.8438793420791626,-0.12631425261497498,0.146336168050766,-0.3239215612411499,0.9381391718784949,-0.0856352352743595,-0.26594536276088954,0.2045352647692511
1728407184399815200,3.782815185546875,-1.946428656578064,-0.5653442144393921,0.2711169719696045,-0.46858617663383484,0.2863084673881531,-0.8357358574867249,-0.187175452709198,0.035438477993011475,-0.11984580755233765,0.9361593570181818,-0.09402356799730513,-0.2707242645383457,0.20365069412131948
1728407184409845000,3.792844970703125,-2.0541160106658936,-0.4526342451572418,0.25333213806152344,-0.471972793340683,0.3043110966682434,-0.8274276256561279,-0.15963417291641235,-0.045933932065963745,0.02985072135925293,0.934212919068079,-0.10329861516506614,-0.2749829011132075,0.2023858666733696
1728407184419876000,3.8028759765625,-2.016054630279541,-0.38855114579200745,0.22920334339141846,-0.4746653735637665,0.32239922881126404,-0.8189942240715027,-0.09259527921676636,-0.07874679565429688,0.17225044965744019,0.9322768154546819,-0.1128147053859626,-0.27888299275337053,0.20089101219659597
1728407184429906200,3.81290625,-1.7394918203353882,-0.32665103673934937,0.282135546207428,-0.4767732620239258,0.3390864431858063,-0.8109917640686035,-0.041338831186294556,-0.040807515382766724,0.20166254043579102,0.930405291742446,-0.12165800093873741,-0.28231796925162195,0.1996046216648811
1728407184439937000,3.82293701171875,-1.269991159439087,-0.23690861463546753,0.2757468819618225,-0.4780579209327698,0.35261327028274536,-0.804440438747406,-0.010040104389190674,0.014375925064086914,0.14875507354736328,0.9287783427214086,-0.1287813124205031,-0.28494761717198336,0.1989746317656167
1728407184449968000,3.832968017578125,-0.9822109341621399,-0.14324556291103363,0.21429257094860077,-0.4786956012248993,0.3627126216888428,-0.7995561361312866,-0.026263415813446045,0.06428942084312439,0.08681809902191162,0.9275373871454715,-0.13411532209989857,-0.2867664742183833,0.19862622041600198
1728407184459998200,3.842998291015625,-0.49789857864379883,-0.1397099494934082,0.3180621266365051,-0.47879430651664734,0.36996355652809143,-0.7961676716804504,-0.017650306224822998,0.09576526284217834,0.10740125179290771,0.926583140620446,-0.13785489034754644,-0.2879447754474747,0.19881505585061163
1728407184470029000,3.853029052734375,-0.25824934244155884,-0.14513209462165833,0.3648346960544586,-0.4786960482597351,0.3743917942047119,-0.794154167175293,0.01391342282295227,0.04405006766319275,0.04514598846435547,0.9257637074616347,-0.13979458006655548,-0.28875662875196634,0.20009636179664925
1728407184480060200,3.86306005859375,-0.41398942470550537,-0.00792390014976263,0.32210665941238403,-0.47798335552215576,0.37866291403770447,-0.7925568222999573,-0.04385185241699219,-0.007614850997924805,0.005264341831207275,0.9250871691707242,-0.1417603022670207,-0.2891809427776313,0.20122630591925503
1728407184490090200,3.87309033203125,-0.31068357825279236,-0.02882673218846321,0.3743586838245392,-0.4767923355102539,0.3834216296672821,-0.7909847497940063,-0.07990923523902893,-0.05990469455718994,0.17076075077056885,0.924430645334197,-0.14405341843201475,-0.2894066810594372,0.20228774168615288
1728407184500121000,3.88312109375,-0.014614652842283249,0.08965863287448883,0.3619214594364166,-0.47516074776649475,0.3864956796169281,-0.79047030210495,-0.0617806613445282,-0.09557154774665833,0.03773903846740723,0.9239657090403663,-0.14537241926525307,-0.28919146778973065,0.20377058397491993
1728407184510151200,3.893151123046875,0.21596768498420715,0.21769218146800995,0.3400454521179199,-0.47253137826919556,0.3873055875301361,-0.7916492223739624,-0.10164150595664978,-0.016410082578659058,-0.022773385047912598,0.9239241473940478,-0.1455550283699325,-0.2880783404502552,0.20539893385394717
1728407184520182000,3.90318212890625,0.5734456777572632,0.27547797560691833,0.3921549916267395,-0.4691760540008545,0.38600581884384155,-0.7942754030227661,-0.11085620522499084,0.1368977129459381,0.011911511421203613,0.9241777630652602,-0.14457643695568553,-0.28628651170831687,0.20744458352624873
1728407184530213000,3.913213134765625,1.2735379934310913,0.46861833333969116,0.4137473702430725,-0.4647119641304016,0.3807332217693329,-0.7994279265403748,-0.09345445036888123,0.22671926021575928,0.021626412868499756,0.9249072033613766,-0.1413648152767646,-0.28337611528399276,0.21038214247800735
1728407184540243200,3.9232431640625,2.247209072113037,0.7012878060340881,0.3525002598762512,-0.45849835872650146,0.36847084760665894,-0.8087079524993896,-0.10682442784309387,0.2696213126182556,0.04097723960876465,0.926531187082632,-0.13444741158265136,-0.27851377979706327,0.21422889189599315
1728407184550274000,3.933274169921875,3.286031484603882,0.7878404855728149,0.2989898920059204,-0.4511427879333496,0.3471682667732239,-0.8221583962440491,-0.10467374324798584,0.3612516522407532,0.10929828882217407,0.9290258183358289,-0.12276526149240086,-0.2717526373243744,0.2190670000263216
1728407184560305200,3.94330517578125,4.040081977844238,0.7068426012992859,0.32757946848869324,-0.4438531696796417,0.3179819583892822,-0.8377838730812073,-0.06276905536651611,0.48969635367393494,0.13926702737808228,0.9318050332737072,-0.10688084116173766,-0.26397829540816115,0.2250142480896889
1728407184570335200,3.953335205078125,4.5874409675598145,0.519489049911499,0.3057820200920105,-0.4375520944595337,0.28254395723342896,-0.8536492586135864,-0.0023434460163116455,0.4861023724079132,0.023326992988586426,0.9343767739183014,-0.08768997258110568,-0.2559020128116632,0.2318719681699661
1728407184580366000,3.963365966796875,4.587416648864746,0.2374243289232254,0.2728935778141022,-0.4335128962993622,0.24383360147476196,-0.8675320148468018,0.022944748401641846,0.2760639786720276,-0.15556985139846802,0.9363112140487817,-0.06678603489594272,-0.24854301875888277,0.23892960699553217
1728407184590396200,3.973396240234375,4.025792121887207,0.01729612797498703,0.24692533910274506,-0.43185651302337646,0.20709013938903809,-0.8778460025787354,0.028582066297531128,-0.015119209885597229,-0.26149725914001465,0.9373773734256967,-0.04692696757315515,-0.24264140511108848,0.2454518928280503
1728407184600427300,3.98342724609375,3.181006669998169,-0.15067076683044434,0.18486464023590088,-0.43205010890960693,0.17611491680145264,-0.8844864368438721,0.028195828199386597,-0.29813939332962036,-0.29758143424987793,0.9377181471546867,-0.030122000486260597,-0.2384312282931362,0.2508543693366342
1728407184610458000,3.9934580078125,2.1250216960906982,-0.28239375352859497,0.12189951539039612,-0.4337379038333893,0.1530943065881729,-0.8879378437995911,0.021643877029418945,-0.47792333364486694,-0.2524888515472412,0.9375836320352414,-0.017498903780247835,-0.23606116413366454,0.25476647053494816
1728407184620488200,4.00348828125,1.3429218530654907,-0.31758955121040344,0.07988415658473969,-0.4363851845264435,0.13853849470615387,-0.889030396938324,0.019576191902160645,-0.4797402024269104,-0.06897741556167603,0.937192946503755,-0.009301668540211985,-0.23536837044404116,0.2572639073561109
1728407184630519000,4.01351904296875,1.2263034582138062,-0.22133056819438934,-0.057721372693777084,-0.4387693405151367,0.1272202432155609,-0.8895484805107117,-0.014996439218521118,-0.33699798583984375,0.024741291999816895,0.9368893056556354,-0.0029679084215291306,-0.23498289630118172,0.2588678518411547
1728407184640549000,4.023549072265625,1.187073826789856,-0.11182297766208649,-0.18422818183898926,-0.44037073850631714,0.11597158014774323,-0.8902944326400757,-0.09992757439613342,-0.05135051906108856,0.048436522483825684,0.9368673770880883,0.003015128816160773,-0.23418730597769688,0.25966636863973197
1728407184650580200,4.033580322265625,1.6120158433914185,0.017155034467577934,-0.16782976686954498,-0.44112029671669006,0.10322055220603943,-0.8914922475814819,-0.11527609825134277,0.25011205673217773,0.0005772709846496582,0.936989068604311,0.009591537307920363,-0.23272704826756438,0.2603798851866907
1728407184660611000,4.043611083984375,2.2736778259277344,0.09148066490888596,-0.08899460732936859,-0.4405458867549896,0.08494637161493301,-0.8937020897865295,-0.08173182606697083,0.36170899868011475,-0.13260406255722046,0.9371065579291331,0.018931959149957725,-0.2297619007467694,0.26207325973143253
