time,seconds_elapsed,rotationRateX,rotationRateY,rotationRateZ,gravityX,gravityY,gravityZ,accelerationX,accelerationY,accelerationZ,quaternionW,quaternionX,quaternionY,quaternionZ
1728406737800776200,0.035776123046875,-0.062311068177223206,-0.011319911107420921,-0.009816964156925678,0.017147229984402657,-0.30404770374298096,-0.9525024890899658,0.01724608615040779,0.013916999101638794,-0.01948237419128418,0.9880543109963095,0.15386183739445028,0.008677270688727411,-6.825642951881368e-17
1728406737810806300,0.04580615234375,-0.03154383599758148,0.017116524279117584,-0.011053736321628094,0.0179784893989563,-0.30386674404144287,-0.9525448679924011,-0.007816124707460403,0.017382889986038208,-0.0331881046295166,0.9880650310401301,0.15376957259922058,0.00908131157586695,-0.00010611878657323374
1728406737820837400,0.05583740234375,0.006029639858752489,0.005905788391828537,0.015033790841698647,0.01899448223412037,-0.304026335477829,-0.9524742364883423,-0.021618986502289772,0.013056397438049316,-0.04187995195388794,0.9880471294858886,0.153853499209998,0.009590438056575085,-0.00013932973199193041
1728406737830867200,0.0658671875,0.05440942570567131,-0.05382039025425911,0.026503492146730423,0.019064370542764664,-0.30495959520339966,-0.9521744847297668,-0.010076936334371567,0.013623416423797607,-0.039112746715545654,0.987971332235626,0.15433696243906128,0.009636871465066936,-0.00007277921651917283
1728406737840898300,0.075898193359375,0.05215645581483841,-0.10126349329948425,0.04113170504570007,0.018075959756970406,-0.3060070872306824,-0.9518576264381409,0.01946067065000534,0.02283439040184021,-0.024079203605651855,0.987891120925863,0.15487863821749528,0.009154015877930412,0.00003351876012134991
1728406737850928400,0.085928466796875,0.02797175571322441,-0.0829920768737793,0.044142674654722214,0.01657906174659729,-0.3067571222782135,-0.9516434073448181,0.03806266188621521,0.020486891269683838,-0.00933980941772461,0.9878368938832894,0.15526522411370067,0.00842595988865673,0.0002186113457647472
1728406737860959200,0.095959228515625,-0.03139549493789673,-0.07123709470033646,0.013918725773692131,0.015473935753107071,-0.3071816861629486,-0.951525092124939,0.03141632676124573,0.006903886795043945,0.0020470023155212402,0.987806904137039,0.1554840779145252,0.007884213368634641,0.000328731800480871
1728406737870990300,0.105990234375,-0.05181474983692169,-0.0032199593260884285,-0.014222098514437675,0.015509996563196182,-0.30665135383605957,-0.9516955614089966,-0.004569431766867638,-0.018223613500595093,0.003026127815246582,0.9878501309082285,0.15520922496562758,0.007894610100980302,0.00028151400322040394
1728406737881020400,0.1160205078125,-0.011669928207993507,-0.02062227763235569,-0.048644788563251495,0.01593431644141674,-0.3059155344963074,-0.9519253373146057,-0.037922218441963196,-0.025261342525482178,-0.003396928310394287,0.9879083029817364,0.15482919185584498,0.008078607373545009,0.00008890663637608641
1728406737891051300,0.12605126953125,-0.003628247184678912,-0.043861024081707,-0.042073704302310944,0.015621224418282509,-0.3053838908672333,-0.9521011710166931,-0.05471423268318176,-0.016088366508483887,-0.01518392562866211,0.9879528259929611,0.1545552134506312,0.007879778003724441,-0.00016669209072077298
1728406737901081300,0.136081298828125,-0.021862776950001717,-0.041304439306259155,-0.03597213327884674,0.01497635804116726,-0.30479130148887634,-0.9523013830184937,-0.007163845933973789,0.008297652006149292,-0.026137888431549072,0.9880033049567271,0.15424883877117013,0.007522710073121609,-0.0003612135354886774
1728406737911112200,0.1461123046875,-0.008592512458562851,-0.041356369853019714,-0.032997917383909225,0.01455440279096365,-0.30424267053604126,-0.9524833559989929,0.03442632034420967,0.01585143804550171,-0.017716169357299805,0.9880493453929469,0.15396536486900764,0.007278526554441279,-0.0005563451540197941
1728406737921142300,0.156142333984375,0.01747364178299904,-0.035349078476428986,-0.033598192036151886,0.01469485368579626,-0.30383962392807007,-0.9526098370552063,0.016494112089276314,-0.006890445947647095,-0.011211514472961426,0.9880811392557654,0.1537582719732755,0.0073119913208463715,-0.00079726583554412
1728406737931173400,0.16617333984375,0.0267515629529953,-0.03251174837350845,-0.028309421613812447,0.015159540809690952,-0.3037296235561371,-0.9526376724243164,-0.01136009767651558,-0.00947234034538269,-0.008711755275726318,0.9880880055993996,0.1537034159829036,0.0075119029266782255,-0.001023719043143687
1728406737941204200,0.176204345703125,0.025743156671524048,-0.05067663639783859,-0.009730678051710129,0.015380645170807838,-0.3039501905441284,-0.9525637626647949,-0.009704367257654667,0.007242977619171143,-0.0016292929649353027,0.9880691009604309,0.1538194133183933,0.007596475434048197,-0.0011993277001197604
1728406737951234300,0.186234375,0.0075737410224974155,-0.07571620494127274,-0.004637648351490498,0.01470748521387577,-0.30448073148727417,-0.9524049162864685,0.0073109520599246025,0.0013953149318695068,0.006588935852050781,0.9880287706231078,0.15409426719790748,0.007244872643000958,-0.0012693536148203758
1728406737961265400,0.196265380859375,-0.038036689162254333,-0.054780516773462296,0.003871150780469179,0.013400526717305183,-0.30473756790161133,-0.9523420929908752,0.013073474168777466,-0.012431740760803223,0.01139366626739502,0.9880129681296709,0.15422590710471443,0.006581958978069719,-0.0012786602665332265
1728406737971295200,0.206295166015625,-0.0692119151353836,-0.030459729954600334,-0.010505124926567078,0.012111157178878784,-0.3044213056564331,-0.9524604678153992,0.003056091256439686,-0.016928881406784058,0.020529985427856445,0.9880428645282362,0.15406022521260138,0.0059331595013291825,-0.001255111983770131
1728406737981326300,0.216326416015625,-0.09913399070501328,-0.03699102625250816,-0.016853036358952522,0.011767571792006493,-0.3033565878868103,-0.952804446220398,-0.021685777232050896,-0.029834449291229248,0.021438539028167725,0.988129743524567,0.15350829130761157,0.005742916799860279,-0.0013617428280798328
1728406737991356400,0.2263564453125,-0.11756839603185654,0.009386327117681503,-0.007807076442986727,0.012176964432001114,-0.30203577876091003,-0.9532188177108765,-0.036331627517938614,-0.02866804599761963,0.00998157262802124,0.9882344704765699,0.15282467218658788,0.005933801004500812,-0.001468973665119572
1728406738001387300,0.23638720703125,-0.11362099647521973,0.020523399114608765,-0.02135910466313362,0.01268232986330986,-0.3009844720363617,-0.9535447359085083,-0.024126410484313965,-0.0027875900268554688,0.0026170015335083008,0.9883168467920952,0.1522808240376751,0.006180067252895973,-0.0015320391467420634
1728406738011418400,0.24641845703125,-0.10024154186248779,0.014260711148381233,-0.03861106187105179,0.012769702821969986,-0.3001003861427307,-0.953822135925293,-0.021329883486032486,-0.0013523399829864502,-0.010380685329437256,0.988386736142563,0.15182362924279413,0.006205823493203771,-0.0016538796626288353
1728406738021448400,0.256448486328125,-0.06150146573781967,0.04843902587890625,-0.05392024293541908,0.013034077361226082,-0.29924488067626953,-0.9540873169898987,-0.018847674131393433,-0.004939168691635132,-0.020460963249206543,0.988453575611452,0.15138200044782396,0.006310681550660705,-0.0018444926701720542
1728406738031479300,0.266479248046875,-0.0387231819331646,0.06573013216257095,-0.07556934654712677,0.01399246510118246,-0.2989146113395691,-0.9541772603988647,-0.01176467351615429,0.010538637638092041,-0.02488762140274048,0.9884756948141747,0.15121440211949685,0.006750116873159198,-0.0021420311973331567
1728406738041509400,0.27650927734375,-0.04496203735470772,0.06736525893211365,-0.07337170839309692,0.015117902308702469,-0.2989925742149353,-0.9541356563568115,-0.014217630960047245,0.01507219672203064,-0.0265924334526062,0.9884643490002345,0.1512591097612126,0.007269353065323649,-0.002468973080927568
1728406738051540500,0.28654052734375,-0.03438955545425415,0.04083085432648659,-0.06201066076755524,0.0158541239798069,-0.2992340326309204,-0.9540480375289917,-0.006332637742161751,0.014215052127838135,-0.017707884311676025,0.9884414509412194,0.15138780668377097,0.007597064344306586,-0.002759859041708355
1728406738061570300,0.2965703125,-0.024545513093471527,0.01828938163816929,-0.06850184500217438,0.015710802748799324,-0.29984650015830994,-0.9538580775260925,0.008688002824783325,0.011790990829467773,-0.0024101734161376953,0.9883926878528826,0.15170672129616386,0.007485055662465848,-0.003013888841543922
1728406738071601400,0.306601318359375,-0.028507230803370476,-0.004064126871526241,-0.0517289936542511,0.015046985819935799,-0.30030497908592224,-0.9537245631217957,0.0200329776853323,0.006100177764892578,0.0030257105827331543,0.9883582086193898,0.15194448200924462,0.00711322219709176,-0.0032451431165499895
1728406738081632300,0.31663232421875,-0.026471978053450584,-0.029528476297855377,-0.010324561968445778,0.014341854490339756,-0.3001323938369751,-0.9537897109985352,0.01635883003473282,0.0023265182971954346,0.005547583103179932,0.9883742986485037,0.1518542315863779,0.006739721891418277,-0.0033555816038933015
1728406738091662300,0.326662353515625,-0.031888581812381744,-0.06543853878974915,0.004081541206687689,0.01342000626027584,-0.29981493949890137,-0.9539029598236084,0.010460002347826958,0.001337677240371704,0.008361637592315674,0.9884028791313919,0.15168779241320662,0.0062705022449991024,-0.0033768075751803035
1728406738101693400,0.336693359375,-0.06114240735769272,-0.0992387905716896,0.030006613582372665,0.01212466973811388,-0.2993440330028534,-0.9540681838989258,0.01694333739578724,-0.0035735368728637695,-0.0028104186058044434,0.9884448846926266,0.15144055852264052,0.00562599060211385,-0.0033105599430789568
1728406738111723500,0.3467236328125,-0.09226038306951523,-0.10932578146457672,0.03763284161686897,0.010799115523695946,-0.298252135515213,-0.9544260501861572,0.028721148148179054,-0.01113516092300415,-0.008373022079467773,0.9885356456676256,0.15087162527742312,0.004973970649153832,-0.0031988146754020627
1728406738121754400,0.35675439453125,-0.12292122095823288,-0.1023283302783966,0.028131216764450073,0.009469687938690186,-0.29676246643066406,-0.9549043774604797,0.036199867725372314,-0.015325665473937988,-0.011572003364562988,0.9886570150963157,0.15009715583873987,0.004318879276857312,-0.0030976846612592542
1728406738131784400,0.366784423828125,-0.15094353258609772,-0.06027594953775406,0.0064554824493825436,0.008640702813863754,-0.2951298952102661,-0.955418050289154,0.02012212574481964,-0.021017074584960938,-0.010356426239013672,0.9887869384293501,0.14925047140502523,0.00390668097525244,-0.0030651582808727627
1728406738141815300,0.376815185546875,-0.18759842216968536,-0.04086342081427574,-0.018363313749432564,0.00851235818117857,-0.29336920380592346,-0.9559613466262817,0.000597141683101654,-0.0242425799369812,-0.007448077201843262,0.9889240892610759,0.14833966985924876,0.0038311990844824883,-0.003150969876197759
1728406738151846400,0.386846435546875,-0.23603199422359467,-0.016354883089661598,-0.041603121906518936,0.008889326825737953,-0.291373610496521,-0.9565680027008057,-0.009438642300665379,-0.027016371488571167,-0.0021111369132995605,0.9890766633782322,0.14730934612318647,0.003992914421300997,-0.0033627542182181765
1728406738161876500,0.39687646484375,-0.27019253373146057,0.01038607768714428,-0.03555561602115631,0.009436473250389099,-0.28907257318496704,-0.9572606682777405,-0.008520938456058502,-0.028661280870437622,0.0000921487808227539,0.9892510858577995,0.14612210846468152,0.004241426822054152,-0.003575096888221383
1728406738171907300,0.4069072265625,-0.26302412152290344,0.0021939282305538654,-0.039488039910793304,0.0099430987611413,-0.2867375612258911,-0.9579575657844543,-0.008874982595443726,-0.03372761607170105,-0.003040909767150879,0.989426420326612,0.1449179185740107,0.004473578967505401,-0.0037626266315322794
1728406738181937200,0.416937255859375,-0.24987417459487915,-0.02345667965710163,-0.015359003096818924,0.010327327996492386,-0.2845849394798279,-0.9585952162742615,-0.01246355939656496,-0.04163280129432678,-0.021324217319488525,0.9895869383865087,0.14380822397724285,0.004646625979537048,-0.003931788766412538
1728406738191968500,0.426968505859375,-0.2296418696641922,-0.04684242978692055,0.03817000240087509,0.010444391518831253,-0.2826392650604248,-0.9591693878173828,0.003654732368886471,-0.03318724036216736,-0.04418748617172241,0.9897319209961016,0.1428044883267503,0.004708870313690034,-0.0039331840927822916
1728406738201998300,0.436998291015625,-0.24851609766483307,-0.0790802612900734,0.08642568439245224,0.010099971666932106,-0.28068777918815613,-0.9597460031509399,0.02601758763194084,-0.033216118812561035,-0.05798470973968506,0.9898784001625127,0.14179600434632125,0.004571941498351107,-0.0036977043961308005
1728406738212029200,0.447029296875,-0.2773493528366089,-0.08041290938854218,0.15690916776657104,0.009153736755251884,-0.278476744890213,-0.960399329662323,0.03502046316862106,-0.05002981424331665,-0.06557106971740723,0.9900453981810268,0.14065168596460276,0.004174431479810894,-0.0031566754263083504
1728406738222060500,0.457060546875,-0.2892497479915619,-0.09983501583337784,0.22852715849876404,0.007764226291328669,-0.2759946584701538,-0.9611278176307678,0.032259583473205566,-0.062094420194625854,-0.0609363317489624,0.9902317892226824,0.13936678406435182,0.003604252064936224,-0.002246361910617463
1728406738232090000,0.467090087890625,-0.27746763825416565,-0.14946968853473663,0.30944013595581055,0.0058223470114171505,-0.2734653949737549,-0.9618642330169678,0.02962382696568966,-0.06141933798789978,-0.05551552772521973,0.9904196768777276,0.13805815600521884,0.0027991019690207634,-0.0010060093287641628
1728406738242121200,0.477121337890625,-0.2244236022233963,-0.21853519976139069,0.4238133132457733,0.0030630165711045265,-0.2712162435054779,-0.9625135660171509,0.04269809648394585,-0.05234643816947937,-0.059474289417266846,0.9905838668306747,0.1368960258156806,0.0016411571007952824,0.000688080119490341
1728406738252151300,0.4871513671875,-0.12572845816612244,-0.2940795123577118,0.5108587145805359,-0.000719692325219512,-0.2697112560272217,-0.9629409909248352,0.06440988183021545,-0.04170545935630798,-0.07689964771270752,0.9906878830712518,0.13612313586195787,0.000028499471882570822,0.0028509498397341006
1728406738262182100,0.49718212890625,-0.031141497194767,-0.3804451823234558,0.6909736394882202,-0.005616223439574242,-0.26884716749191284,-0.9631664752960205,0.07766822725534439,-0.024655699729919434,-0.11202877759933472,0.9907331475643003,0.13569258860731734,-0.002069310864508415,0.005585985491517112
1728406738272212200,0.507212158203125,0.1415003091096878,-0.4202626347541809,0.9501660466194153,-0.011573996394872665,-0.26921531558036804,-0.9630104899406433,0.05745718255639076,-0.01743638515472412,-0.1508505940437317,0.9906658801338506,0.1359187642886863,-0.00456699913225156,0.009289579275653605
1728406738282243300,0.517243408203125,0.19038502871990204,-0.2898609936237335,0.8287330865859985,-0.017420463263988495,-0.2708016633987427,-0.9624775052070618,0.026499437168240547,-0.03210064768791199,-0.17802536487579346,0.990483066847657,0.13679621558727748,-0.0069305777673458625,0.013491684264758686
1728406738292274200,0.527274169921875,0.1440068781375885,0.2712404131889343,0.6649508476257324,-0.01937009207904339,-0.2724556028842926,-0.9619733691215515,0.00958920642733574,-0.07175222039222717,-0.1985185146331787,0.9902905268508051,0.1376940289150222,-0.007326373136911052,0.0176464292602728
1728406738302304300,0.53730419921875,0.04274504631757736,-0.3671901524066925,-1.360737919807434,-0.015160373412072659,-0.27336034178733826,-0.9617922306060791,-0.011862942017614841,-0.12616059184074402,-0.17771881818771362,0.9902907869066723,0.13810394811882795,-0.005584268910291963,0.01484488203061956
1728406738312335400,0.54733544921875,-0.05877545475959778,-1.3238441944122314,-0.7099058032035828,-0.020896797999739647,-0.27360081672668457,-0.9616162776947021,0.032234083861112595,-0.1763504445552826,-0.15367907285690308,0.990320238004802,0.13821873837086757,-0.009350387397073771,0.00859883899854892
1728406738322365200,0.557365234375,-0.2807411253452301,-1.4620225429534912,0.4043986201286316,-0.03466233238577843,-0.2718961536884308,-0.9617021679878235,0.10528001189231873,-0.29332002997398376,-0.051817119121551514,0.9903546807885244,0.13738852171694402,-0.016532508660741553,0.0069737884934649415
1728406738332396300,0.567396240234375,-0.2886142432689667,-0.4467616081237793,1.7118690013885498,-0.04712717980146408,-0.26866182684898376,-0.9620810151100159,0.4492878317832947,-0.1681210994720459,0.015776753425598145,0.9904130006325825,0.13588035213945404,-0.02227162392970063,0.011079476053483904
1728406738342426400,0.57742626953125,-0.1468556523323059,-0.9491453766822815,1.3893673419952393,-0.057924430817365646,-0.2656177282333374,-0.9623367190361023,0.23849692940711975,-0.03304263949394226,-0.08156275749206543,0.990352876892929,0.13461960461813505,-0.02663069095111486,0.019227768191147077
1728406738352457200,0.587457275390625,-0.06114153936505318,-1.3680633306503296,0.24477989971637726,-0.07128190249204636,-0.26415860652923584,-0.9618415236473083,0.13958023488521576,-0.010530233383178711,-0.18687057495117188,0.9901658849076129,0.13413044819269218,-0.03298870655414057,0.02219227625742234
1728406738362488300,0.59748828125,-0.04712352901697159,-1.2821067571640015,0.2209818959236145,-0.08501431345939636,-0.26350289583206177,-0.9609051942825317,0.31525418162345886,-0.0962384045124054,-0.1606462597846985,0.9899293926868693,0.1339869661591757,-0.039936139779770626,0.02219019038518294
1728406738372518400,0.607518310546875,0.01437418907880783,-0.9072433114051819,0.6012852787971497,-0.09653886407613754,-0.26286330819129944,-0.9599912166595459,-0.03195539116859436,-0.15585318207740784,-0.10493487119674683,0.9896689111171526,0.133885208985318,-0.04559764723509213,0.023474262488983336
1728406738382549200,0.61754931640625,0.17724919319152832,-0.7679279446601868,0.9587600827217102,-0.10654033720493317,-0.2629299759864807,-0.9589144587516785,-0.07226216048002243,-0.08060652017593384,-0.14943814277648926,0.9893107703571851,0.1342482915191021,-0.05020115294181551,0.026857890892305124
1728406738392579300,0.627579345703125,0.3423324227333069,-0.7949994802474976,1.0938489437103271,-0.11674770712852478,-0.26423147320747375,-0.9573670625686646,0.00941738486289978,-0.04338577389717102,-0.17111188173294067,0.9887803910881379,0.13536192910754008,-0.05471395200382988,0.03157290387396788
1728406738402610200,0.637610107421875,0.49577176570892334,-0.8490397930145264,1.027651309967041,-0.12748296558856964,-0.2669479250907898,-0.9552417993545532,0.05828435719013214,-0.020726114511489868,-0.137623131275177,0.9880762945959655,0.1372759393339811,-0.059450928670697144,0.03641884425020057
1728406738412640300,0.64764013671875,0.5716540217399597,-0.8659724593162537,0.939203143119812,-0.1383131891489029,-0.2708020806312561,-0.9526466727256775,0.0819319486618042,-0.02177003026008606,-0.10434484481811523,0.9872461642146831,0.13980905319099501,-0.06426579454680235,0.04084453085451013
1728406738422671400,0.65767138671875,0.5374195575714111,-0.903479814529419,0.9242731928825378,-0.14924490451812744,-0.27472764253616333,-0.9498687982559204,0.10455189645290375,-0.07448509335517883,-0.09911191463470459,0.9863621445068017,0.14241752752776501,-0.06915824176095045,0.04499012302725324
1728406738432702200,0.6677021484375,0.5289496779441833,-0.9940272569656372,0.9636403322219849,-0.16088348627090454,-0.2783086597919464,-0.9469217658042908,0.12331634759902954,-0.12595775723457336,-0.07717180252075195,0.9854156197157429,0.14492577321527003,-0.07440192851020244,0.04916253166963185
1728406738442732300,0.677732177734375,0.4957876205444336,-1.0435420274734497,1.0002821683883667,-0.1733551174402237,-0.28150904178619385,-0.9437693953514099,0.1349029541015625,-0.15083357691764832,-0.03674513101577759,0.9843910171794353,0.1473344579570279,-0.08004913205984922,0.0534695905476966
1728406738452763400,0.687763427734375,0.4414897561073303,-1.0191341638565063,1.003743052482605,-0.1859767735004425,-0.2840934991836548,-0.9405868053436279,0.13133504986763,-0.169367253780365,-0.012782275676727295,0.9833347502007949,0.1494995683516657,-0.0857699487855323,0.057845065577145936
1728406738462793500,0.69779345703125,0.4007169008255005,-1.008066177368164,0.9934850931167603,-0.19831401109695435,-0.28607791662216187,-0.9374598264694214,0.10103921592235565,-0.1767365038394928,0.003774583339691162,0.9822735124589451,0.15140525977220556,-0.09135929766394678,0.06219856191847944
1728406738472824300,0.70782421875,0.4171701669692993,-1.0267351865768433,1.0157283544540405,-0.21073217689990997,-0.28778699040412903,-0.9342219233512878,0.06156224012374878,-0.16532284021377563,0.015551328659057617,0.9811631934208572,0.1532356471879479,-0.09699418927345753,0.06655736211074811
1728406738482854400,0.7178544921875,0.5009196400642395,-1.037649154663086,1.0518561601638794,-0.22338531911373138,-0.2897566854953766,-0.930666446685791,0.04340788722038269,-0.12674731016159058,0.007753908634185791,0.9799395662357929,0.15529419554173968,-0.10271553586556285,0.07107569475245523
1728406738492885200,0.72788525390625,0.593457043170929,-1.0201860666275024,1.086397409439087,-0.23610082268714905,-0.29237741231918335,-0.9266994595527649,0.05465856194496155,-0.06783688068389893,-0.019772648811340332,0.9785717486365623,0.1577884337879398,-0.10841168443955405,0.07580912462887275
1728406738502914800,0.737914794921875,0.6459142565727234,-0.9744403958320618,1.1031662225723267,-0.24853894114494324,-0.29544979333877563,-0.9224628806114197,0.06726449728012085,-0.01985791325569153,-0.05280256271362305,0.9770942325136682,0.1606003923036032,-0.11391252230914332,0.0807358008928706
1728406738512945000,0.74794482421875,0.7008470296859741,-0.9169307351112366,1.1593222618103027,-0.26059362292289734,-0.29874852299690247,-0.9180633425712585,0.06361788511276245,0.007915914058685303,-0.08350825309753418,0.9755277129646878,0.16361317149580737,-0.11915979612095101,0.08589238098493021
1728406738522976000,0.75797607421875,0.7223682403564453,-0.9235392212867737,1.1679061651229858,-0.2725100517272949,-0.3021564185619354,-0.9134767651557922,0.047915905714035034,0.013444781303405762,-0.08351719379425049,0.9738612945506958,0.16678229783633752,-0.12427905571962485,0.09128341829130922
1728406738533005800,0.768005859375,0.7097688317298889,-0.9386383295059204,1.1152561902999878,-0.284475713968277,-0.30549731850624084,-0.9087051153182983,0.03163754940032959,0.014832556247711182,-0.10890352725982666,0.9721290622890395,0.16998060901252807,-0.12943739209582164,0.09652871752193606
1728406738543037000,0.778036865234375,0.6514836549758911,-0.9277377724647522,1.0508841276168823,-0.2962891161441803,-0.3085024952888489,-0.9039021134376526,-0.00044855475425720215,0.011245936155319214,-0.12544047832489014,0.9703932699477505,0.17302430222983464,-0.13457912208634187,0.10143012597533288
1728406738553066800,0.788066650390625,0.5856367349624634,-0.8619771599769592,1.0482900142669678,-0.3075864613056183,-0.31090277433395386,-0.8992941975593567,-0.036438196897506714,-0.0012158453464508057,-0.07885515689849854,0.9686995042620467,0.175761254147878,-0.1395023103263731,0.10615205087476079
1728406738563097600,0.79809765625,0.5010111331939697,-0.8328827023506165,1.1056607961654663,-0.3185289204120636,-0.3123473823070526,-0.8949739933013916,-0.05372452735900879,-0.0034333467483520508,-0.05038422346115112,0.9670390327101958,0.17805577934760472,-0.14425373336072292,0.1110071549529237
1728406738573129000,0.80812890625,0.4872702360153198,-0.8242790699005127,1.147888422012329,-0.3294532597064972,-0.31301525235176086,-0.8907760977745056,-0.044112443923950195,0.007900416851043701,-0.007035791873931885,0.9653540181092295,0.18004292215312392,-0.14898492153135412,0.11610254123519999
1728406738583158800,0.81815869140625,0.4999842941761017,-0.7959739565849304,1.1216931343078613,-0.3402237296104431,-0.31353089213371277,-0.8865360617637634,-0.03756865859031677,0.0022209584712982178,0.0513615608215332,0.9636201815927341,0.18201648833721362,-0.15362927286719483,0.12126153087512466
1728406738593189600,0.828189697265625,0.5399423837661743,-0.7582234144210815,1.0755887031555176,-0.35054996609687805,-0.31427013874053955,-0.882240891456604,-0.048635274171829224,-0.005676239728927612,0.07227391004562378,0.9618631355372119,0.1841118763821762,-0.1580580852030326,0.12625329763847196
1728406738603219700,0.8382197265625,0.6054195761680603,-0.693779468536377,1.0614182949066162,-0.3602863550186157,-0.3154750466346741,-0.8778777122497559,-0.06927910447120667,-0.0009618103504180908,0.10413509607315063,0.9600683941258779,0.1864547489688773,-0.16215970832338336,0.13117801975301838
1728406738613250800,0.848250732421875,0.7056074142456055,-0.6149888038635254,1.1119885444641113,-0.3694649040699005,-0.3171866536140442,-0.8734347820281982,-0.07929611206054688,0.007738322019577026,0.11156350374221802,0.9581949436448792,0.18911129218373776,-0.1658901104091424,0.1363080454396733
1728406738623280600,0.85828076171875,0.7976030707359314,-0.4813557267189026,1.1535841226577759,-0.3778691589832306,-0.3194833993911743,-0.868990957736969,-0.0874018669128418,0.011011630296707153,0.111697256565094,0.956222079905263,0.1921441211012225,-0.16907148232214056,0.14189707151786357
1728406738633311700,0.868311767578125,0.8120661973953247,-0.3602950870990753,1.151560664176941,-0.3851786255836487,-0.3220621347427368,-0.8648198843002319,-0.08369344472885132,-0.000539243221282959,0.08102172613143921,0.9542500449014181,0.19531145590312618,-0.17159107734034956,0.14770523945217326
1728406738643342800,0.8783427734375,0.7942394018173218,-0.3124670684337616,1.1950405836105347,-0.3918076455593109,-0.3244312107563019,-0.860947847366333,-0.08606711030006409,0.005232512950897217,0.10446292161941528,0.9522914691855446,0.19837344903247314,-0.1737068290023312,0.1536712464067882
1728406738653372700,0.88837255859375,0.7220293879508972,-0.28169262409210205,1.2678278684616089,-0.39837464690208435,-0.3260674476623535,-0.8573083877563477,-0.04481691122055054,0.020479559898376465,0.13404184579849243,0.9503083246174993,0.20113248835638264,-0.17575986568026727,0.15990089646863806
1728406738663403800,0.89840380859375,0.6562814116477966,-0.260481059551239,1.3229095935821533,-0.40489622950553894,-0.3267177939414978,-0.853999137878418,0.010960042476654053,0.04304155707359314,0.13761430978775024,0.9483168342422283,0.20345957030038547,-0.17777689520261256,0.1664177704468967
1728406738673433900,0.908433837890625,0.6082038879394531,-0.24850507080554962,1.3490461111068726,-0.41145989298820496,-0.32661283016204834,-0.8508964776992798,0.04073232412338257,0.06857135891914368,0.13400810956954956,0.9463047051437978,0.20546233259321423,-0.1798248810109808,0.17307704132892968
1728406738683464700,0.918464599609375,0.5902659296989441,-0.20227399468421936,1.3218573331832886,-0.41775161027908325,-0.32611098885536194,-0.8480184078216553,0.053829461336135864,0.09989935159683228,0.10940152406692505,0.9443040054401757,0.20726319862513265,-0.1817491507600683,0.17972006115687222
1728406738693494800,0.928494873046875,0.5400384664535522,-0.14262238144874573,1.2435222864151,-0.42336153984069824,-0.32549652457237244,-0.8454685211181641,0.05827969312667847,0.11021018028259277,0.10210615396499634,0.9423824058145934,0.20891636598313185,-0.18335669365506935,0.18614454011657716
1728406738703526000,0.93852587890625,0.4474324882030487,-0.13304340839385986,1.1480636596679688,-0.42838218808174133,-0.3245712220668793,-0.8432925343513489,0.035163164138793945,0.09692525863647461,0.16185033321380615,0.9406079373368779,0.210268965012375,-0.1847720346790406,0.19210183479894813
1728406738713556700,0.948556640625,0.4018101394176483,-0.14973370730876923,1.1209617853164673,-0.43323421478271484,-0.32319268584251404,-0.841340959072113,0.008032768964767456,0.11257553100585938,0.2191486358642578,0.9389337456232676,0.21131041508184545,-0.18621875823869727,0.19767144895803213
1728406738723586800,0.9585869140625,0.4201534688472748,-0.11025714129209518,1.1188381910324097,-0.4380008578300476,-0.3217291235923767,-0.8394317626953125,0.01142612099647522,0.12931570410728455,0.1867828369140625,0.9372466956416269,0.21231298431775764,-0.1876361443435153,0.20318621757036706
1728406738733617700,0.96861767578125,0.4527345597743988,-0.014429682865738869,1.0752885341644287,-0.4420512914657593,-0.3205600082874298,-0.8377541303634644,0.01034960150718689,0.11009544134140015,0.14621055126190186,0.9355872947928273,0.21339399481939145,-0.18864236699965042,0.20869490755536246
1728406738743647700,0.978647705078125,0.38261306285858154,0.06726507842540741,0.9758807420730591,-0.44507747888565063,-0.3195519745349884,-0.8365360498428345,-0.01413583755493164,0.09439319372177124,0.10515183210372925,0.9340730425499415,0.21437651314570252,-0.18914196569937436,0.21395219104146285
1728406738753678800,0.988678955078125,0.26295217871665955,0.06703630834817886,0.9128575921058655,-0.4474857449531555,-0.31801706552505493,-0.835835874080658,-0.03209799528121948,0.10881900787353516,0.05060344934463501,0.9327796997547937,0.2148969598666456,-0.1894765133015,0.21872359022728066
1728406738763709000,0.998708984375,0.2243383377790451,0.04159795120358467,0.8928202390670776,-0.44987931847572327,-0.31596583127975464,-0.8353288173675537,-0.008983045816421509,0.14010819792747498,0.059999287128448486,0.9315753161729678,0.21509648579336343,-0.1899186575517297,0.2232306299587489
1728406738773739800,1.00873974609375,0.2168966680765152,0.02937936969101429,0.8737460970878601,-0.45235541462898254,-0.3138633370399475,-0.8347840905189514,0.050255775451660156,0.14963290095329285,0.03708517551422119,0.9303680572937428,0.2152679079358425,-0.1904407907750955,0.22761258797789846
1728406738783771000,1.01877099609375,0.15373948216438293,0.005812045186758041,0.8803955316543579,-0.45493215322494507,-0.3114161193370819,-0.83430016040802,0.08353319764137268,0.16955506801605225,-0.013462841510772705,0.9291834121352591,0.21526048294239974,-0.19108334135617472,0.23188003610729302
1728406738793800700,1.02880078125,0.10699033737182617,0.01386837288737297,0.926652193069458,-0.45766329765319824,-0.30835723876953125,-0.8339425325393677,0.09876129031181335,0.2107771933078766,-0.02939969301223755,0.9279932830643622,0.21498087235105842,-0.191864432068429,0.2362198524967783
1728406738803831800,1.038831787109375,-0.0015350027242675424,0.04442170262336731,0.9380478858947754,-0.4602750837802887,-0.3045358657836914,-0.8339093327522278,0.10537087917327881,0.20233240723609924,-0.014784455299377441,0.9268429912824191,0.2143106359783562,-0.19265587750421792,0.2406590338707662
1728406738813862000,1.04886181640625,-0.18785613775253296,0.04632719233632088,0.8941648602485657,-0.4626578986644745,-0.29947081208229065,-0.8344249129295349,0.0784720778465271,0.1329668164253235,0.04173088073730469,0.9258716670001869,0.21291397289458922,-0.19353343727897435,0.24489620575255597
1728406738823892700,1.058892822265625,-0.3898138403892517,0.02394454926252365,0.7831850647926331,-0.4648663401603699,-0.29314476251602173,-0.8354432582855225,0.0512462854385376,0.049965351819992065,0.12294942140579224,0.9251686979845603,0.21071629106146106,-0.19462018629942127,0.24856484033676432
1728406738833922800,1.0689228515625,-0.5768641233444214,0.01124153845012188,0.678807258605957,-0.4668530821800232,-0.28564131259918213,-0.8369332551956177,0.045893579721450806,-0.010363996028900146,0.14989101886749268,0.9247780502268957,0.20772029680558174,-0.19592259095400572,0.2514998826125052
1728406738843954000,1.078953857421875,-0.7370930314064026,0.03971908986568451,0.584134042263031,-0.46841302514076233,-0.2771482765674591,-0.8389148116111755,0.05242788791656494,-0.028653204441070557,0.1748218536376953,0.9246872260212435,0.2040091830517421,-0.19728871353362662,0.253793273186831
1728406738853984800,1.08898486328125,-0.7995436191558838,0.056355059146881104,0.49355220794677734,-0.4695168137550354,-0.2680683434009552,-0.8412451148033142,0.060062408447265625,-0.009901076555252075,0.16657781600952148,0.924824754810812,0.199819085585962,-0.19861968164698007,0.2555812133740181
1728406738864014800,1.099014892578125,-0.7961997985839844,0.0909852609038353,0.3856385052204132,-0.47002744674682617,-0.25924021005630493,-0.8437231779098511,0.058101147413253784,0.02449890971183777,0.13335025310516357,0.9251348845857092,0.1955676585954739,-0.19972909337486017,0.256879772216595
1728406738874046000,1.1090458984375,-0.7356014251708984,0.168629989027977,0.3481752872467041,-0.4698657691478729,-0.25097647309303284,-0.8463078141212463,0.04779237508773804,0.06901535391807556,0.11844843626022339,0.9255395368132617,0.1914542505943104,-0.20047780689873723,0.2579350000210102
1728406738884075800,1.11907568359375,-0.6759068369865417,0.24538852274417877,0.2904779016971588,-0.46887797117233276,-0.24352741241455078,-0.8490275740623474,0.03970921039581299,0.10105600953102112,0.10053825378417969,0.9260012243788397,0.18761476574139493,-0.20071598495565676,0.25891209567984563
1728406738894107000,1.12910693359375,-0.6722385883331299,0.3161846697330475,0.2885953187942505,-0.46712005138397217,-0.23637929558753967,-0.8520115613937378,0.01542934775352478,0.1256309151649475,0.09148305654525757,0.9265544071235653,0.1837904913853951,-0.20053746657378937,0.25981299900529553
1728406738904137000,1.139136962890625,-0.5364854335784912,0.3541373610496521,0.3512405753135681,-0.4650304317474365,-0.22969062626361847,-0.8549789190292358,0.004047095775604248,0.1764983981847763,0.10433810949325562,0.9270275264714286,0.18021351175569034,-0.20008404562999044,0.2609781928413678
1728406738914167800,1.149167724609375,-0.4343915581703186,0.4282318353652954,0.40933477878570557,-0.4625803828239441,-0.22377334535121918,-0.8578723073005676,0.024973511695861816,0.18901373445987701,0.0940021276473999,0.9273418224205079,0.17708474371330638,-0.1992607339382993,0.26262784326767735
1728406738924199000,1.159198974609375,-0.4104028642177582,0.5378788113594055,0.37952759861946106,-0.45928484201431274,-0.21834374964237213,-0.8610363006591797,0.034068137407302856,0.16403764486312866,0.09225279092788696,0.9276607682095689,0.17411417734862134,-0.1979043000953488,0.26450672674073133
1728406738934229000,1.16922900390625,-0.5724993348121643,0.5992406606674194,0.30039072036743164,-0.45506131649017334,-0.21262162923812866,-0.8647029995918274,0.018431007862091064,0.106801837682724,0.10507476329803467,0.9281895447762673,0.1707781614128271,-0.19617165989025176,0.2661122961694376
1728406738944259800,1.179259765625,-0.8104059100151062,0.597328782081604,0.24158304929733276,-0.4503658413887024,-0.20535707473754883,-0.8689068555831909,-0.0015537440776824951,0.03250545263290405,0.1344556212425232,0.9290048278478914,0.16647265476781128,-0.19450819879330006,0.26721423687018386
1728406738954290000,1.1892900390625,-1.0673495531082153,0.5964329242706299,0.16835276782512665,-0.44555604457855225,-0.19625012576580048,-0.8734791278839111,-0.001496046781539917,-0.04496088624000549,0.14606213569641113,0.9300796987464213,0.16110506851747708,-0.1931465952898919,0.26775252222258394
1728406738964321000,1.199321044921875,-1.227337121963501,0.5777103900909424,0.09306973963975906,-0.44069233536720276,-0.18549351394176483,-0.8782837986946106,-0.0012785494327545166,-0.09178927540779114,0.12599503993988037,0.9313802723115294,0.15479347170778052,-0.19208613570639432,0.2677175328792563
1728406738974350800,1.209350830078125,-1.219498634338379,0.5775255560874939,0.006933786440640688,-0.4355922341346741,-0.17431282997131348,-0.8831049799919128,0.0018305778503417969,-0.07666382193565369,0.10850787162780762,0.9328188057680182,0.14815803820927478,-0.1910411080010838,0.26721049732752505
1728406738984382000,1.2193818359375,-1.0237648487091064,0.47525691986083984,-0.07517413049936295,-0.43077903985977173,-0.16441956162452698,-0.8873531818389893,0.00876668095588684,-0.012521430850028992,0.05146151781082153,0.9342030932739429,0.14217706804963792,-0.19002394452961818,0.2663478885339171
1728406738994412800,1.229412841796875,-0.5074716210365295,0.4963403642177582,-0.13847161829471588,-0.42629772424697876,-0.15790770947933197,-0.8906937837600708,0.017194300889968872,0.08562673628330231,0.0096360445022583,0.935356396645552,0.13796732386925173,-0.1887276603033162,0.26543415448868235
1728406739004443000,1.23944287109375,0.0008613765239715576,0.4476979970932007,-0.020301297307014465,-0.4219527244567871,-0.15629231929779053,-0.8930445909500122,0.02130267024040222,0.16393689811229706,-0.003928005695343018,0.9360977018686492,0.1363607486095348,-0.18677114919515056,0.2650346394886202
1728406739014474000,1.249473876953125,0.34802812337875366,0.5497103929519653,0.24645768105983734,-0.4175448715686798,-0.15735623240470886,-0.8949275016784668,0.005282878875732422,0.2126997709274292,0.006423532962799072,0.9362970503993232,0.13638658490367733,-0.18421437300631094,0.2661043224223135
1728406739024503800,1.25950390625,0.4884797930717468,0.5030731558799744,0.30272337794303894,-0.41333308815956116,-0.16011933982372284,-0.8963913917541504,0.05145561695098877,0.18563194572925568,-0.052140653133392334,0.936070563260282,0.1375069042600387,-0.18137296849055745,0.26826764061089
1728406739034535000,1.269534912109375,0.25822287797927856,0.4909179210662842,0.11791303753852844,-0.4092026650905609,-0.16270390152931213,-0.8978199362754822,0.03757479786872864,0.037612274289131165,-0.11807966232299805,0.9359584115003492,0.1384549883720995,-0.17866239809343182,0.26998495565270614
1728406739044564700,1.279564697265625,0.030082644894719124,0.41171497106552124,-0.07754620909690857,-0.4051160514354706,-0.16390404105186462,-0.8994534015655518,-0.037846654653549194,-0.07840561866760254,-0.15314358472824097,0.936248681996846,0.13847932354611073,-0.17634275117375084,0.2704906451669469
1728406739054595600,1.289595703125,-0.29548904299736023,0.322409063577652,-0.22471356391906738,-0.40146395564079285,-0.16341695189476013,-0.9011778831481934,-0.03801974654197693,-0.16611194610595703,-0.07185977697372437,0.9368794684201731,0.13752370524385324,-0.17463755683747834,0.2698999037852048
1728406739064627000,1.299626953125,-0.5718876123428345,0.09688965231180191,-0.27795839309692383,-0.3990686237812042,-0.16037453711032867,-0.9027869701385498,-0.026300668716430664,-0.1784011721611023,0.0024421215057373047,0.9377252484995958,0.1353366906069583,-0.1740416869201455,0.268449262739662
1728406739074656800,1.30965673828125,-0.5269933938980103,-0.10201838612556458,-0.25832661986351013,-0.3986852169036865,-0.15634527802467346,-0.9036626815795898,0.014041602611541748,-0.0865899920463562,-0.02385801076889038,0.9384682220612942,0.13292241488404521,-0.1746432852734082,0.2666625617678088
1728406739084687600,1.3196875,-0.23038330674171448,-0.15083013474941254,-0.2025323510169983,-0.3995545506477356,-0.15367437899112701,-0.9037368893623352,0.07152104377746582,0.025241076946258545,-0.13871300220489502,0.9389187425602379,0.1314395402977369,-0.17565649998087968,0.26514165692912584
1728406739094717700,1.3297177734375,0.17538657784461975,-0.0886426642537117,-0.11458306014537811,-0.40044206380844116,-0.15413616597652435,-0.9032652974128723,0.09326735138893127,0.12432041764259338,-0.2296539545059204,0.9390369054453523,0.13165120233239194,-0.17616843032010454,0.2642769589885504
1728406739104748800,1.339748779296875,0.34554579854011536,-0.012662941589951515,0.029404472559690475,-0.4007779061794281,-0.1568097323179245,-0.9026559591293335,0.06593900918960571,0.16527828574180603,-0.26989036798477173,0.9388733186339512,0.13304710008044834,-0.17598433091248575,0.264282068087997
1728406739114779600,1.349779541015625,0.3278605341911316,0.0054100677371025085,0.14263249933719635,-0.4009256362915039,-0.15959827601909637,-0.902101457118988,0.03216642141342163,0.1351688802242279,-0.2238597869873047,0.9385200575593784,0.134606906360633,-0.17558544566052556,0.26501137779298944
1728406739124809700,1.359809814453125,0.058843452483415604,-0.012174252420663834,0.12330380082130432,-0.40119627118110657,-0.16094976663589478,-0.9017409682273865,-0.007708817720413208,0.028655976057052612,-0.10604095458984375,0.9381826337375901,0.1354885486401133,-0.17542055755381464,0.265864635162517
1728406739134840800,1.3698408203125,-0.4000895023345947,0.04573538526892662,-0.05167679488658905,-0.40110695362091064,-0.15923897922039032,-0.9020843505859375,-0.05485624074935913,-0.08641234040260315,-0.004989564418792725,0.9382591062766085,0.1346253530755572,-0.17559566546646257,0.2659175626814661
1728406739144870700,1.37987060546875,-0.9088459610939026,-0.003223101142793894,-0.2658623158931732,-0.4005771577358246,-0.15398727357387543,-0.9032307863235474,-0.08118864893913269,-0.13774558901786804,0.08499354124069214,0.9389355379135874,0.13165959393817722,-0.1762111103672376,0.2646043935372479
1728406739154901800,1.38990185546875,-1.3989558219909668,-0.06814244389533997,-0.31245937943458557,-0.4004538953304291,-0.1446755826473236,-0.9048235416412354,-0.0754677951335907,-0.12877726554870605,0.16057616472244263,0.9400565128667135,0.12650472022062248,-0.17772107196050163,0.2621174608461678
1728406739164931800,1.399931884765625,-1.4906630516052246,-0.2443353235721588,-0.23302234709262848,-0.40146714448928833,-0.13238103687763214,-0.9062557220458984,-0.025153398513793945,-0.05019046366214752,0.19547080993652344,0.9411843148060233,0.11999680520305732,-0.1802024130300994,0.2594226905998539
1728406739174962700,1.409962646484375,-1.2354531288146973,-0.34318286180496216,-0.1502600908279419,-0.4039398729801178,-0.12053686380386353,-0.9068095088005066,0.05112612247467041,0.041313156485557556,0.1331126093864441,0.9419770318493044,0.11400355019045479,-0.1832987881889047,0.25706822255613593
1728406739184992800,1.41999267578125,-0.6230353116989136,-0.2736802399158478,-0.058928851038217545,-0.4067460596561432,-0.1123606413602829,-0.906605064868927,0.0871201753616333,0.15775543451309204,-0.031077980995178223,0.9423419352330347,0.1100473926999734,-0.18597590800575062,0.25552747206298815
1728406739195024000,1.43002392578125,-0.21051111817359924,-0.10926522314548492,-0.014164574444293976,-0.40839022397994995,-0.10898829996585846,-0.9062775373458862,0.09567654132843018,0.2148537039756775,-0.165133535861969,0.942425542072316,0.10848956091176142,-0.1873265567581434,0.25489809945477904
1728406739205054700,1.4400546875,-0.17640767991542816,-0.06577281653881073,-0.051592640578746796,-0.4091392755508423,-0.10745646059513092,-0.9061225652694702,0.0572715699672699,0.17073458433151245,-0.209050714969635,0.9424664855553527,0.10777827771153463,-0.18794293399272677,0.25459422155691297
1728406739215084800,1.450084716796875,-0.5128632187843323,-0.053422410041093826,-0.0926913395524025,-0.40952470898628235,-0.10489058494567871,-0.9062491059303284,0.028344839811325073,0.07702796161174774,-0.13819968700408936,0.9427037825729657,0.10640478251316902,-0.18855624363473325,0.2538388380836586
1728406739225116000,1.460115966796875,-1.1291252374649048,-0.10892865061759949,0.13979649543762207,-0.4102378487586975,-0.09742144495248795,-0.9067601561546326,0.018132686614990234,-0.02487783133983612,-0.046685218811035156,0.9430340938977412,0.10263942359186308,-0.18996070829507827,0.2531142039190925
1728406739235145700,1.470145751953125,-1.9308477640151978,-0.22936904430389404,0.11805577576160431,-0.4119103252887726,-0.08299056440591812,-0.9074373245239258,0.0878593921661377,-0.18005578219890594,0.13256549835205078,0.9434279968356322,0.09553468638547645,-0.1927549410534913,0.25231422782823476
1728406739245176800,1.4801767578125,-2.957064151763916,-0.4171026349067688,-0.12810632586479187,-0.4146730303764343,-0.060839973390102386,-0.9079343676567078,0.11135876178741455,-0.3514525890350342,0.25096720457077026,0.9442373581003667,0.08439416299562619,-0.1972573269479955,0.24976580408050683
1728406739255207000,1.49020703125,-3.9167845249176025,-0.6817556023597717,-0.2885220944881439,-0.4196004867553711,-0.030234819278120995,-0.9072052240371704,0.035887688398361206,-0.40972191095352173,0.2818542718887329,0.9452685912422806,0.06890744218456267,-0.2040812598917542,0.24509174009362794
1728406739265237800,1.50023779296875,-4.473793029785156,-0.8656582236289978,-0.4574738144874573,-0.42667126655578613,0.006645741872489452,-0.9043823480606079,0.06287115812301636,-0.3594137728214264,0.18021553754806519,0.9461698380108847,0.05016696914370433,-0.21281939114358445,0.2386499828602487
1728406739275268900,1.510268798828125,-4.379469394683838,-0.9455077648162842,-0.4460720419883728,-0.4349406659603119,0.04504575952887535,-0.8993316888809204,0.0950358510017395,-0.21669195592403412,0.052728354930877686,0.9466439099657061,0.03053131016045335,-0.22226558780053846,0.23136806331857648
1728406739285299000,1.520298828125,-3.7484986782073975,-1.0714805126190186,-0.2692578434944153,-0.4442336857318878,0.0802302286028862,-0.8923113346099854,0.12154078483581543,-0.06259114295244217,-0.009391486644744873,0.946351196729549,0.012670947042251017,-0.23169758678617808,0.2248891753091918
1728406739295329800,1.530329833984375,-2.9279773235321045,-1.0367896556854248,-0.06714843213558197,-0.4539143145084381,0.10919933021068573,-0.8843287229537964,0.15912970900535583,0.038108959794044495,-0.03464710712432861,0.9453699016227877,-0.0017677833866915009,-0.24048389392360048,0.22009147188008227
1728406739305360000,1.54035986328125,-2.1481282711029053,-0.8493616580963135,0.024934623390436172,-0.4622388482093811,0.131466805934906,-0.8769559264183044,0.09972050786018372,0.10232828557491302,-0.012875556945800781,0.9441385170033035,-0.012693975882139325,-0.24771129477603207,0.2169805401220039
1728406739315390700,1.550390625,-1.7681097984313965,-0.6651270985603333,0.03483385965228081,-0.4688739776611328,0.14859230816364288,-0.8706765174865723,-0.010343581438064575,0.11814652383327484,-0.019597530364990234,0.9429841528257853,-0.02107664765405635,-0.25341177446263086,0.21475405988428048
1728406739325420800,1.5604208984375,-1.5382742881774902,-0.46447333693504333,0.009438754990696907,-0.4741021692752838,0.16302140057086945,-0.8652462959289551,-0.09770575165748596,0.1281162053346634,-0.07292509078979492,0.9419822382260741,-0.028234567486735196,-0.25803032874396864,0.21282086333928607
1728406739335452000,1.570451904296875,-1.3781734704971313,-0.2917071580886841,-0.044728875160217285,-0.4771791994571686,0.1755153387784958,-0.8611006736755371,-0.1166929304599762,0.10146211087703705,-0.07179117202758789,0.9413134849328569,-0.034698458415989696,-0.2612387359056736,0.2109011120049305
1728406739345482800,1.580482666015625,-1.1962075233459473,-0.24956639111042023,-0.02159852162003517,-0.4795675575733185,0.18652157485485077,-0.8574524521827698,-0.1000376045703888,0.06706416606903076,-0.055587708950042725,0.9407530690162378,-0.04048985203355325,-0.2638832255566183,0.20906912421946797
1728406739355512800,1.590512939453125,-0.8784055113792419,-0.23763224482536316,0.05002639442682266,-0.48163309693336487,0.195588618516922,-0.854268491268158,-0.05320277810096741,0.054762259125709534,-0.04647308588027954,0.9401844973798158,-0.04519216995912828,-0.2661266960194292,0.20781579216318127
1728406739365544000,1.6005439453125,-0.5377044677734375,-0.1824893206357956,0.07851476222276688,-0.48329564929008484,0.20194011926651,-0.851848304271698,-0.014537662267684937,0.04586254060268402,-0.025501549243927002,0.9396695504655107,-0.0483854633192072,-0.267833354953132,0.2072322690453201
1728406739375573800,1.61057373046875,-0.2681901454925537,-0.08677903562784195,0.1421280950307846,-0.48429688811302185,0.20587827265262604,-0.8503356575965881,-0.031877487897872925,0.04604427516460419,0.018823206424713135,0.9392672934610442,-0.05026822835907993,-0.26889641425215144,0.20723159049586565
1728406739385604900,1.62060498046875,-0.031329914927482605,0.1769026815891266,0.21614933013916016,-0.4835958778858185,0.20809611678123474,-0.8501946926116943,-0.061890602111816406,0.0714295506477356,0.08894902467727661,0.9390821624595704,-0.05128116236857861,-0.26883617617127786,0.2078992147910782
1728406739395636000,1.630635986328125,0.606669008731842,0.41416221857070923,0.21705320477485657,-0.4805309772491455,0.20697470009326935,-0.8522038459777832,-0.07806280255317688,0.10496063530445099,0.09562736749649048,0.9393319686520402,-0.0506959496879508,-0.26707299396950374,0.20918259483193533
1728406739405665800,1.640665771484375,1.2463812828063965,0.6555670499801636,0.13773414492607117,-0.475614070892334,0.19985556602478027,-0.8566498756408691,-0.10811096429824829,0.15051665902137756,0.10576492547988892,0.9400672090227943,-0.04709329153448771,-0.2635474985964277,0.21118364801523598
1728406739415697000,1.65069677734375,1.9339690208435059,0.8520670533180237,0.08214092254638672,-0.4688735604286194,0.18671387434005737,-0.8633049726486206,-0.10818332433700562,0.25003838539123535,0.04099363088607788,0.9413003334211265,-0.040585499702904024,-0.2582640688154546,0.21355580670176957
1728406739425727000,1.66072705078125,2.6122992038726807,0.9489821791648865,0.16813093423843384,-0.46074891090393066,0.16749240458011627,-0.8715829253196716,-0.10434514284133911,0.38167133927345276,0.10775846242904663,0.9427372934438222,-0.030975377808355475,-0.25149367713104237,0.2168824282227437
1728406739435757800,1.6707578125,3.076240062713623,0.928838312625885,0.15216821432113647,-0.4520277976989746,0.14299307763576508,-0.88046795129776,-0.032148897647857666,0.44767457246780396,0.06836473941802979,0.9440976247880142,-0.018626722397041606,-0.24376024834893267,0.22116442442946785
1728406739445788000,1.680787841796875,3.032529354095459,0.5832287669181824,0.07095538079738617,-0.4451758861541748,0.11618174612522125,-0.8878740072250366,0.03230354189872742,0.4477982819080353,-0.02145826816558838,0.9450717765011643,-0.005024625186877884,-0.23672295098777932,0.22533616316393085
1728406739455819000,1.690819091796875,2.7348411083221436,0.5546714067459106,0.07722152769565582,-0.4402860701084137,0.0909251868724823,-0.8932417035102844,0.04602941870689392,0.40530580282211304,-0.0795670747756958,0.9456004654867692,0.007851863022949651,-0.230905786494015,0.2290428410581731
1728406739465849900,1.700849853515625,2.6333913803100586,0.474113404750824,-0.04721600189805031,-0.4353056848049164,0.06667761504650116,-0.897810161113739,0.153170645236969,0.17557083070278168,-0.3323533535003662,0.9460101511622578,0.020049420853477915,-0.22515093604851255,0.23231422316416173
1728406739475880000,1.7108798828125,1.857992172241211,0.10356257110834122,-0.22220619022846222,-0.43286022543907166,0.04561709240078926,-0.9003061056137085,0.19126778841018677,-0.20861156284809113,-0.13161522150039673,0.9462018555234154,0.03063603060016407,-0.22115238643021634,0.23421142558842378
1728406739485910800,1.720910888671875,1.2077745199203491,0.15704944729804993,-0.351205974817276,-0.4320176839828491,0.030787521973252296,-0.9013394713401794,0.15627604722976685,-0.3755599558353424,0.13881200551986694,0.9463840703640417,0.037975907504661156,-0.2188334853007491,0.2345781526383603
1728406739495941000,1.730941162109375,1.0809214115142822,-0.07053843885660172,-0.5646349191665649,-0.431471586227417,0.018909001722931862,-0.9019283056259155,0.1609484851360321,-0.340823769569397,0.0999721884727478,0.9467832143445549,0.04357997848773911,-0.217109705406825,0.23359293342316623
1728406739505972200,1.74097216796875,1.556072473526001,-0.06463826447725296,-0.620833158493042,-0.43250009417533875,0.004478600807487965,-0.9016227722167969,0.04999274015426636,-0.15551018714904785,0.07595449686050415,0.9470619149220789,0.05056493838488412,-0.21594398201284778,0.2321316268022087
1728406739516002300,1.751002197265625,1.9118891954421997,0.08091521263122559,-0.6202896237373352,-0.4323488771915436,-0.01389696542173624,-0.9015993475914001,-0.052544981241226196,0.1170462965965271,-0.039867937564849854,0.9473114366589004,0.05946285593112711,-0.2136925519048705,0.23108601734376583
1728406739526033200,1.761033203125,1.998019814491272,0.10439198464155197,-0.681492269039154,-0.4312528371810913,-0.03464679419994354,-0.901565670967102,-0.08745449781417847,0.2794892489910126,-0.14683520793914795,0.9475311865777688,0.06945876808104731,-0.2106956461044712,0.23014691081798858
1728406739536064300,1.771064208984375,1.9772812128067017,0.03248610720038414,-0.7050759196281433,-0.4302094876766205,-0.05550986900925636,-0.9010208249092102,-0.0686919093132019,0.2406599223613739,-0.1284591555595398,0.9476854881146222,0.07947726354693763,-0.20778105239702,0.22891651408042116
1728406739546094000,1.781093994140625,1.417352557182312,-0.015333933755755424,-0.6908655166625977,-0.429763525724411,-0.07423964887857437,-0.8998843431472778,-0.015884697437286377,0.0726984292268753,-0.07164269685745239,0.9477423124774755,0.08848079840185777,-0.20549693703047267,0.22743488368647397
1728406739556125200,1.791125244140625,0.6935610771179199,0.021553510800004005,-0.6498661637306213,-0.42924174666404724,-0.08650615066289902,-0.8990373611450195,0.0045438408851623535,-0.04682523012161255,-0.004572808742523193,0.9480430270314096,0.09409716514888275,-0.2040270465126232,0.22524015823613566
1728406739566155000,1.801155029296875,0.34077954292297363,0.17540784180164337,-0.509351372718811,-0.4277748465538025,-0.0934533104300499,-0.8990412354469299,-0.0315910279750824,-0.07221144437789917,0.1310511827468872,0.9485553879849002,0.096929069741757,-0.20269221399434345,0.2230768337256692
1728406739576186000,1.81118603515625,-0.10632739216089249,0.07193471491336823,-0.45743119716644287,-0.4260452389717102,-0.09679745137691498,-0.8995085954666138,0.001713573932647705,-0.09323558211326599,0.08249205350875854,0.9491693110427369,0.09793291907829416,-0.20163047826711017,0.22097946617571426
1728406739586216000,1.8212158203125,-0.6605067253112793,-0.07338226586580276,-0.26111629605293274,-0.4256817400455475,-0.09480857849121094,-0.8998924493789673,0.04047355055809021,-0.07843978703022003,0.12157219648361206,0.9497711289737968,0.09642285998674952,-0.20188216246073276,0.21881754251667582
1728406739596247000,1.8312470703125,-1.2427114248275757,-0.22002609074115753,-0.05449575185775757,-0.4268498122692108,-0.08699535578489304,-0.9001283645629883,0.10717815160751343,-0.12429317831993103,0.19849872589111328,0.9502325518867808,0.09227009718321934,-0.2035240791005184,0.2170768729429511
1728406739606278100,1.841278076171875,-2.069568395614624,-0.21653079986572266,0.006844304036349058,-0.42884746193885803,-0.07219456136226654,-0.9004875421524048,0.15522682666778564,-0.33233126997947693,0.18684929609298706,0.9507494952250535,0.08468093827083217,-0.2063622192712522,0.2152190309828741
1728406739616308000,1.851307861328125,-2.869659423828125,-0.1760757863521576,-0.02670220471918583,-0.4306887686252594,-0.04970594495534897,-0.9011306762695312,0.126397967338562,-0.5653606653213501,0.264137327671051,0.9515307014193515,0.07301794623768576,-0.2100072184665689,0.212496715716306
1728406739626339000,1.861339111328125,-3.3455255031585693,-0.014565611258149147,-0.04427294060587883,-0.43149083852767944,-0.021625889465212822,-0.9018580913543701,0.07596102356910706,-0.6853901743888855,0.3779475688934326,0.9525001614780388,0.05824381777524397,-0.21372558261583316,0.20897966549701621
1728406739636369000,1.871368896484375,-3.4494380950927734,-0.018093233928084373,-0.1002880111336708,-0.4315911829471588,0.009170649573206902,-0.902022659778595,0.04034051299095154,-0.5697328448295593,0.40937745571136475,0.9534231730589064,0.04190360015028522,-0.21733095727000254,0.20492795319029178
1728406739646400000,1.88139990234375,-2.883715867996216,-0.13825580477714539,-0.12680590152740479,-0.4322473704814911,0.03765934705734253,-0.9009683728218079,0.0383722186088562,-0.1655280739068985,0.35264378786087036,0.9540165456254216,0.026767897314122536,-0.22090562777004896,0.20084001477123137
1728406739656430000,1.89143017578125,-1.9468307495117188,-0.33182528614997864,-0.11027219891548157,-0.4343833029270172,0.0590120404958725,-0.8987929224967957,0.09788116812705994,0.30880099534988403,0.13014674186706543,0.9541298738913022,0.015543925932636381,-0.22441461080992076,0.19756710049678675
1728406739666461000,1.9014609375,-1.137447714805603,-0.4928319752216339,-0.08698631823062897,-0.4382263720035553,0.07230116426944733,-0.8959521055221558,0.1596771478652954,0.6474405527114868,-0.09710514545440674,0.9538470478651204,0.008772543608091729,-0.22791882219358559,0.19532501423611745
1728406739676492000,1.911491943359375,-0.7254683971405029,-0.5996319055557251,0.012736814096570015,-0.4431913495063782,0.08025375753641129,-0.8928273916244507,0.1348569691181183,0.7363812923431396,-0.14045202732086182,0.9532801005534491,0.005026614277244446,-0.2314325683092872,0.19408957804232202
1728406739686522000,1.921522216796875,-0.7796679139137268,-0.6393115520477295,0.013243347406387329,-0.44875839352607727,0.0868043377995491,-0.8894273042678833,0.09739422798156738,0.5325345396995544,-0.0928572416305542,0.9525411467237082,0.002157685736292874,-0.23512059194763194,0.19333675327110708
1728406739696553000,1.931552978515625,-1.1679152250289917,-0.6447683572769165,-0.0548880361020565,-0.45446279644966125,0.09533092379570007,-0.8856498003005981,0.06862899661064148,0.15273112058639526,-0.03849869966506958,0.9518021568411427,-0.0018240424906816439,-0.2391061686298615,0.19208762069971946
1728406739706583000,1.9415830078125,-1.3771597146987915,-0.6416594386100769,-0.10698745399713516,-0.46017691493034363,0.10649670660495758,-0.8814168572425842,0.028200536966323853,-0.13026998937129974,0.03051048517227173,0.9510788152695574,-0.00732604651825831,-0.24338836228716362,0.1901516826634427
1728406739716614000,1.95161376953125,-1.178141713142395,-0.6057355403900146,-0.06909946352243423,-0.4658960700035095,0.11751343309879303,-0.8770014047622681,0.003539443016052246,-0.1731012761592865,0.0034967660903930664,0.9503203515054749,-0.012801018746090033,-0.24765991620089703,0.18812752543424546
1728406739726644000,1.96164404296875,-0.8797286748886108,-0.5400965809822083,-0.008758624084293842,-0.47092199325561523,0.12629258632659912,-0.873088002204895,-0.028360873460769653,-0.05143304169178009,-0.10382544994354248,0.9495689068354061,-0.0170812583717093,-0.25132494457118104,0.1867162864189561
1728406739736675000,1.971675048828125,-0.7550588846206665,-0.517024576663971,0.006952695082873106,-0.47554153203964233,0.13338784873485565,-0.8695216774940491,-0.030989259481430054,0.06050552427768707,-0.13343852758407593,0.9488145072495751,-0.020442166843860812,-0.25460023176527347,0.18577398246413898
1728406739746706000,1.981705810546875,-0.6875035166740417,-0.5652022361755371,-0.03632340580224991,-0.48022761940956116,0.13962124288082123,-0.8659603595733643,-0.029324442148208618,0.114590123295784,-0.021628141403198242,0.9480616284209502,-0.023372746475532703,-0.25782460532832474,0.1848226074323167
1728406739756736000,1.991736083984375,-0.4083573520183563,-0.6421402096748352,-0.021749790757894516,-0.485458642244339,0.14439906179904938,-0.8622521758079529,0.006958216428756714,0.13209009170532227,0.01995176076889038,0.9472442063035065,-0.025484567669943694,-0.26119809319346565,0.18399607706177276
1728406739766767000,2.00176708984375,0.04774772375822067,-0.8460026979446411,-0.05973898246884346,-0.49191921949386597,0.145647794008255,-0.8583718538284302,0.04967367649078369,0.14524567127227783,-0.0008352994918823242,0.9462769165423324,-0.025536937429078838,-0.2648809884017318,0.18370093878430147
1728406739776797200,2.011797119140625,0.17015060782432556,-0.904518187046051,-0.06504613161087036,-0.49950113892555237,0.14419828355312347,-0.8542280197143555,0.06781470775604248,0.11646752059459686,-0.07898426055908203,0.9451925955269439,-0.024034146436153307,-0.26890212206598224,0.1836439432773918
1728406739786828000,2.021828125,0.163246288895607,-0.9691165089607239,-0.013837005943059921,-0.5075898766517639,0.14265912771224976,-0.8497063517570496,0.08161020278930664,0.07252021133899689,-0.13624024391174316,0.9439623766705943,-0.022361232445680314,-0.2732156440139682,0.18381599061931225
1728406739796859100,2.031859130859375,0.16146224737167358,-0.9858795404434204,-0.07430966943502426,-0.515933632850647,0.140997976064682,-0.8449450135231018,0.0689426064491272,-0.005713626742362976,-0.05758178234100342,0.9426676412136805,-0.0205915137847884,-0.27767511275432,0.18398493331663282
1728406739806889000,2.041888916015625,-0.11427859961986542,-0.9506534337997437,-0.037619031965732574,-0.5243237614631653,0.140398770570755,-0.8398647308349609,0.05705386400222778,-0.14168061316013336,-0.03667634725570679,0.9413516198965634,-0.019449156622305296,-0.2822930498113064,0.18381923383146045
1728406739816920000,2.051920166015625,-0.2572522461414337,-0.8130201697349548,0.00813460536301136,-0.5317403078079224,0.14208517968654633,-0.8349036574363708,0.0007191300392150879,-0.1252395510673523,0.07574838399887085,0.9400793842349218,-0.019593964205052567,-0.28664309063270166,0.1835826823557583
1728406739826950100,2.0619501953125,-0.14868611097335815,-0.706606388092041,-0.05894216522574425,-0.5380362868309021,0.1437578648328781,-0.8305724859237671,-0.0306892991065979,-0.015523090958595276,0.07864993810653687,0.9389947844815597,-0.01988503117798593,-0.29037622721547834,0.18323466710388772
1728406739836981000,2.07198095703125,-0.07840874791145325,-0.6972501873970032,-0.08236706256866455,-0.5439618229866028,0.14420339465141296,-0.8266262412071228,-0.023680448532104492,0.04859131574630737,-0.05760526657104492,0.9380254309734692,-0.019610909538828106,-0.2937725027748788,0.1828154839916424
1728406739847011000,2.082010986328125,-0.2098352164030075,-0.7256185412406921,-0.07717390358448029,-0.549923837184906,0.1448419690132141,-0.8225597739219666,0.015820443630218506,0.05243885517120361,-0.06882816553115845,0.9370385112432665,-0.019457852145182513,-0.29722299124812035,0.18231504958663325
1728406739857042200,2.092042236328125,-0.49408024549484253,-0.7628937363624573,-0.023844633251428604,-0.5561445951461792,0.14748001098632812,-0.8178954124450684,0.0829848051071167,-0.03859339654445648,-0.005072116851806641,0.9359313891955602,-0.020371134997611513,-0.3010603216209312,0.18160487961018815
1728406739867072000,2.102072021484375,-0.5666518211364746,-0.75459885597229,0.005308991763740778,-0.5622496604919434,0.1519601047039032,-0.8128858804702759,0.12029403448104858,-0.14124852418899536,0.09595167636871338,0.9347362735591888,-0.022258976157047108,-0.3050599862425735,0.18086206590699883
1728406739877103000,2.11210302734375,-0.434903621673584,-0.9530384540557861,-0.08199608325958252,-0.5691712498664856,0.15587514638900757,-0.807308554649353,0.11827397346496582,-0.16940978169441223,0.12125813961029053,0.9334083515270635,-0.02381405489322125,-0.30948122229501096,0.18000876331270121
1728406739887134000,2.122134033203125,-0.4299025237560272,-1.0367155075073242,-0.1179913729429245,-0.5774931907653809,0.15864741802215576,-0.8008324503898621,0.08010238409042358,-0.08383366465568542,0.049794912338256836,0.9318691831745245,-0.024697044743343916,-0.31460104769526526,0.17898636133907472
1728406739897164000,2.1321640625,-0.3111788034439087,-0.9269259572029114,0.056903742253780365,-0.5854646563529968,0.16149766743183136,-0.7944492697715759,0.05908215045928955,0.10453926026821136,-0.1216273307800293,0.9302865192383669,-0.025550666568221653,-0.319566142303328,0.17830233776261248
1728406739907195100,2.142195068359375,-0.08781176805496216,-0.7839750647544861,0.15553498268127441,-0.5920729041099548,0.16371068358421326,-0.789080798625946,-0.03536856174468994,0.28346332907676697,-0.03667902946472168,0.928772203129882,-0.025859466449962155,-0.32371419548409086,0.17866929317375868
1728406739917225200,2.15222509765625,-0.08773959428071976,-0.6894006133079529,0.1542276293039322,-0.597532331943512,0.16523021459579468,-0.7846363186836243,-0.11720466613769531,0.24030253291130066,-0.024933993816375732,0.9274419114988528,-0.025813908469026665,-0.3271322231403066,0.17935930491384047
1728406739927256000,2.162256103515625,-0.39853635430336,-0.6899863481521606,0.14407885074615479,-0.6026529669761658,0.167873814702034,-0.7801460027694702,-0.103493332862854,0.020984143018722534,-0.041326165199279785,0.9261506922839646,-0.026478990090456494,-0.33049335138540237,0.1797717653287246
1728406739937287200,2.172287109375,-0.8802281618118286,-0.7245028018951416,0.22220242023468018,-0.6078892350196838,0.1739933043718338,-0.7747238278388977,-0.0034542083740234375,-0.16975145041942596,0.010090649127960205,0.9247149856963564,-0.029133461414948568,-0.33434911578746784,0.17962213046162376
1728406739947317200,2.182317138671875,-1.0896896123886108,-0.6648726463317871,0.2427670806646347,-0.6128481030464172,0.1833142638206482,-0.7686436772346497,0.04044508934020996,-0.24210645258426666,0.11787158250808716,0.9231615456263427,-0.03360597493760048,-0.33845058057075006,0.17914990791817434
1728406739957348000,2.19234814453125,-0.9136298894882202,-0.6266363263130188,0.12560024857521057,-0.6173928380012512,0.19234846532344818,-0.7627766132354736,0.028281450271606445,-0.23257070779800415,0.16136670112609863,0.9217184872554456,-0.038095508694305565,-0.34228706894498584,0.17839090464323346
1728406739967378200,2.202378173828125,-0.6984483599662781,-0.7038742303848267,0.0695929080247879,-0.6222747564315796,0.19891807436943054,-0.7571035027503967,-0.01409304141998291,-0.1391952782869339,0.114449143409729,0.9203369175103979,-0.04130284248412236,-0.3460380480182901,0.1775715409575412
1728406739977409000,2.212408935546875,-0.6647468209266663,-0.6862361431121826,0.0640636533498764,-0.6274360418319702,0.20443753898143768,-0.7513517141342163,0.0033820271492004395,0.025359749794006348,0.0003141164779663086,0.9189117659081707,-0.043906596325121706,-0.34985192349155103,0.1768533374191246
1728406739987439000,2.222439208984375,-0.9040663838386536,-0.6222037076950073,0.17706210911273956,-0.6320686340332031,0.21086940169334412,-0.7456697225570679,0.03726571798324585,0.15505154430866241,-0.14127790927886963,0.917494646929845,-0.04703946593215838,-0.35348609555497174,0.1761773440591894
1728406739997470200,2.23247021484375,-1.3204231262207031,-0.6417390704154968,0.24769259989261627,-0.6362922787666321,0.2205362170934677,-0.739253580570221,-0.00755232572555542,0.14178363978862762,-0.13086354732513428,0.9158960439574902,-0.0519703724805893,-0.3573125808414373,0.1753888804508438
1728406740007501000,2.2425009765625,-1.8574291467666626,-0.5999852418899536,0.23815768957138062,-0.6402981281280518,0.23383423686027527,-0.7316691875457764,-0.009039640426635742,-0.03174690902233124,-0.06215399503707886,0.9141216384641191,-0.059163172125702095,-0.3614762961903677,0.17382822612657606
1728406740017531100,2.25253125,-2.2210254669189453,-0.5874960422515869,0.1835050880908966,-0.6440842151641846,0.2502637207508087,-0.7228579521179199,-0.015034496784210205,-0.21732008457183838,-0.03625154495239258,0.9121970311471718,-0.06848632050853161,-0.36589705146432455,0.17124717838718204
1728406740027562200,2.262562255859375,-2.204758882522583,-0.6109350919723511,0.08226262778043747,-0.648047924041748,0.26729926466941833,-0.7131515145301819,-0.017616748809814453,-0.264415442943573,0.047425806522369385,0.9101459902223054,-0.07847298211424848,-0.3704945948468989,0.16795862489973604
1728406740037592000,2.272592041015625,-1.864464282989502,-0.6330510377883911,0.04538397118449211,-0.6522860527038574,0.28223320841789246,-0.7034681439399719,0.0039400458335876465,-0.15428832173347473,0.0009076595306396484,0.9080877514547426,-0.08740484451849627,-0.3750017788227584,0.16465343357176287
1728406740047623200,2.282623046875,-1.1821078062057495,-0.5993803143501282,0.07864392548799515,-0.6565254926681519,0.29348087310791016,-0.6948692798614502,0.01541215181350708,0.06172838807106018,-0.0708930492401123,0.9061473116388613,-0.09404972366430873,-0.37910421017784074,0.16227078417550314
1728406740057653200,2.2926533203125,-0.43306341767311096,-0.48377591371536255,0.13461372256278992,-0.6598226428031921,0.29977282881736755,-0.6890358328819275,0.014772534370422363,0.26698431372642517,-0.15758275985717773,0.9046729060715459,-0.09746946869086223,-0.38207561121491757,0.16150839843543197
1728406740067684000,2.30268408203125,0.22516384720802307,-0.3233213424682617,0.09432435035705566,-0.6623236536979675,0.3012644350528717,-0.6859789490699768,-0.02215510606765747,0.382802277803421,-0.1770886778831482,0.9037275895017532,-0.0978183869734703,-0.3839818962803208,0.1620676305575096
1728406740077715200,2.312715087890625,0.8368067741394043,-0.12541276216506958,0.05372845381498337,-0.6636199951171875,0.2981266975402832,-0.6860968470573425,-0.07556158304214478,0.42222538590431213,-0.0999596118927002,0.9034988782956965,-0.09539388224214043,-0.3845147271622847,0.16351800876087427
1728406740087745300,2.322745361328125,1.2892314195632935,-0.02086063101887703,0.10251596570014954,-0.6638371348381042,0.2912623882293701,-0.6888298392295837,-0.13131368160247803,0.4124576151371002,-0.05640941858291626,0.9038100945090578,-0.09064045826808638,-0.38388721925135655,0.16595873993243535
1728406740097776000,2.332776123046875,1.6857759952545166,0.0740661472082138,0.07198335975408554,-0.663426399230957,0.2815803289413452,-0.6932373642921448,-0.12166887521743774,0.3632102310657501,-0.005264222621917725,0.9044124388862035,-0.08407415118550407,-0.3825086359848414,0.1692836488521162
1728406740107806000,2.342805908203125,1.9284489154815674,0.2424374222755432,-0.032817620784044266,-0.6622402667999268,0.26905885338783264,-0.6993176937103271,-0.09284096956253052,0.2778313159942627,-0.010139703750610352,0.9054356796442243,-0.07603546173285057,-0.38021015259964086,0.17275762762620867
1728406740117837300,2.35283740234375,2.2962822914123535,0.3171590566635132,-0.015478577464818954,-0.6602944731712341,0.2539605498313904,-0.7067639827728271,-0.09193336963653564,0.19080257415771484,-0.01755547523498535,0.9067626979958632,-0.06662845815205437,-0.37706586376094436,0.17653167177294274
1728406740127867000,2.362866943359375,2.5020532608032227,0.4264245629310608,0.003141977358609438,-0.6577225923538208,0.23686659336090088,-0.7150490283966064,-0.0536116361618042,0.16009071469306946,-0.02170628309249878,0.9081736834240547,-0.05603175436225182,-0.37327726179893195,0.18095592826196955
1728406740137898000,2.37289794921875,2.4720704555511475,0.6708737015724182,-0.029998399317264557,-0.6537792682647705,0.21856409311294556,-0.7244324684143066,-0.05151247978210449,0.20094570517539978,0.037619173526763916,0.9098477189804618,-0.04500824058689772,-0.36845356103533194,0.18545459234440784
1728406740147928000,2.382927978515625,2.4948630332946777,0.7486171722412109,-0.0015057711862027645,-0.6485124826431274,0.20062854886054993,-0.7342886328697205,-0.13295120000839233,0.2597748041152954,0.04202789068222046,0.911678655056365,-0.03453020278059014,-0.36285445915861714,0.1897009297618771
1728406740157959000,2.392958984375,2.3047471046447754,0.7907664775848389,-0.21876245737075806,-0.6430304050445557,0.18175974488258362,-0.7439591884613037,-0.12199950218200684,0.12416364252567291,-0.059553325176239014,0.913499738306604,-0.023807087465511915,-0.3570064645979451,0.1936438405495301
1728406740167990000,2.402989990234375,1.407153844833374,0.8573884963989258,-0.33807870745658875,-0.6373061537742615,0.16585353016853333,-0.7525513768196106,-0.0672074556350708,-0.1619015783071518,-0.16747725009918213,0.915459893962297,-0.015552808630087176,-0.3514006452262109,0.19547144645483203
1728406740178020000,2.41302001953125,0.8700035810470581,0.9071643352508545,-0.18814729154109955,-0.6311118006706238,0.15585248172283173,-0.759873628616333,-0.096915602684021,-0.2481224536895752,0.05944943428039551,0.9173110573653478,-0.010891998141155077,-0.34633010532549147,0.19615646722133984
1728406740188051000,2.423051025390625,0.7375006079673767,1.1207661628723145,-0.2802779972553253,-0.6236720085144043,0.14842122793197632,-0.7674662470817566,-0.02761894464492798,-0.250731498003006,0.1372782588005066,0.9193107707319729,-0.007870992815719142,-0.34088844258869255,0.19647109262758553
1728406740198081000,2.4330810546875,0.8358029723167419,1.2758598327636719,-0.41161686182022095,-0.6148865222930908,0.14045219123363495,-0.7760076522827148,-0.054714977741241455,-0.16781127452850342,0.10983943939208984,0.9217152175335627,-0.005007580102709615,-0.3346208305944017,0.19607425260203876
1728406740208112000,2.443112060546875,1.5761855840682983,1.409116268157959,-0.29733288288116455,-0.6047801971435547,0.12886850535869598,-0.7858968377113342,-0.09500318765640259,0.06621503829956055,0.1545644998550415,0.9243421610212229,-0.0002185717817552327,-0.3271872995045097,0.19631634811236454
1728406740218142000,2.453141845703125,2.182703733444214,1.3838974237442017,-0.15835930407047272,-0.593956708908081,0.11256822198629379,-0.7965825796127319,-0.04672938585281372,0.30169254541397095,0.12292236089706421,0.9267809789554186,0.007527419058595178,-0.31882916232950725,0.19841465539020275
1728406740228173000,2.463173095703125,2.6898627281188965,1.3779679536819458,-0.1018771156668663,-0.5829616189002991,0.09228704124689102,-0.8072415590286255,-0.019867420196533203,0.4557017683982849,0.139593243598938,0.9289411867172993,0.017630915340875696,-0.3099489772995756,0.2017157921068513
1728406740238204000,2.473203857421875,3.0799460411071777,1.2701051235198975,0.021838966757059097,-0.5721072554588318,0.06832407414913177,-0.8173280358314514,-0.02821934223175049,0.41911786794662476,0.018957674503326416,0.9306821016517731,0.0299052933660557,-0.30073520532678244,0.2061426673757466
1728406740248234000,2.48323388671875,2.9694907665252686,1.13028883934021,0.05451115965843201,-0.5621522068977356,0.043232597410678864,-0.8259029984474182,-0.007900893688201904,0.17199254035949707,-0.07726460695266724,0.9318601149820321,0.042946891545608976,-0.2918973299660051,0.21115915566280058
1728406740258265000,2.49326513671875,2.3768739700317383,1.0268580913543701,-0.0022711632773280144,-0.5532060265541077,0.02124338410794735,-0.8327735662460327,-0.005723416805267334,-0.05368366464972496,-0.018743157386779785,0.9327296918638535,0.05420895938753941,-0.2840327496907855,0.2154117737314328
1728406740268295200,2.503295166015625,2.1924569606781006,1.0736379623413086,-0.10573230683803558,-0.5444642305374146,0.0021338602527976036,-0.8387813568115234,-0.06613147258758545,-0.12899550795555115,0.10059171915054321,0.9335808688304836,0.06366561854629493,-0.27668756094146346,0.21867240229632323
1728406740278326000,2.513325927734375,2.088412284851074,0.9634073376655579,-0.06427168101072311,-0.5357927083969116,-0.016518190503120422,-0.8441879749298096,-0.10045307874679565,-0.10834455490112305,0.054271042346954346,0.9343568364793967,0.072727399459723,-0.2694749146813258,0.22152060935476442
1728406740288356000,2.523356201171875,2.1617202758789062,0.7879283428192139,0.09048167616128922,-0.5283157229423523,-0.034474845975637436,-0.8483478426933289,-0.08086097240447998,0.010976232588291168,-0.03359490633010864,0.9346973185244493,0.08167581474457522,-0.26297365530168165,0.22475537219038955
1728406740298387000,2.533386962890625,2.118722915649414,0.5942440629005432,0.24747981131076813,-0.5225180983543396,-0.05178764462471008,-0.8510540127754211,-0.019550442695617676,0.14131087064743042,-0.06247437000274658,0.9344679623794736,0.09069744411582419,-0.25738485488356955,0.22868491336117602
1728406740308418000,2.54341796875,2.01898455619812,0.43144533038139343,0.3030964732170105,-0.518321692943573,-0.06796785444021225,-0.8524805307388306,-0.020344138145446777,0.20526635646820068,-0.08183038234710693,0.9338125616600731,0.09942206340598647,-0.25273504236160094,0.2328828037164575
1728406740318448000,2.5534482421875,2.0164706707000732,0.31461989879608154,0.2861214876174927,-0.5153672099113464,-0.08361005783081055,-0.8528810143470764,-0.04931485652923584,0.17288914322853088,-0.06673562526702881,0.9328818237697762,0.1080175487867249,-0.2487804370418257,0.23700648796199794
1728406740328479000,2.56347900390625,1.6165504455566406,0.2556123435497284,0.37926024198532104,-0.5129498839378357,-0.0981205552816391,-0.8527923822402954,-0.04413330554962158,0.023871198296546936,-0.05092465877532959,0.931819778933721,0.11608451362449707,-0.2452105350342077,0.24105639209766508
1728406740338509000,2.573509033203125,1.5767138004302979,-0.009132761508226395,0.18762873113155365,-0.5122742652893066,-0.10962580889463425,-0.8517965078353882,-0.0009703636169433594,-0.12810620665550232,0.05516570806503296,0.9306491999934116,0.12273748746135252,-0.24297585062731294,0.2445207676108074
1728406740348540200,2.5835400390625,1.1988801956176758,0.05636528879404068,-0.04518534243106842,-0.5122397541999817,-0.12175235897302628,-0.8501687049865723,0.031175851821899414,-0.2362341731786728,0.23876434564590454,0.9297177117108693,0.12939768518262965,-0.24118846750507694,0.24639296267063068
1728406740358570000,2.593570068359375,0.9646740555763245,0.16493918001651764,0.2906683087348938,-0.5112872123718262,-0.12991738319396973,-0.8495333194732666,-0.0674939751625061,-0.18249115347862244,0.05531340837478638,0.9290406370707118,0.1338977461425972,-0.2393840504087959,0.2482945522318185
1728406740368601000,2.60360107421875,1.1910655498504639,0.13565398752689362,0.2652899920940399,-0.5104292631149292,-0.13752911984920502,-0.8488508462905884,0.014427006244659424,0.045289650559425354,0.056828200817108154,0.9280978974202222,0.13836595795323256,-0.2375488017015116,0.2511172205521115
1728406740378632200,2.613632080078125,0.9436458945274353,0.13598740100860596,0.21892273426055908,-0.5095871090888977,-0.14569658041000366,-0.847993791103363,0.04478907585144043,0.072774738073349,0.0007343292236328125,0.9272054539313096,0.1430177262934528,-0.23568840109944764,0.25354886883692573
1728406740388662000,2.623662109375,0.7648859620094299,0.11630585789680481,0.36868348717689514,-0.5089089870452881,-0.15133574604988098,-0.8474132418632507,0.0035683512687683105,0.07427877187728882,0.03404355049133301,0.9263707617324399,0.14641100484271874,-0.23421613805619587,0.2560156636554143
1728406740398693000,2.633693115234375,0.5387742519378662,0.14124475419521332,0.3359457850456238,-0.5083977580070496,-0.1551062911748886,-0.8470382690429688,0.07809984683990479,0.007385879755020142,0.10941320657730103,0.9255545154538916,0.1489006063796088,-0.23304395466473077,0.2585884726108133
1728406740408723200,2.64372314453125,-0.1338028907775879,0.10117638111114502,0.2972433865070343,-0.5078040957450867,-0.15551866590976715,-0.8473186492919922,0.0754462480545044,-0.17024129629135132,0.08704954385757446,0.9251266800623796,0.14945913565013166,-0.2323846566266399,0.26038422320055504
1728406740418754000,2.653754150390625,-0.7789872288703918,0.15603749454021454,0.37303003668785095,-0.5072432160377502,-0.14974436163902283,-0.8486936688423157,0.04119396209716797,-0.29468321800231934,0.18891894817352295,0.9251906671820007,0.1466837752038628,-0.23267368523327656,0.26147470240956483
1728406740428784000,2.6637841796875,-1.3526626825332642,0.24549521505832672,0.37827324867248535,-0.506003201007843,-0.13885916769504547,-0.8512808084487915,0.07295870780944824,-0.393504798412323,0.197914719581604,0.925691863235675,0.1410923476086515,-0.2333507232193631,0.26217382320745103
1728406740438815200,2.673815185546875,-2.3334643840789795,0.19472497701644897,0.3482336103916168,-0.5045686364173889,-0.12128896266222,-0.8548096418380737,0.06883859634399414,-0.49151933193206787,0.20206916332244873,0.9267362115352532,0.13183216394535957,-0.23497973093024738,0.26184878503055026
1728406740448846000,2.68384619140625,-3.12739896774292,0.07238734513521194,0.4689160883426666,-0.5037803649902344,-0.09564130008220673,-0.8585208654403687,0.0719260573387146,-0.46510404348373413,0.3367771506309509,0.9281111954177257,0.11837911812904826,-0.23817209070810422,0.2605189143458833
1728406740458876200,2.693876220703125,-3.420612096786499,0.07945351302623749,0.41606006026268005,-0.5036527514457703,-0.06474954634904861,-0.8614763021469116,0.1492520570755005,-0.42862820625305176,0.3149217963218689,0.9294003841216475,0.10233809477091399,-0.24246392690210075,0.2587530902672702
1728406740468907000,2.703906982421875,-3.4159438610076904,-0.07319893687963486,0.12919418513774872,-0.5039106011390686,-0.0335284024477005,-0.8631048202514648,0.20929384231567383,-0.37856578826904297,0.21439272165298462,0.9306623453494064,0.08592680788481717,-0.2471116402764242,0.255773637702727
1728406740478937000,2.71393701171875,-2.810959815979004,-0.012806432321667671,0.15875527262687683,-0.5042945742607117,-0.005785168614238501,-0.8635123372077942,0.1396399736404419,-0.06977643072605133,0.2857382893562317,0.9316913896909619,0.0711965054082224,-0.2513461791538013,0.2524032268717824
1728406740488968200,2.72396826171875,-2.0782628059387207,0.06938382983207703,0.3203345835208893,-0.5039907693862915,0.016605427488684654,-0.8635494112968445,0.10453087091445923,0.3385428190231323,0.18476223945617676,0.9322223603706279,0.05943266433939291,-0.2543482929226057,0.25047218204466004
1728406740498998500,2.73399853515625,-1.5400865077972412,0.11842061579227448,0.3032674491405487,-0.5031012892723083,0.033752597868442535,-0.863568127155304,0.11792361736297607,0.4918973445892334,0.035244762897491455,0.9324292296577322,0.05052797061484349,-0.25624766642431157,0.249719563186767
1728406740509029400,2.744029296875,-1.6765178442001343,0.08829568326473236,0.20897077023983002,-0.501924455165863,0.04846492037177086,-0.8635525703430176,0.10966670513153076,0.2895171642303467,0.05062532424926758,0.9326274481609906,0.04280036815492307,-0.2576661705235896,0.24896266865890948
1728406740519060500,2.754060546875,-2.2558109760284424,-0.026469247415661812,0.1650294065475464,-0.5015164613723755,0.06650947779417038,-0.8625878095626831,0.11174595355987549,-0.07209427654743195,0.20362180471420288,0.9328194480274968,0.03326980241268798,-0.259998506307737,0.24726857070716046
1728406740529090300,2.76409033203125,-2.8760178089141846,-0.13490842282772064,0.09499812871217728,-0.5022398829460144,0.08938480913639069,-0.8600961565971375,0.16923201084136963,-0.33169445395469666,0.2534067630767822,0.932871657377034,0.02119882737968993,-0.2636333017481644,0.24453735049209588
1728406740539121400,2.774121337890625,-3.077073574066162,-0.15887127816677094,0.04844687506556511,-0.5033653378486633,0.11574853956699371,-0.8562859296798706,0.19670945405960083,-0.3322708308696747,-0.02939516305923462,0.9328307155786804,0.007122285458774871,-0.26796699549933056,0.2407690419129282
1728406740549151500,2.7841513671875,-2.7692158222198486,-0.35852715373039246,0.19305118918418884,-0.5055873990058899,0.14158423244953156,-0.8510789275169373,0.12460589408874512,-0.11079208552837372,-0.15360552072525024,0.9323172730053335,-0.006489156400880239,-0.27279742474874924,0.23732690066197573
1728406740559182300,2.794182373046875,-2.4617512226104736,-0.3075934052467346,0.2457074671983719,-0.508098304271698,0.16479790210723877,-0.8453861474990845,0.07552683353424072,0.05337217450141907,-0.11063802242279053,0.9314247710189387,-0.018524322335877287,-0.27742344153918724,0.23482131643393772
1728406740569212400,2.80421240234375,-2.15038800239563,-0.1835167557001114,0.20524661242961884,-0.5097601413726807,0.1856604963541031,-0.8400445580482483,-0.012059986591339111,0.15410688519477844,-0.10232299566268921,0.9305349642216355,-0.029437797744586245,-0.28126704594728524,0.23265202173723265
1728406740579243500,2.814243408203125,-1.5485996007919312,-0.18032681941986084,0.2178305834531784,-0.5108398199081421,0.2023688405752182,-0.8355175256729126,-0.12232369184494019,0.24039536714553833,-0.018410086631774902,0.9297281747703836,-0.038212798786685806,-0.2842200138703641,0.2310073235773593
1728406740589274400,2.8242744140625,-0.8729749321937561,-0.2554723918437958,0.25569620728492737,-0.5120682716369629,0.213604137301445,-0.8319611549377441,-0.09991604089736938,0.20712636411190033,-0.03466176986694336,0.9289136922147487,-0.043899213955140085,-0.2865175002531242,0.23043440426100892
1728406740599304400,2.834304443359375,-0.557155966758728,-0.5035796165466309,0.28510311245918274,-0.5145676732063293,0.22071170806884766,-0.8285568952560425,0.000025987625122070312,0.10387317836284637,-0.10412132740020752,0.927904971052445,-0.04705057534051522,-0.2889771651689001,0.230805046474287
1728406740609335300,2.844335205078125,-0.6271427869796753,-0.6219749450683594,0.2265271246433258,-0.5187963843345642,0.22712811827659607,-0.8241742253303528,0.07652032375335693,0.05805855989456177,-0.21095150709152222,0.926596124177023,-0.04958430096150289,-0.2923256398558801,0.23131545702863823
1728406740619365400,2.854365478515625,-0.5314266085624695,-0.6855416893959045,0.15691423416137695,-0.5237242579460144,0.2330317348241806,-0.8193956017494202,0.06869184970855713,0.09104961156845093,-0.29870742559432983,0.9252718773174693,-0.05188589993721636,-0.295989962094105,0.23145144972390372
1728406740629396500,2.864396484375,-0.4107725918292999,-0.689852774143219,0.2062130719423294,-0.5290268063545227,0.23768100142478943,-0.8146400451660156,-0.07920384407043457,0.0803578644990921,-0.2526206970214844,0.9239019009103886,-0.053438811608946965,-0.29970698454646977,0.23178734008124643
1728406740639426600,2.874426513671875,-0.6097589135169983,-0.5751392841339111,0.23461487889289856,-0.5335834622383118,0.24298477172851562,-0.8100908398628235,-0.169419527053833,-0.0184212327003479,-0.284803569316864,0.9225527511165666,-0.05537800970383268,-0.303130105990642,0.23225424423145163
1728406740649457400,2.88445751953125,-0.707366406917572,-0.5329050421714783,0.18342146277427673,-0.5375164747238159,0.2496279627084732,-0.805457592010498,-0.19475287199020386,-0.06571383774280548,-0.14629411697387695,0.9212676328727882,-0.058197202167634556,-0.30640543404613735,0.23236787490207977
1728406740659488500,2.894488525390625,-0.6390829682350159,-0.4412022531032562,0.15541380643844604,-0.5410681366920471,0.2560097873210907,-0.8010644316673279,-0.16698551177978516,-0.06834203004837036,0.008492469787597656,0.9201092321744812,-0.06102178981417352,-0.3094254578649268,0.2322310047165576
1728406740669518600,2.9045185546875,-0.4540416896343231,-0.31706127524375916,0.17286576330661774,-0.5436550378799438,0.2613040804862976,-0.7975959777832031,-0.10012859106063843,-0.07265976071357727,0.012042999267578125,0.9191590870484878,-0.06336844086059032,-0.3117474102522333,0.23225970190372253
1728406740679549400,2.914549560546875,-0.27706319093704224,-0.1872662752866745,0.14543333649635315,-0.5452430248260498,0.2651200294494629,-0.7952492833137512,-0.03968745470046997,-0.060072481632232666,-0.00983494520187378,0.9184530069167174,-0.06501419409235026,-0.3132866378268028,0.23252677027391075
1728406740689579500,2.92457958984375,-0.039807021617889404,-0.08611889183521271,0.106449194252491,-0.545987606048584,0.267056941986084,-0.7940894961357117,-0.01774841547012329,-0.05010756850242615,-0.02878648042678833,0.9180500143484938,-0.06578657583223047,-0.31404998033374737,0.23287091199319254
1728406740699610400,2.9346103515625,0.18652118742465973,-0.004458648152649403,0.1492227464914322,-0.5460269451141357,0.2671557366847992,-0.7940292358398438,-0.03199130296707153,-0.03749576210975647,0.01721954345703125,0.9178492057320913,-0.06558340278558591,-0.3141404359734499,0.23359676920687045
1728406740709640400,2.944640380859375,0.4095456004142761,0.20522283017635345,0.12512274086475372,-0.5448310375213623,0.2655361294746399,-0.7953928112983704,-0.03756648302078247,-0.027727991342544556,0.05547887086868286,0.9179365486328778,-0.06453620454437792,-0.3132709406735334,0.23471033786997292
1728406740719671600,2.954671630859375,0.579071044921875,0.3056296110153198,0.07977603375911713,-0.5424820780754089,0.2621555030345917,-0.798115074634552,-0.060301125049591064,-0.010461866855621338,0.06605947017669678,0.9183878252301867,-0.06274380849171891,-0.3114573493521349,0.23584160211510324
1728406740729702400,2.964702392578125,0.9262489676475525,0.42959991097450256,0.0932079553604126,-0.5393205285072327,0.2567022740840912,-0.802020788192749,-0.08731222152709961,0.00899893045425415,0.15631461143493652,0.9190818563322748,-0.059912541576384544,-0.30886907309070877,0.23727402773691575
1728406740739732500,2.974732421875,1.312649130821228,0.49751636385917664,0.08545628935098648,-0.5352656245231628,0.24815057218074799,-0.807410717010498,-0.049085021018981934,0.018222033977508545,0.12018537521362305,0.920023344610929,-0.05544813188754611,-0.30531976252662274,0.2392957063863799
1728406740749763600,2.984763671875,1.5490456819534302,0.5275455713272095,0.036636289209127426,-0.5309228301048279,0.23673145473003387,-0.813682496547699,-0.026297688484191895,0.04323674738407135,0.10257714986801147,0.9211120901972417,-0.04949026519544388,-0.301180126090088,0.24164822249725743
1728406740759793400,2.99479345703125,1.6169188022613525,0.5290518403053284,0.020420832559466362,-0.5265097618103027,0.2239188700914383,-0.8201510906219482,-0.02387481927871704,0.10675427317619324,0.08321261405944824,0.9222396926710477,-0.04286671162824539,-0.2967943631106325,0.24402772393764055
1728406740769824500,3.004824462890625,1.6694873571395874,0.45834025740623474,0.007403567899018526,-0.5223314762115479,0.21037361025810242,-0.8263853788375854,-0.013816595077514648,0.1589805632829666,0.033233582973480225,0.9232871215893389,-0.035869229106898715,-0.2924392590102299,0.24644162145338475
1728406740779854600,3.0148544921875,1.65876305103302,0.3323197364807129,-0.031853023916482925,-0.5190916061401367,0.19646920263767242,-0.8318315744400024,0.018771111965179443,0.1161222755908966,-0.05220162868499756,0.9241394308345409,-0.028624485974266034,-0.2885565119525511,0.24876093750331504
1728406740789885400,3.024885498046875,1.5546704530715942,0.21532925963401794,-0.10546226054430008,-0.5169376134872437,0.18269120156764984,-0.8363010287284851,0.030716300010681152,0.02405005693435669,-0.07245135307312012,0.9248165474338874,-0.02142612403645828,-0.28529003339969744,0.25072857467485177
1728406740799916500,3.03491650390625,1.5568956136703491,0.19574303925037384,-0.14408369362354279,-0.5154597163200378,0.1690642088651657,-0.8400706052780151,-0.004804015159606934,-0.01345515251159668,-0.04738056659698486,0.9253987745600217,-0.014338420165142309,-0.28241654083369777,0.25233417792082186
1728406740809946600,3.044946533203125,1.7122443914413452,0.2679921090602875,-0.1913694441318512,-0.5137465596199036,0.15441212058067322,-0.8439321517944336,-0.05597090721130371,0.024878576397895813,-0.061585426330566406,0.9260257613874988,-0.006818182432743632,-0.27926233372730636,0.25385538620140774
1728406740819977500,3.0549775390625,1.9032686948776245,0.26441121101379395,-0.2382541298866272,-0.5117263197898865,0.13791173696517944,-0.8480073809623718,-0.08312231302261353,0.0957460105419159,-0.1075284481048584,0.9267089655202545,0.0015561687006365732,-0.27566989631106786,0.2553705843635127
1728406740830007600,3.065007568359375,1.9939045906066895,0.16366691887378693,-0.245326429605484,-0.5101439356803894,0.12002875655889511,-0.8516726493835449,-0.08089005947113037,0.15426316857337952,-0.12252473831176758,0.9272643700944059,0.010680584700261569,-0.27212058292268343,0.2569379530566446
1728406740840038700,3.07503857421875,1.9701670408248901,0.08856205642223358,-0.26115623116493225,-0.5093774795532227,0.10173662006855011,-0.8545082211494446,-0.02687746286392212,0.11571630835533142,-0.15197676420211792,0.9276012969526451,0.020108321632882488,-0.26896385698831493,0.25847641708363883
1728406740850068500,3.085068359375,1.5409389734268188,-0.04306734725832939,-0.2866823673248291,-0.5094135403633118,0.08497048169374466,-0.8563164472579956,0.03195077180862427,-0.015527807176113129,-0.15924745798110962,0.9277739447574248,0.028773019081304974,-0.26648433650765957,0.2596028664085599
1728406740860099600,3.095099609375,1.103265404701233,-0.1444493681192398,-0.2969738841056824,-0.510404646396637,0.07227188348770142,-0.8568919897079468,0.04070854187011719,-0.08788169175386429,-0.03835642337799072,0.9278278232647686,0.03534462679151675,-0.2651504724233069,0.2599643532001305
1728406740870130400,3.10513037109375,1.0356297492980957,-0.09159296751022339,-0.3189215362071991,-0.5117790699005127,0.061857253313064575,-0.8568872809410095,0.00340193510055542,-0.03729066997766495,0.0674586296081543,0.9278453801966722,0.040721953271738096,-0.2643824310860286,0.25989738509784915
1728406740880160500,3.115160400390625,1.2320845127105713,0.05335516855120659,-0.3332296311855316,-0.5120435953140259,0.0503118671476841,-0.857484757900238,-0.07856321334838867,0.04442986845970154,-0.029172897338867188,0.9280122033266632,0.04650273439344245,-0.26285948665698855,0.25987663323826116
1728406740890191600,3.125191650390625,1.3561124801635742,0.16087406873703003,-0.27236708998680115,-0.511256754398346,0.037701353430747986,-0.8586006760597229,-0.14494752883911133,0.11276549100875854,-0.13056552410125732,0.9282346152474009,0.05273352469104804,-0.2606124159497101,0.2601555261644066
1728406740900221700,3.1352216796875,1.5108137130737305,0.25083431601524353,-0.2303410768508911,-0.5094934105873108,0.02405025064945221,-0.8601384162902832,-0.10120916366577148,0.12231198698282242,-0.1083521842956543,0.9284114709377914,0.05948462039891413,-0.25766717810071343,0.26100075903747755
1728406740910252500,3.14525244140625,1.4731472730636597,0.23882991075515747,-0.34545087814331055,-0.5073513984680176,0.009576826356351376,-0.8616860508918762,0.0009121298789978027,0.03264416754245758,-0.10515660047531128,0.9286372662255351,0.0665363231858903,-0.25442071412560285,0.26167885998194135
1728406740920282600,3.15528271484375,1.385394811630249,0.1762424260377884,-0.39694496989250183,-0.5055323839187622,-0.004701059777289629,-0.862794816493988,0.05318552255630493,-0.04992548003792763,-0.009473800659179688,0.9288995489482526,0.07339444800925166,-0.2514276137375396,0.26180712133930256
1728406740930313500,3.1653134765625,1.4821559190750122,0.21922414004802704,-0.3790341317653656,-0.5038007497787476,-0.01899382285773754,-0.8636110424995422,0.08845645189285278,-0.05137979984283447,0.09224879741668701,0.9291091629370359,0.08025495062269421,-0.24850276460031914,0.2618429567630589
1728406740940344600,3.175344482421875,1.597154974937439,0.23557861149311066,-0.33086660504341125,-0.5016691088676453,-0.034011609852313995,-0.8643907308578491,0.08377665281295776,0.00909392535686493,0.0651811957359314,0.9292181207232862,0.08750423798340203,-0.24525016020824392,0.26220051664819033
1728406740950374700,3.185374755859375,1.6546125411987305,0.21004411578178406,-0.34374991059303284,-0.4994782507419586,-0.049910061061382294,-0.864887535572052,0.04058536887168884,0.07053986191749573,0.007740378379821777,0.9291998260325228,0.09523823200557138,-0.2418385924099206,0.2627385353926786
1728406740960405500,3.195405517578125,1.7389740943908691,0.1900525689125061,-0.3701937794685364,-0.497612863779068,-0.06631294637918472,-0.8648607134819031,0.01604539155960083,0.08180052787065506,-0.02437567710876465,0.9290577350388396,0.10327189088200536,-0.23854676984166265,0.2632149524936781
1728406740970435300,3.205435302734375,1.413490653038025,0.13222047686576843,-0.33741772174835205,-0.4959797263145447,-0.0821533128619194,-0.8644391298294067,0.015587210655212402,0.04843129962682724,-0.02194392681121826,0.9288557654083183,0.1110322211338859,-0.23548309278655424,0.263527465328658
1728406740980466700,3.215466796875,1.3818334341049194,0.1563039869070053,-0.2853449285030365,-0.4944421648979187,-0.09537854790687561,-0.8639617562294006,0.014949947595596313,0.056682176887989044,0.03063356876373291,0.92865359388683,0.11749218369784142,-0.23284053448327857,0.26378682127830955
1728406740990496500,3.22549658203125,1.4488195180892944,0.15638083219528198,-0.33284106850624084,-0.4927521049976349,-0.10938792675733566,-0.8632668852806091,0.008605927228927612,0.0626043900847435,0.050141334533691406,0.9283688867059724,0.12435315202287449,-0.2300062055980216,0.2641304193179598
1728406741000527400,3.23552734375,1.3519680500030518,0.20612014830112457,-0.3150370419025421,-0.4907826781272888,-0.1231142207980156,-0.8625400066375732,-0.04083359241485596,-0.02385852485895157,-0.027169406414031982,0.928114333765927,0.1310017009221386,-0.2270870859705025,0.26433668578573144
1728406741010558700,3.245558837890625,0.9812546968460083,0.19486665725708008,-0.2850152254104614,-0.4886154532432556,-0.13482969999313354,-0.8620184659957886,-0.03700408339500427,-0.09975899755954742,-0.0012322068214416504,0.9279550931504537,0.1365759284065527,-0.22436081540160277,0.26440213793422634
1728406741020588300,3.25558837890625,0.4977322816848755,0.11960358917713165,-0.28013551235198975,-0.48690205812454224,-0.1425226628780365,-0.8617503643035889,0.02361467480659485,-0.20997071266174316,0.08477288484573364,0.9279867685504041,0.1400937272272084,-0.22248272702002891,0.2640375479835838
1728406741030619400,3.265619384765625,0.12445668876171112,0.0776161402463913,-0.26922163367271423,-0.4856046140193939,-0.14662469923496246,-0.8617942929267883,0.06910064816474915,-0.2985352873802185,0.18233567476272583,0.9282471015455174,0.1417432990745252,-0.22138586972952737,0.26316248598003955
1728406741040649500,3.2756494140625,-0.4329777956008911,0.028886418789625168,-0.16727742552757263,-0.484759122133255,-0.14651274681091309,-0.8622891902923584,0.08388015627861023,-0.3478721082210541,0.1850278377532959,0.9287081639630511,0.14126489518544175,-0.2211326454806717,0.2620033135911942
1728406741050680300,3.285680419921875,-0.9494274854660034,0.07730263471603394,-0.04793958365917206,-0.4842025637626648,-0.14084620773792267,-0.8635451793670654,0.09801784157752991,-0.3286668062210083,0.2450302243232727,0.9293957714988854,0.13799656576989133,-0.22177550106028626,0.2607606223637776
1728406741060710400,3.29571044921875,-1.364526391029358,0.0790344849228859,0.022467205300927162,-0.4834292232990265,-0.13098371028900146,-0.8655284643173218,0.10626241564750671,-0.3640267550945282,0.2860301733016968,0.9302796627353239,0.132565630425085,-0.22285000918428866,0.25950752775630437
1728406741070741500,3.305741455078125,-1.9464523792266846,0.04958285763859749,0.02846837416291237,-0.48288393020629883,-0.11641746014356613,-0.8679113388061523,0.11975520849227905,-0.5269694328308105,0.24799257516860962,0.9313867423933532,0.12470077412865795,-0.22470877619727633,0.2578266793006399
1728406741080772400,3.3157724609375,-2.383274793624878,0.021217793226242065,-0.055747970938682556,-0.4825286269187927,-0.09757634997367859,-0.8704280257225037,0.15713492035865784,-0.6236304044723511,0.28717613220214844,0.9327339939124645,0.11454238050106916,-0.22730159631835561,0.2553849010114674
1728406741090802400,3.325802490234375,-3.464489221572876,-0.31163614988327026,-0.28291693329811096,-0.4836360216140747,-0.07312647998332977,-0.8722091317176819,0.16162976622581482,-0.6092161536216736,0.4118362069129944,0.9343335055769412,0.10139738469562085,-0.23154699693375733,0.25124806647995923
1728406741100833500,3.33583349609375,-3.6831979751586914,-0.359694242477417,-0.6234236359596252,-0.4865686893463135,-0.0429171621799469,-0.8725875616073608,0.1430628001689911,-0.37959879636764526,0.4498123526573181,0.9361925970015901,0.0850168516802205,-0.2376517508598,0.24461660900834165
1728406741110863400,3.34586328125,-3.0461747646331787,-0.4892815351486206,-0.7445093393325806,-0.48989084362983704,-0.01724836975336075,-0.8716131448745728,0.08762335777282715,0.04317297041416168,0.16891539096832275,0.9378778072935045,0.07069008751346641,-0.24330300437820315,0.23704795535771492
1728406741120894500,3.35589453125,-2.5794286727905273,-0.6836843490600586,-0.07150403410196304,-0.49504515528678894,0.005290887784212828,-0.8688511252403259,-0.000712960958480835,0.4599647521972656,-0.1795802116394043,0.9385950299348281,0.05859257918229692,-0.24928164173688372,0.23122499984275177
1728406741130924500,3.365924560546875,-1.7706435918807983,-0.6565356254577637,0.5629696249961853,-0.5008758902549744,0.025725282728672028,-0.8651367425918579,0.06925046443939209,0.8157663345336914,-0.2292388677597046,0.9379844378343419,0.04874281299077049,-0.25506034347952433,0.22968149539094865
1728406741140955400,3.375955322265625,-1.3217273950576782,-0.5683082938194275,0.36144793033599854,-0.5060924887657166,0.04141824319958687,-0.861484169960022,0.09363210201263428,0.74326491355896,-0.275234580039978,0.9369501899859906,0.04166436671348926,-0.25984996263181714,0.22992713951767818
1728406741150986500,3.385986572265625,-1.3543084859848022,-0.3587490916252136,0.03173660486936569,-0.5100272297859192,0.05352374538779259,-0.8584913611412048,-0.09321373701095581,0.27670687437057495,-0.2929520606994629,0.936387172330238,0.03586742950546832,-0.263567527338069,0.22896475512195513
1728406741161016600,3.3960166015625,-1.646640419960022,-0.25508981943130493,0.004430414643138647,-0.5126293301582336,0.06659036874771118,-0.856023907661438,-0.17279553413391113,-0.11360277235507965,-0.12342250347137451,0.9362194521137324,0.029092689279826448,-0.2667239476078182,0.22694747459591505
1728406741171047400,3.40604736328125,-1.2366851568222046,-0.1594047099351883,-0.060615696012973785,-0.514353334903717,0.07934805750846863,-0.8538995981216431,-0.05661529302597046,-0.1314111351966858,0.16789501905441284,0.9361673447983412,0.02230426520123463,-0.2693561121153145,0.22481224286870866
1728406741181077500,3.416077392578125,-0.4375910758972168,-0.29003676772117615,-0.07625990360975266,-0.516240656375885,0.086101233959198,-0.8521045446395874,0.04974895715713501,0.11929725855588913,0.1435474157333374,0.9360540638491901,0.01872042490144157,-0.27128817066748395,0.22328267101553123
1728406741191108400,3.4261083984375,0.2203599065542221,-0.47946101427078247,0.12448784708976746,-0.5195329189300537,0.08703399449586868,-0.8500062823295593,0.10745400190353394,0.40472620725631714,-0.06355267763137817,0.9355214370626659,0.018659178184231635,-0.2732191447700902,0.2231653886928267
1728406741201138400,3.436138427734375,0.579771101474762,-0.6971621513366699,0.3090933859348297,-0.5243390798568726,0.08445905894041061,-0.8473106026649475,0.19905215501785278,0.4957715570926666,-0.1368812918663025,0.9344123332854704,0.021081876942741214,-0.2755000305473877,0.22478652301044538
1728406741211169500,3.44616943359375,0.09644908457994461,-0.7608265280723572,0.2816298007965088,-0.5304016470909119,0.08286125212907791,-0.8436872363090515,0.2138427495956421,0.24265441298484802,-0.1427324414253235,0.9329819174533174,0.023284140176673702,-0.2785933202309839,0.22668996340816652
1728406741221200400,3.456200439453125,-0.6483753323554993,-0.5771118402481079,0.10271703451871872,-0.5359359979629517,0.0862792506814003,-0.8398383855819702,0.08638149499893188,-0.11192935705184937,-0.009557366371154785,0.9318403336339731,0.022466203416393587,-0.282092326842602,0.22714031271395158
1728406741231230500,3.46623046875,-1.3137574195861816,-0.4307307004928589,-0.07029122859239578,-0.540053129196167,0.09463326632976532,-0.8362936973571777,-0.07237362861633301,-0.3427870273590088,0.12460857629776001,0.931231924017909,0.018396036211706022,-0.2855078683276094,0.22572971667698022
1728406741241261600,3.476261474609375,-1.5008865594863892,-0.498375803232193,-0.1667482554912567,-0.5439331531524658,0.106137715280056,-0.8323890566825867,-0.12406617403030396,-0.40319588780403137,0.10790181159973145,0.9308346841047141,0.012287532901926839,-0.28923084703752083,0.22302780014092896
1728406741251291400,3.48629150390625,-1.168575644493103,-0.5893852710723877,-0.15848499536514282,-0.5486749410629272,0.11646302044391632,-0.8278841376304626,-0.04116886854171753,-0.2729572653770447,0.015231609344482422,0.9302843587762945,0.0068416476411355225,-0.2932765157172789,0.2202569449188083
1728406741261322500,3.496322509765625,-0.7657437920570374,-0.6660020351409912,-0.11584779620170593,-0.554050624370575,0.12374096363782883,-0.8232351541519165,0.058277249336242676,-0.08893576264381409,-0.141837477684021,0.9295267943933739,0.0032118494900672725,-0.2972744633421798,0.21816870193939464
1728406741271352600,3.5063525390625,-0.3782152235507965,-0.6955587863922119,-0.0653713047504425,-0.5597663521766663,0.12786202132701874,-0.8187264800071716,0.09797430038452148,0.0651157945394516,-0.13037019968032837,0.9286128221081728,0.0014702040499983576,-0.3010558137251098,0.21689088431134826
1728406741281383400,3.516383544921875,-0.25350233912467957,-0.6687732338905334,-0.014053520746529102,-0.5655182003974915,0.130157470703125,-0.8144005537033081,0.05939936637878418,0.16423025727272034,0.026650309562683105,0.9276004805459298,0.000854818829752219,-0.30462926435811677,0.21623551198724542
1728406741291414500,3.52641455078125,-0.04364737123250961,-0.4611585736274719,-0.004369734320789576,-0.5700660943984985,0.13142472505569458,-0.811019241809845,-0.01281970739364624,0.22599704563617706,0.20255982875823975,0.926752987217561,0.0007250807902912065,-0.3073920153276591,0.2159598569679318
1728406741301444600,3.536444580078125,0.1939888894557953,-0.45836466550827026,0.001548075582832098,-0.5737404823303223,0.13074789941310883,-0.808533787727356,-0.05525738000869751,0.2036789059638977,0.16250717639923096,0.9260596864379635,0.001592464132573595,-0.3094035665536072,0.2160565392288468
1728406741311475500,3.546475341796875,0.17783081531524658,-0.5249782800674438,0.019700979813933372,-0.5776756405830383,0.12908177077770233,-0.805995523929596,-0.033240556716918945,0.06516250967979431,0.016521036624908447,0.9252909745468216,0.003088623678830011,-0.31143652971730434,0.2164125205530537
1728406741321505500,3.556505615234375,-0.1676565408706665,-0.5601983070373535,0.12674780189990997,-0.5819798707962036,0.1293729692697525,-0.8028461933135986,0.022928297519683838,-0.06252428889274597,-0.1389567255973816,0.9243572770021313,0.003641731536143123,-0.313948448813496,0.21676408406113515
1728406741331536600,3.56653662109375,-0.5375861525535583,-0.5137599110603333,0.11164502054452896,-0.586205780506134,0.13302986323833466,-0.7991657257080078,-0.008444547653198242,-0.10821916162967682,-0.1361522674560547,0.923356067404424,0.0023609036046689158,-0.3168778387889174,0.21678666490467846
1728406741341566500,3.57656640625,-0.5775535106658936,-0.37333568930625916,0.0266672782599926,-0.5896926522254944,0.13803346455097198,-0.7957445383071899,-0.09676975011825562,-0.11651867628097534,-0.09964114427566528,0.922580268352097,0.00006199169545847498,-0.31957429461881526,0.2161435633050359
1728406741351597600,3.58659765625,-0.49633273482322693,-0.308066725730896,0.08327196538448334,-0.5922010540962219,0.1426982283592224,-0.7930543422698975,-0.15952324867248535,-0.07523919641971588,-0.09549546241760254,0.921991461323232,-0.0021870451728315094,-0.3216645080170125,0.21554345735441016
1728406741361628400,3.59662841796875,-0.3033811151981354,-0.33781397342681885,0.06200023740530014,-0.5945751667022705,0.1463974565267563,-0.7905998826026917,-0.10636788606643677,0.03757770359516144,-0.0034674406051635742,0.9213998255073456,-0.0038659297012060487,-0.32355077220551054,0.2152263735316511
1728406741371658500,3.606658447265625,0.05375188589096069,-0.4381890296936035,0.08681689947843552,-0.5975610613822937,0.14783288538455963,-0.7880775928497314,-0.016559481620788574,0.1534518003463745,0.038871049880981445,0.9206916143287217,-0.004159334541004082,-0.325490249785724,0.21532743503532667
1728406741381689600,3.616689697265625,0.3111514747142792,-0.45330435037612915,0.12974971532821655,-0.6009368300437927,0.14697296917438507,-0.7856678366661072,0.03649890422821045,0.18717916309833527,0.00045055150985717773,0.9198323210311709,-0.0029500791251924354,-0.32734902040618186,0.21620014658649317
1728406741391719700,3.6267197265625,0.2956438660621643,-0.40813717246055603,0.05458705872297287,-0.6041706800460815,0.1450914442539215,-0.7835344672203064,0.04017525911331177,0.14502383768558502,0.005488872528076172,0.9190207866288863,-0.0011925085582336983,-0.32898530356298705,0.21718229132955133
1728406741401750500,3.63675048828125,0.23775501549243927,-0.37179034948349,-0.06551617383956909,-0.6072515249252319,0.14302849769592285,-0.7815295457839966,-0.025164246559143066,0.08759275078773499,0.07133978605270386,0.9183791515249136,0.00043573764566446477,-0.3305072325410265,0.21758803474736105
1728406741411780600,3.646780517578125,0.2843160629272461,-0.3706425428390503,-0.1341804563999176,-0.6102469563484192,0.1403784304857254,-0.7796746492385864,-0.06309294700622559,0.049105122685432434,0.07085812091827393,0.9178824145166037,0.002197052799984341,-0.3319003583936887,0.21755279942712494
1728406741421811500,3.6568115234375,0.2702050507068634,-0.4380170404911041,-0.16600950062274933,-0.613591194152832,0.13722312450408936,-0.7776089310646057,-0.032176077365875244,0.026763007044792175,-0.0025271177291870117,0.9173797645448931,0.004189357574500079,-0.3334336221153118,0.2172990096157313
1728406741431842600,3.666842529296875,0.22848261892795563,-0.5330034494400024,-0.13777519762516022,-0.6175920963287354,0.13436979055404663,-0.7749353051185608,0.016365230083465576,0.0652455985546112,-0.041165709495544434,0.9167242181535241,0.006102150337332964,-0.33540288828691367,0.21698942768280274
1728406741441872600,3.67687255859375,0.18695195019245148,-0.45197594165802,-0.023413466289639473,-0.6214920878410339,0.1320071965456009,-0.7722187042236328,0.03369295597076416,0.15328629314899445,-0.06045341491699219,0.9159836529779772,0.007865430047894018,-0.3373852171328075,0.21698700061323578
1728406741451903500,3.686903564453125,0.10169178247451782,-0.516597330570221,0.11692234128713608,-0.625223696231842,0.13152794539928436,-0.7692826390266418,0.028406620025634766,0.23094451427459717,-0.09117573499679565,0.9150762538304966,0.008808999945695008,-0.33953069389183105,0.2174321273903376
1728406741461933300,3.696933349609375,0.29038500785827637,-0.5928641557693481,0.09107742458581924,-0.6294007897377014,0.1307430863380432,-0.7660032510757446,0.02936410903930664,0.2549684941768646,-0.004168868064880371,0.9139868661352065,0.010115819549092658,-0.34190062892874606,0.21824256675859044
1728406741471964700,3.706964599609375,0.3682814836502075,-0.599198043346405,0.06786691397428513,-0.6339137554168701,0.1285865157842636,-0.7626394629478455,-0.008664429187774658,0.18543927371501923,-0.08181244134902954,0.912840801465715,0.012234256892685112,-0.3442827351379577,0.21918376837922104
1728406741481994500,3.716994384765625,0.11316181719303131,-0.5818381905555725,0.08455667644739151,-0.6383417248725891,0.12726673483848572,-0.759159505367279,-0.03034430742263794,0.12621217966079712,-0.10485416650772095,0.9117142814083057,0.013837169012763644,-0.3467402360983379,0.21990210708561378
1728406741492025300,3.727025390625,0.15754219889640808,-0.52150559425354,0.08636123687028885,-0.6424179673194885,0.12697669863700867,-0.755761981010437,-0.024391114711761475,0.13700026273727417,0.01563441753387451,0.910646155016569,0.01480824688219131,-0.34914142690791883,0.2204648757984176
1728406741502057000,3.737056884765625,0.30110254883766174,-0.4674266576766968,0.05439717695116997,-0.6460220217704773,0.12566311657428741,-0.7529039978981018,0.00812828540802002,0.11554774641990662,-0.005198419094085693,0.9096895941202767,0.016297240284103218,-0.35111594237509547,0.22117193211255062
1728406741512087000,3.747087158203125,0.2911803722381592,-0.46041154861450195,0.013319512829184532,-0.6494861245155334,0.12359246611595154,-0.7502617835998535,0.04842710494995117,0.03583129495382309,-0.056989192962646484,0.9088041604818973,0.0181404125138285,-0.3529023074062614,0.22182432340026065
1728406741522118100,3.7571181640625,0.2574580907821655,-0.4924488067626953,-0.029155774042010307,-0.6530683040618896,0.12155506014823914,-0.7474799156188965,0.08234375715255737,-0.0257757306098938,0.032147884368896484,0.9079442313668913,0.019887593854325827,-0.35477390859148533,0.22221012577003368
1728406741532148000,3.76714794921875,0.2449934184551239,-0.4708463251590729,-0.022529296576976776,-0.6567388772964478,0.11942631006240845,-0.7446015477180481,0.08277946710586548,-0.061137810349464417,0.0817139744758606,0.9070800295127236,0.02166444438687111,-0.3566929827170925,0.22250098247686462
1728406741542179000,3.777178955078125,0.10662622004747391,-0.3742486834526062,0.008573494851589203,-0.6599364280700684,0.11809682846069336,-0.7419818639755249,0.039361417293548584,-0.07386169582605362,0.03392833471298218,0.906294747374452,0.022948050696281714,-0.3584444875427729,0.2227572595387284
1728406741552209000,3.787208984375,0.07080816477537155,-0.23349742591381073,0.004865575116127729,-0.6621508002281189,0.11755054444074631,-0.7400934100151062,-0.02460157871246338,-0.05796504020690918,0.03840279579162598,0.9057383486085682,0.023633278872696242,-0.3597148401954975,0.22290111891199044
1728406741562240000,3.797239990234375,0.038841184228658676,-0.17117545008659363,0.0323810875415802,-0.6635725498199463,0.11721496284008026,-0.738872230052948,-0.06678950786590576,-0.058194033801555634,0.03483176231384277,0.9053594429280755,0.024097066814477923,-0.3605318534136619,0.22307040981371268
1728406741572271000,3.80727099609375,-0.04312385618686676,-0.17205527424812317,0.05071748420596123,-0.6647844910621643,0.11753102391958237,-0.7377316355705261,-0.03452581167221069,-0.06797055900096893,0.031585514545440674,0.9050017816945415,0.02419407283913551,-0.3613154088598165,0.22324315114207843
1728406741582301000,3.817301025390625,-0.03598099201917648,-0.21377448737621307,0.05578361451625824,-0.6661228537559509,0.1182890236377716,-0.736402153968811,0.03671300411224365,-0.05914603918790817,0.060437798500061035,0.9046014643362051,0.02406832975309506,-0.3622425055206625,0.22337731175389405
1728406741592331800,3.827331787109375,-0.05328182131052017,-0.3054000735282898,0.05917461961507797,-0.6680121421813965,0.11891159415245056,-0.7345882058143616,0.08898687362670898,-0.057479776442050934,0.04754602909088135,0.9040637939890579,0.02410536022344349,-0.36348979448271507,0.22352369215472964
1728406741602361900,3.83736181640625,-0.10672400146722794,-0.284690260887146,0.07915098965167999,-0.6700731515884399,0.1200399398803711,-0.7325246930122375,0.09661728143692017,-0.04099950194358826,0.054439425468444824,0.9034613314916844,0.02390247276408881,-0.3649195950200024,0.2236518195766295
1728406741612393000,3.84739306640625,0.08720924705266953,-0.2722836434841156,0.053048551082611084,-0.6720343828201294,0.12066849321126938,-0.7306222915649414,0.05458742380142212,0.006315059959888458,0.07641702890396118,0.9028712941683349,0.02399458672518337,-0.3662145575125646,0.2239077303072325
1728406741622423000,3.857423095703125,0.11523821949958801,-0.2745036780834198,0.02143203467130661,-0.6740040183067322,0.1200421079993248,-0.7289091348648071,0.010200858116149902,0.016523979604244232,-0.004473984241485596,0.9023161451179633,0.024765796202535918,-0.36733101714551547,0.22423271149909496
1728406741632454000,3.867453857421875,0.0677652433514595,-0.2744796872138977,0.016468435525894165,-0.6759949326515198,0.11954054981470108,-0.727145791053772,-0.029693603515625,0.0075650885701179504,-0.05184590816497803,0.9017715492802941,0.025437206381374616,-0.36848345837324964,0.224457358043394
1728406741642485000,3.877485107421875,0.06814101338386536,-0.27017417550086975,-0.0028320252895355225,-0.6779488921165466,0.11906290054321289,-0.7254029512405396,-0.048247456550598145,0.01458875834941864,0.01300060749053955,0.9012552764725869,0.026054410997449227,-0.3696210067090999,0.22458984787353914
1728406741652514800,3.887514892578125,-0.02359476312994957,-0.24990299344062805,0.0029534255154430866,-0.6798660755157471,0.11892161518335342,-0.7236296534538269,-0.053669750690460205,0.017629198729991913,-0.006747543811798096,0.9007630629594614,0.026439041004586616,-0.37079126903168375,0.2245902906960215
1728406741662546000,3.8975458984375,-0.10644197463989258,-0.19392067193984985,0.010734915733337402,-0.6812617778778076,0.11926668882369995,-0.7222589254379272,-0.03216296434402466,0.036189764738082886,0.009719312191009521,0.9003942939769976,0.02646866441287346,-0.37171217001926665,0.22454357528778018
1728406741672576000,3.907575927734375,0.13119854032993317,-0.4189833402633667,-0.023715203627943993,-0.6834149360656738,0.11949337273836136,-0.7201842665672302,0.024448812007904053,0.040449172258377075,0.069549560546875,0.8998439998368136,0.026659870579177635,-0.37309128245599354,0.22443947732044134
1728406741682606800,3.91760693359375,0.11633837223052979,-0.5495991110801697,-0.008616411127150059,-0.6871513724327087,0.11816435307264328,-0.7168404459953308,0.09195172786712646,0.04385339468717575,0.07562041282653809,0.8988863147466998,0.02800790128566735,-0.3752270380849281,0.22455230095989961
1728406741692637000,3.927636962890625,-0.017134200781583786,-0.40207600593566895,0.03627968952059746,-0.6905649304389954,0.11806727200746536,-0.7135686874389648,0.046155691146850586,0.06758632510900497,-0.060235023498535156,0.8979577857451183,0.028652819071477705,-0.3773521932148014,0.22462479475790942
1728406741702668000,3.93766796875,0.24023275077342987,-0.3647155165672302,-0.009147179313004017,-0.693175196647644,0.11752614378929138,-0.7111229300498962,-0.07957577705383301,0.13197022676467896,0.052660465240478516,0.8972243528940668,0.029455222867142947,-0.3789075413772558,0.22483325204366061
1728406741712699000,3.947698974609375,0.2932399809360504,-0.34224408864974976,0.013817258179187775,-0.6957626938819885,0.11538960784673691,-0.7089425921440125,-0.11542510986328125,0.11126437783241272,-0.027400732040405273,0.8964884044060337,0.031212614905774715,-0.3802031955581541,0.22534411281427905
1728406741722729000,3.95772900390625,0.10926847904920578,-0.37672340869903564,0.044267307966947556,-0.6982067823410034,0.11436805129051208,-0.7067016959190369,-0.03197211027145386,0.07584792375564575,-0.10872793197631836,0.8957484966170777,0.03234892835935862,-0.38157922758992047,0.22579984419833565
1728406741732760000,3.967760009765625,0.15477903187274933,-0.5476319193840027,-0.023500552400946617,-0.7014403939247131,0.11351961642503738,-0.703629732131958,0.056069791316986084,0.04480549693107605,0.08642697334289551,0.89482933900235,0.033443281811623156,-0.38349274968810687,0.2260429637447196
1728406741742790000,3.977789794921875,0.1602100133895874,-0.5586968064308167,-0.050692491233348846,-0.7054332494735718,0.11212965101003647,-0.6998506784439087,0.0909770131111145,-0.024605318903923035,0.10391867160797119,0.8937640614156332,0.03486518366185909,-0.3858225954239433,0.22607818601575053
1728406741752821000,3.987821044921875,0.020701326429843903,-0.4030454456806183,-0.026002591475844383,-0.708648145198822,0.11088138818740845,-0.6967949271202087,0.07163941860198975,-0.04275096207857132,0.022844791412353516,0.8929028011954309,0.03608010477757736,-0.3876864088249196,0.2261021254923258
1728406741762851000,3.99785107421875,0.2850339114665985,-0.5851641297340393,-0.05726011469960213,-0.7119577527046204,0.10993130505084991,-0.6935641765594482,0.020704030990600586,0.0016561448574066162,0.10913735628128052,0.8920055158375304,0.037137071677351946,-0.3896649044422459,0.22607149403239965
1728406741772882000,4.0078818359375,0.49212729930877686,-0.6132529377937317,-0.040395114570856094,-0.7164092063903809,0.1065949872136116,-0.6894892454147339,0.039102017879486084,0.055438004434108734,0.15823930501937866,0.8907488067673024,0.03985321947810745,-0.39200394083451506,0.2265199201640274
1728406741782913000,4.0179130859375,0.27405062317848206,-0.444995254278183,0.005142012145370245,-0.7200537323951721,0.1038728877902031,-0.6860999464988708,-0.0015802383422851562,0.060799889266490936,-0.09583669900894165,0.8896449743632683,0.04218374167817974,-0.39391695883169664,0.2271163928533707
1728406741792943000,4.027943115234375,0.273896723985672,-0.4868069291114807,-0.034552138298749924,-0.7231562733650208,0.10197602957487106,-0.6831148266792297,-0.09643906354904175,0.058271683752536774,-0.002645552158355713,0.8887133381008753,0.043891395570192615,-0.3956211919165201,0.22747741025976864
1728406741802974000,4.037973876953125,0.19881419837474823,-0.47097790241241455,-0.000803761649876833,-0.726590096950531,0.10008548200130463,-0.6797423958778381,-0.10983574390411377,0.006832771003246307,0.01325380802154541,0.8876908891642272,0.04562932156590371,-0.3975509589717456,0.22776318670218207
