time,seconds_elapsed,rotationRateX,rotationRateY,rotationRateZ,gravityX,gravityY,gravityZ,accelerationX,accelerationY,accelerationZ,quaternionW,quaternionX,quaternionY,quaternionZ
1728406958213766000,0.043765869140625,0.051894333213567734,-0.22137536108493805,0.09544554352760315,0.004624612629413605,-0.187534898519516,-0.9822470545768738,0.027617210522294044,0.0012708008289337158,-0.004996597766876221,0.995551880137571,0.09418640472583446,0.0023226377976360464,-3.404820985056071e-17
1728406958223796700,0.053796630859375,0.060266248881816864,-0.21112404763698578,0.09157277643680573,0.002644909778609872,-0.18828406929969788,-0.9821110367774963,0.02782689407467842,-0.0017641931772232056,-0.006719470024108887,0.9955177264826045,0.09456541426647799,0.0013626289242543506,0.0003602418236320178
1728406958233827800,0.063827880859375,0.07530032098293304,-0.21779946982860565,0.0975816622376442,0.0011701850453391671,-0.18932241201400757,-0.9819142818450928,0.01982591114938259,-0.009774342179298401,-0.0065042972564697266,0.9954680996871447,0.0950917081719984,0.0006526671516690739,0.0006795211752000343
1728406958243858000,0.07385791015625,0.09031256288290024,-0.2208826094865799,0.11480805277824402,-0.000347266613971442,-0.19066902995109558,-0.9816543459892273,0.011592993512749672,-0.011174291372299194,-0.005802929401397705,0.9954024516702117,0.09577492506859357,-0.00007194924363165,0.0010651520407259929
1728406958253888800,0.083888671875,0.09920692443847656,-0.23725636303424835,0.12688468396663666,-0.001989801647141576,-0.19186553359031677,-0.9814192056655884,0.015554869547486305,-0.005598515272140503,0.0011793971061706543,0.9953427972121903,0.09638293169887421,-0.0008532100356055348,0.0015113089679894985
1728406958263919900,0.093919921875,0.10927766561508179,-0.2536441385746002,0.1373535841703415,-0.004699159413576126,-0.19286559522151947,-0.9812139272689819,0.024642400443553925,-0.005803897976875305,0.007184445858001709,0.9952902533677858,0.09689358454576161,-0.002160436327450976,0.0020570858074301754
1728406958273950000,0.103949951171875,0.12657801806926727,-0.22646699845790863,0.15084408223628998,-0.00694646080955863,-0.19399231672286987,-0.9809784293174744,0.023868460208177567,-0.008537665009498596,0.01341867446899414,0.9952297064761741,0.09746965228615076,-0.0032312192113751557,0.002641078525044048
1728406958283980800,0.113980712890625,0.14232955873012543,-0.17949309945106506,0.1648067682981491,-0.009247100912034512,-0.19532160460948944,-0.9806956648826599,0.014236723072826862,-0.008871585130691528,0.018201768398284912,0.9951566363225746,0.09815060367755009,-0.004316471618353312,0.0033416523925882493
1728406958294011000,0.124010986328125,0.1301499903202057,-0.1416192650794983,0.14686904847621918,-0.011137047782540321,-0.19662965834140778,-0.9804145693778992,-0.0019397316500544548,-0.019480645656585693,0.01644057035446167,0.9950834118144078,0.09882173620722037,-0.005193716468055258,0.004051161656677973
1728406958304042000,0.1340419921875,0.10785134136676788,-0.07862299680709839,0.13595356047153473,-0.012524369172751904,-0.19778183102607727,-0.9801660776138306,-0.01802372932434082,-0.0315578430891037,0.018709778785705566,0.9950181277046031,0.0994135188395689,-0.005824568990124,0.0046938585614565605
1728406958314072800,0.14407275390625,0.07828392833471298,-0.03142118453979492,0.1356014907360077,-0.013321924954652786,-0.19866006076335907,-0.9799779057502747,-0.033034272491931915,-0.0373782217502594,0.020917236804962158,0.994967545704812,0.09986551616698917,-0.0061581535355645,0.005345184502546617
1728406958324103000,0.15410302734375,0.06437051296234131,-0.010475154966115952,0.12630333006381989,-0.013246683403849602,-0.1993689090013504,-0.9798349738121033,-0.03188881278038025,-0.040011048316955566,0.013297498226165771,0.9949280642041068,0.10022895120467337,-0.006055862456700804,0.005968275381662466
1728406958334133800,0.1641337890625,0.08528964221477509,-0.04857433959841728,0.14827467501163483,-0.013271795585751534,-0.20004862546920776,-0.9796960949897766,-0.017444148659706116,-0.03493678569793701,0.010305225849151611,0.9948891477731427,0.1005780620645716,-0.006001087339433357,0.006616564796849646
1728406958344164900,0.174164794921875,0.1112152487039566,-0.0890868753194809,0.14316326379776,-0.013608788140118122,-0.20098499953746796,-0.9794998168945312,-0.003999854438006878,-0.027088195085525513,0.00444793701171875,0.9948350457513974,0.10105895567599643,-0.006098642030304502,0.007295261181906454
1728406958354195000,0.18419482421875,0.138511523604393,-0.10800544172525406,0.14646664261817932,-0.014275547116994858,-0.20226320624351501,-0.9792271256446838,0.017037387937307358,-0.008857473731040955,-0.0008448362350463867,0.994761524523887,0.10171494317845368,-0.006363782953036433,0.007937154200302212
1728406958364225800,0.194225830078125,0.14876548945903778,-0.11521941423416138,0.16298224031925201,-0.015321404673159122,-0.2037961483001709,-0.9788934588432312,0.03140416368842125,0.006362602114677429,0.002285182476043701,0.9946717841466451,0.10250312628262355,-0.006810607946619587,0.008647373766854174
1728406958374257000,0.2042568359375,0.13798628747463226,-0.09209875017404556,0.14683975279331207,-0.01662871241569519,-0.20552615821361542,-0.978510320186615,0.02990385703742504,-0.001764550805091858,0.004724979400634766,0.9945689064491143,0.10339384001851418,-0.007385441899868739,0.009372174614507997
1728406958384287000,0.214286865234375,0.10956422239542007,-0.06276403367519379,0.12952308356761932,-0.01803482510149479,-0.20737703144550323,-0.9780948162078857,0.011381993070244789,-0.011998653411865234,0.007666409015655518,0.9944580703613851,0.1043471920937125,-0.008015215490438423,0.010030136550389963
1728406958394317800,0.22431787109375,0.08566754311323166,-0.03243504837155342,0.12041321396827698,-0.01942519098520279,-0.2090604603290558,-0.9777097702026367,-0.01917954720556736,-0.018112465739250183,0.006625175476074219,0.9943545205033212,0.10521647134987938,-0.00863774866415531,0.010679041375487225
1728406958404349000,0.234348876953125,0.06391431391239166,-0.0022361339069902897,0.1084553524851799,-0.020320963114500046,-0.21038460731506348,-0.9774074554443359,-0.03218453377485275,-0.023700550198554993,0.003393232822418213,0.9942720786508829,0.10590047733403464,-0.009019363891768769,0.011263212532657595
1728406958414379000,0.24437890625,0.05454491078853607,0.011984506621956825,0.1151241734623909,-0.02070729248225689,-0.21139033138751984,-0.9771823287010193,-0.03109629638493061,-0.027287721633911133,0.0013675689697265625,0.9942087479368074,0.1064197278774439,-0.009147083524742606,0.011835548855228509
1728406958424409900,0.254409912109375,0.03706764802336693,0.013441256247460842,0.11344371736049652,-0.020761707797646523,-0.21215026080608368,-0.9770165085792542,-0.019704604521393776,-0.02266731858253479,0.0034752488136291504,0.9941600117667764,0.10681198609742407,-0.009107992496306606,0.012414823345083826
1728406958434441000,0.26444091796875,0.010699758306145668,-0.002911138813942671,0.09538855403661728,-0.020375706255435944,-0.21233047544956207,-0.9769854545593262,0.003194313496351242,-0.013179227709770203,0.014644205570220947,0.9941458000454915,0.10690548229609932,-0.00885925746987768,0.012912895124359239
1728406958445725000,0.275724853515625,-0.010358121246099472,0.0009035728871822357,0.0764705166220665,-0.019686492159962654,-0.21195288002490997,-0.9770815968513489,0.007448945194482803,-0.015815138816833496,0.025131523609161377,0.9941641852211542,0.10671224955190858,-0.00846788551337327,0.01335158300751534
1728406958464528000,0.29452783203125,-0.07027977705001831,-0.013972045853734016,-0.01574888825416565,-0.01871015876531601,-0.2112175077199936,-0.9772599935531616,0.0056333765387535095,-0.015161946415901184,0.008845686912536621,0.9942056576381254,0.10633311784045427,-0.007954333851249301,0.013606634835010012
1728406958474558700,0.304558837890625,-0.08969755470752716,-0.04121218994259834,-0.033102843910455704,-0.019490927457809448,-0.21086682379245758,-0.9773204326629639,0.009420126676559448,-0.008249461650848389,-0.0029498934745788574,0.9942226670400376,0.10615940525176187,-0.008363590547978448,0.013472123051621442
1728406958484589800,0.31458984375,-0.10798468440771103,-0.03078857623040676,-0.02194047160446644,-0.02062896266579628,-0.21048948168754578,-0.9773784279823303,0.01966766081750393,-0.014318332076072693,-0.011696219444274902,0.9942388998857306,0.10597478648952603,-0.008951064574125842,0.01335209117465084
1728406958494620000,0.324619873046875,-0.1159234344959259,-0.04136340320110321,-0.03705790638923645,-0.021701598539948463,-0.21010909974575043,-0.9774370789527893,0.027667783200740814,-0.014500349760055542,-0.021159112453460693,0.9942553378234672,0.10578798012939819,-0.009506464993864712,0.013224053580540674
1728406958504650800,0.334650634765625,-0.15538880228996277,-0.058415088802576065,-0.06406555324792862,-0.02254524640738964,-0.20939938724040985,-0.9775702357292175,0.02385750040411949,-0.025051981210708618,-0.026778459548950195,0.9942924044470843,0.10543052337823527,-0.009963669357340964,0.012954718474428806
1728406958514681900,0.344681884765625,-0.2148006111383438,-0.08544223010540009,-0.09240318834781647,-0.022940386086702347,-0.20809216797351837,-0.9778401851654053,0.008093586191534996,-0.0323864221572876,-0.026005029678344727,0.9943659430588755,0.10476414070748002,-0.010217211652653085,0.01250948522529651
1728406958524712000,0.3547119140625,-0.2946317791938782,-0.14022132754325867,-0.07387237995862961,-0.023609546944499016,-0.20619995892047882,-0.9782249927520752,0.006412887945771217,-0.02854132652282715,-0.02749699354171753,0.9944690968488944,0.10380143008659488,-0.01061875035723882,0.011991686208386117
1728406958534742800,0.36474267578125,-0.3350023925304413,-0.21286676824092865,-0.017770761623978615,-0.02503448724746704,-0.20391914248466492,-0.9786676168441772,0.03072601743042469,-0.02528318762779236,-0.025406479835510254,0.9945846647384511,0.10264781731844638,-0.011385486118956432,0.011626290311523575
1728406958544774000,0.37477392578125,-0.43620169162750244,-0.28971627354621887,0.02017022855579853,-0.027267657220363617,-0.20062391459941864,-0.9792887568473816,0.06781025975942612,-0.03231683373451233,-0.03453564643859863,0.9947426778665235,0.10098663710450402,-0.012542237016854916,0.011462209040087644
1728406958554804000,0.384803955078125,-0.531941294670105,-0.3794913589954376,0.13052096962928772,-0.030429046601057053,-0.19596879184246063,-0.9801378846168518,0.07828061282634735,-0.03561390936374664,-0.026957392692565918,0.9949544516869527,0.09864614096867778,-0.014141754562422082,0.011598244335069986
1728406958564834800,0.394834716796875,-0.49183860421180725,-0.5046578049659729,0.3430015444755554,-0.03488454967737198,-0.1911095231771469,-0.9809486269950867,0.09030447900295258,-0.034583285450935364,-0.017998456954956055,0.995147441184945,0.09622540039018457,-0.016320452022599574,0.01248131015545088
1728406958574866000,0.404865966796875,-0.3523571789264679,-0.6570724248886108,0.5592440962791443,-0.04104461148381233,-0.18696027994155884,-0.9815096259117126,0.12168730795383453,-0.04913903772830963,-0.05886507034301758,0.9952623059170038,0.0942039516583197,-0.019255940592769576,0.014411229685466789
1728406958584895700,0.414895751953125,-0.15336954593658447,-0.79274982213974,0.6992565989494324,-0.04942572861909866,-0.1841653734445572,-0.981651782989502,0.12091314792633057,-0.05043858289718628,-0.11193037033081055,0.9952537333556954,0.09292320682879633,-0.02322475285749378,0.017200670855878397
1728406958594926800,0.4249267578125,-0.02694195881485939,-0.7672507762908936,0.9072388410568237,-0.05870332568883896,-0.18292325735092163,-0.9813730120658875,0.06396761536598206,-0.046141743659973145,-0.17847800254821777,0.9951155443290637,0.09248607647360406,-0.02756474165410584,0.020776743820917883
1728406958604957700,0.434957763671875,-0.0084066241979599,-0.7443299889564514,1.234338402748108,-0.06801404058933258,-0.18203003704547882,-0.9809378981590271,0.013967417180538177,-0.04357120394706726,-0.23903274536132812,0.9948880287981353,0.0923076908263673,-0.03178588053343624,0.02582265419154399
1728406958614987800,0.44498779296875,0.007830336689949036,-0.6606118679046631,1.1597152948379517,-0.07745606452226639,-0.1811704933643341,-0.9803967475891113,0.10710388422012329,-0.05979636311531067,-0.2277178168296814,0.9945833104767317,0.09222473970740241,-0.03600298654330564,0.03166244749390753
1728406958625019000,0.455018798828125,-0.20473171770572662,-0.17135345935821533,-0.8359039425849915,-0.0810038149356842,-0.1798023134469986,-0.9803619384765625,0.10355629771947861,-0.17951172590255737,-0.2146759033203125,0.9945330421798746,0.09164360127347417,-0.03768935035117149,0.0329385138991831
1728406958635049700,0.4650498046875,-0.4903811812400818,-1.2520992755889893,-1.1132959127426147,-0.08699570596218109,-0.17718319594860077,-0.9803254008293152,-0.1387275755405426,-0.4116840362548828,-0.21967154741287231,0.9947057879534719,0.09017936517825667,-0.04129152003072127,0.026890162318001086
1728406958645079800,0.475079833984375,-0.7020007967948914,-1.6133270263671875,0.1185106486082077,-0.10003682225942612,-0.17176909744739532,-0.9800449013710022,-0.03038005530834198,-0.46104347705841064,-0.0713772177696228,0.9947215380471355,0.0874788013734135,-0.04821832057589774,0.02348692120335735
1728406958655111000,0.48511083984375,-0.6289018392562866,-1.6244322061538696,0.9771912693977356,-0.11746004968881607,-0.16427144408226013,-0.9793967604637146,0.4311807453632355,-0.17345140874385834,-0.0632668137550354,0.9945054928711355,0.08405596142930444,-0.05688770184668226,0.025636414103828845
1728406958665141800,0.495141845703125,-0.33680739998817444,-0.9001070261001587,1.5978074073791504,-0.13221658766269684,-0.1579911857843399,-0.9785487055778503,0.30221474170684814,-0.030607521533966064,-0.11069995164871216,0.9941393184190264,0.08145614009673312,-0.06395737490959366,0.031007494525366247
1728406958675171800,0.505171875,0.06325425207614899,-1.2221829891204834,1.627047061920166,-0.14518950879573822,-0.15427418053150177,-0.9773021340370178,0.01628325879573822,-0.0241011381149292,-0.21187633275985718,0.9935421518321398,0.08038623794572658,-0.06990693718748912,0.03905230368099885
1728406958685203000,0.515202880859375,0.29130101203918457,-1.2184727191925049,1.0907388925552368,-0.15918205678462982,-0.1539895385503769,-0.9751657843589783,0.21792839467525482,-0.012209266424179077,-0.22771507501602173,0.9927318913577036,0.08105962841592446,-0.07646206385676736,0.04545662723410777
1728406958695233800,0.52523388671875,0.3452637791633606,-1.3215361833572388,0.8461611270904541,-0.17288079857826233,-0.155490443110466,-0.9725918769836426,0.02058282494544983,-0.11425450444221497,-0.18847990036010742,0.9918754230945993,0.08254878427877825,-0.0830045779387567,0.049791132667555194
1728406958705263900,0.535263916015625,0.27169767022132874,-1.5395057201385498,0.8839737176895142,-0.18825656175613403,-0.15714076161384583,-0.9694669842720032,0.04773837327957153,-0.19414713978767395,-0.18435680866241455,0.990893017722425,0.08417792938439313,-0.09044654553717257,0.053522672552187886
1728406958715294700,0.545294677734375,0.01890549063682556,-1.6055747270584106,1.2366989850997925,-0.20531782507896423,-0.15638726949691772,-0.9661198854446411,0.22220930457115173,-0.24961866438388824,-0.1513880491256714,0.989787390983559,0.08480082324230362,-0.09873642020192998,0.058146258340627935
1728406958725324500,0.555324462890625,-0.09272810071706772,-1.6533368825912476,1.4061967134475708,-0.22312937676906586,-0.15301065146923065,-0.9627050757408142,0.21263132989406586,-0.20819546282291412,-0.1271386742591858,0.9885583105718635,0.08435093924194072,-0.10738897440264818,0.06407076231798732
1728406958735354600,0.565354736328125,-0.05244598537683487,-1.7054040431976318,1.4211615324020386,-0.24153590202331543,-0.1488703489303589,-0.9589046239852905,0.17677760124206543,-0.15850277245044708,-0.11778604984283447,0.9871704044818909,0.08369408881316247,-0.11637439725900842,0.07033463705565418
1728406958745385700,0.5753857421875,0.08933565020561218,-1.7343206405639648,1.4237303733825684,-0.26014068722724915,-0.1453709900379181,-0.9545648694038391,0.13559845089912415,-0.13418535888195038,-0.11385554075241089,0.9855990228518521,0.08350727971060247,-0.12547548433621783,0.07666197219708151
1728406958755416600,0.58541650390625,0.26975297927856445,-1.7356990575790405,1.4439544677734375,-0.2788427770137787,-0.14313338696956635,-0.9496102333068848,0.12033447623252869,-0.10540182888507843,-0.07832860946655273,0.9838162463864335,0.08411804661201029,-0.1346070209786137,0.08313091966569758
1728406958765446700,0.59544677734375,0.3893669843673706,-1.6926642656326294,1.429921269416809,-0.29719066619873047,-0.1420978456735611,-0.9441853165626526,0.11837288737297058,-0.09278075397014618,-0.029508531093597412,0.9818543526502077,0.0854814001771718,-0.14352794519532125,0.08974808693700305
1728406958775477800,0.605477783203125,0.4423710107803345,-1.6795411109924316,1.3820966482162476,-0.31512072682380676,-0.14164677262306213,-0.9384216070175171,0.10355761647224426,-0.09532226622104645,-0.006051599979400635,0.9797687488996979,0.08724184583003958,-0.15224339434095602,0.09625011598543577
1728406958785508600,0.615508544921875,0.5015293955802917,-1.7247133255004883,1.3408901691436768,-0.33299341797828674,-0.14159604907035828,-0.9322370886802673,0.07499781250953674,-0.08360849320888519,0.007005155086517334,0.9775466801999475,0.08931233442227078,-0.16094960049015275,0.10257218754665186
1728406958795538700,0.62553857421875,0.5141473412513733,-1.7605746984481812,1.272823452949524,-0.35115379095077515,-0.14185656607151031,-0.9255094528198242,0.07480186223983765,-0.08127278089523315,-0.03341388702392578,0.9751714784870448,0.09164946688295715,-0.1698400867793733,0.10860606996073047
1728406958805569500,0.635569580078125,0.46587619185447693,-1.745482325553894,1.230972409248352,-0.3691670894622803,-0.14176905155181885,-0.9184863567352295,0.07018637657165527,-0.06304974853992462,-0.08418393135070801,0.9727144536270379,0.09387871289540654,-0.1787277547043344,0.11432279494871224
1728406958815600600,0.6456005859375,0.4708259403705597,-1.7174100875854492,1.22291100025177,-0.3867987394332886,-0.14134836196899414,-0.9112669229507446,0.059879183769226074,-0.02115781605243683,-0.09843766689300537,0.9701823895396184,0.09601832910919048,-0.18747540464357393,0.11991500732935831
1728406958825630700,0.655630615234375,0.432060182094574,-1.7066963911056519,1.2314419746398926,-0.4041089713573456,-0.14052750170230865,-0.9038517475128174,0.05959600210189819,0.0031525492668151855,-0.10042071342468262,0.9675647737532975,0.09805152541193271,-0.19611228794978447,0.12547633373618478
1728406958835661600,0.66566162109375,0.4406999945640564,-1.7015156745910645,1.2657394409179688,-0.4212645888328552,-0.13918215036392212,-0.8961944580078125,0.05670157074928284,0.03192804753780365,-0.0786285400390625,0.9648333110701818,0.09995080252001201,-0.20472570345120294,0.1311256529521064
1728406958845692700,0.675692626953125,0.47752007842063904,-1.6730097532272339,1.2955814599990845,-0.4381851851940155,-0.13770219683647156,-0.8882746696472168,0.051176518201828,0.04744638502597809,-0.0532841682434082,0.9619670951915281,0.10193249204043672,-0.21324269150529196,0.1369547819042622
1728406958855722800,0.68572265625,0.5191451907157898,-1.5835758447647095,1.259307622909546,-0.4543783962726593,-0.13630683720111847,-0.8803185224533081,0.032808542251586914,0.0402984619140625,-0.03136354684829712,0.9590398098219372,0.10403819060288938,-0.22139734644663564,0.1428352644171135
1728406958865753600,0.695753662109375,0.5532150268554688,-1.4932076930999756,1.2186657190322876,-0.4695853292942047,-0.13520437479019165,-0.8724731206893921,-0.004810452461242676,0.03736494481563568,0.0033325552940368652,0.9561151877656993,0.10630253721527937,-0.22904846549543836,0.14859425448492652
1728406958875784700,0.70578466796875,0.5449989438056946,-1.3778530359268188,1.1567426919937134,-0.48373016715049744,-0.13424332439899445,-0.8648605942726135,-0.040195614099502563,0.03625132143497467,0.021141111850738525,0.9532361953340408,0.10861205545164744,-0.2361633594256732,0.15417835229944657
1728406958885814800,0.715814697265625,0.5127978324890137,-1.2753698825836182,1.1113016605377197,-0.4967001676559448,-0.13319092988967896,-0.8576415777206421,-0.060260921716690063,0.04064631462097168,0.017813146114349365,0.9504663718542765,0.11079003779394346,-0.24270303732308848,0.15948188865214083
1728406958895845600,0.725845703125,0.4873194396495819,-1.1880261898040771,1.160286784172058,-0.508722186088562,-0.1316271871328354,-0.8508090376853943,-0.07987034320831299,0.06218436360359192,0.014978349208831787,0.9477539439908407,0.1127073723025345,-0.24878209995208722,0.16482402313447564
1728406958905876700,0.735876708984375,0.4996136724948883,-1.1276906728744507,1.1902588605880737,-0.5201340913772583,-0.12966907024383545,-0.8441839218139648,-0.0682905912399292,0.05291728675365448,-0.010521888732910156,0.9450229269121451,0.11449610817335122,-0.25455587241719374,0.17036303036977554
1728406958915906600,0.745906494140625,0.5656507611274719,-1.0088202953338623,1.2012150287628174,-0.5307441353797913,-0.12769262492656708,-0.8378575444221497,-0.07379382848739624,0.03321012854576111,0.024045288562774658,0.9422880894831888,0.11633291208637121,-0.259880531689297,0.17613018944751896
1728406958925937700,0.755937744140625,0.6794604063034058,-0.7964856624603271,1.1633622646331787,-0.5398494005203247,-0.1264192759990692,-0.8322144150733948,-0.09816634654998779,0.013809353113174438,0.05589306354522705,0.9396722387224041,0.11846016235966274,-0.26431038285225467,0.1819984828202949
1728406958935967700,0.7659677734375,0.9009736776351929,-0.5768190026283264,1.1702592372894287,-0.5470102429389954,-0.1265038251876831,-0.8275123238563538,-0.14958405494689941,0.02103501558303833,0.15400469303131104,0.9372108355308925,0.12118584958799283,-0.26750295295480897,0.18812793694960384
1728406958945998600,0.77599853515625,1.0401113033294678,-0.35383012890815735,1.1591283082962036,-0.552381694316864,-0.1281081587076187,-0.8236885070800781,-0.18905818462371826,0.030345052480697632,0.2434273362159729,0.9348582274583433,0.12462550844254866,-0.26948880608157527,0.19463924919633857
1728406958956029700,0.78602978515625,1.0696206092834473,-0.124577596783638,1.152531385421753,-0.5558335781097412,-0.13028784096240997,-0.8210201263427734,-0.2194197177886963,0.051750779151916504,0.3026791214942932,0.9327268559226115,0.12818346609412412,-0.2702941386004941,0.2013223232654125
1728406958966059800,0.796059814453125,1.144287109375,0.07272934913635254,1.1530762910842896,-0.5575851202011108,-0.13292641937732697,-0.8194079995155334,-0.24031227827072144,0.09207858145236969,0.3858143091201782,0.9307826050354595,0.1318097128356669,-0.27004110318479757,0.20820156774434923
1728406958976090600,0.806090576171875,1.1195257902145386,0.25039905309677124,1.146536111831665,-0.5578104853630066,-0.1358010470867157,-0.8187829852104187,-0.22673547267913818,0.09895101189613342,0.360912561416626,0.929015653891059,0.1353738498980281,-0.26885391015191396,0.21522433132320815
1728406958986121700,0.816121826171875,1.0442744493484497,0.38117969036102295,1.0872671604156494,-0.5567314624786377,-0.1384284645318985,-0.8190773129463196,-0.1905066967010498,0.09520025551319122,0.31605613231658936,0.9274727556549522,0.13855610781887043,-0.26695235654573946,0.22210998898366552
1728406958996151800,0.82615185546875,0.923922061920166,0.40310966968536377,0.9970235824584961,-0.5549335479736328,-0.14065012335777283,-0.8199184536933899,-0.1296062469482422,0.09787967801094055,0.27199065685272217,0.9261284527131478,0.14127145907581004,-0.2647322179806552,0.2285723105931536
1728406959006182700,0.8361826171875,0.8673692941665649,0.4171850085258484,0.8728840351104736,-0.5529283285140991,-0.14276765286922455,-0.8209066390991211,-0.052418410778045654,0.10083644092082977,0.2055807113647461,0.924936660375023,0.14369760646368593,-0.26248369273387784,0.23440449377318495
1728406959016213800,0.8462138671875,0.6934589743614197,0.4347105026245117,0.7703491449356079,-0.5505867004394531,-0.1447821706533432,-0.8221267461776733,0.006320953369140625,0.09499269723892212,0.18960422277450562,0.9239555336149253,0.14579028664246035,-0.260157313201338,0.23951914702923874
1728406959026243600,0.85624365234375,0.5015428066253662,0.43428945541381836,0.8220219612121582,-0.5481520891189575,-0.14527221024036407,-0.8236657381057739,0.02088463306427002,0.1226281076669693,0.16814815998077393,0.9231306184680476,0.1469548713754256,-0.2580143496592942,0.2442594146052117
1728406959036274700,0.866274658203125,0.3443251848220825,0.43913987278938293,0.8863285183906555,-0.5458123087882996,-0.14405034482479095,-0.825432300567627,0.037618279457092285,0.14578978717327118,0.17401933670043945,0.9223137679294109,0.1472661971962368,-0.2561181784560234,0.24910557840287367
1728406959046305500,0.876305419921875,0.15390704572200775,0.48091262578964233,0.8720877766609192,-0.5432686805725098,-0.14124293625354767,-0.827592670917511,0.048487186431884766,0.1397322565317154,0.1470964550971985,0.9216083997874159,0.14668126306224102,-0.25433890723857333,0.2538393292803768
1728406959056335600,0.886335693359375,0.09473114460706711,0.5236414074897766,0.8517752885818481,-0.5403291583061218,-0.13746260106563568,-0.8301496505737305,0.038620173931121826,0.1633414626121521,0.15685564279556274,0.9210543256990387,0.14544883706497383,-0.2525268534999318,0.2583288777203334
1728406959066366700,0.89636669921875,0.14670513570308685,0.6379064321517944,0.7810183167457581,-0.5365910530090332,-0.13402868807315826,-0.8331304788589478,0.0578465461730957,0.170329287648201,0.18185484409332275,0.920624959946782,0.14421035179757466,-0.25027613635563345,0.26270706078861633
1728406959076397600,0.9063974609375,0.07335448265075684,0.716709554195404,0.6721045970916748,-0.5318745970726013,-0.13110856711864471,-0.8366122245788574,0.08328139781951904,0.12965892255306244,0.18718290328979492,0.9204240685245441,0.14293885219421512,-0.24751238052465271,0.2666940284149876
1728406959086427600,0.916427734375,-0.06699463725090027,0.7496784329414368,0.5766201615333557,-0.5264869928359985,-0.12783408164978027,-0.8405176401138306,0.07444530725479126,0.1082112193107605,0.22133129835128784,0.9204871171128607,0.14120042676809139,-0.24454776494752598,0.27011546976950396
1728406959096458800,0.926458740234375,-0.32263314723968506,0.7506076693534851,0.48957741260528564,-0.520835280418396,-0.12345867604017258,-0.8446824550628662,0.0710519552230835,0.0834348201751709,0.213823139667511,0.9208063395118493,0.13866924050705237,-0.2417221550296299,0.2728677346400277
1728406959106489600,0.936489501953125,-0.6047945022583008,0.7578898668289185,0.4169466197490692,-0.5149620771408081,-0.11712373048067093,-0.8491737842559814,0.0746849775314331,0.062176771461963654,0.15695887804031372,0.9214133742002595,0.1349228916088219,-0.2391838720338709,0.2749261139883008
1728406959116519700,0.946519775390625,-0.7800213098526001,0.6707448363304138,0.3296782970428467,-0.509219229221344,-0.10917850583791733,-0.8536837100982666,0.1016111969947815,0.06369200348854065,0.1049501895904541,0.9222259863638744,0.13021859558742527,-0.23706806379599513,0.276299211540233
1728406959126550800,0.95655078125,-0.8056848645210266,0.520845890045166,0.24339158833026886,-0.5043777823448181,-0.10079803317785263,-0.8575796484947205,0.14633023738861084,0.09043725579977036,0.09518951177597046,0.9230505774199924,0.12531858074226376,-0.2355959328651863,0.2770691845271695
1728406959136581600,0.96658154296875,-0.6681403517723083,0.4346710443496704,0.1368371844291687,-0.5005648732185364,-0.09342409670352936,-0.860643208026886,0.1964113712310791,0.13955135643482208,0.06701838970184326,0.923792109151068,0.12100230172485373,-0.23459930604510112,0.27736196684716186
1728406959146611700,0.97661181640625,-0.5524533987045288,0.4606863856315613,0.05626245588064194,-0.49682343006134033,-0.08773145824670792,-0.8634058237075806,0.21255216002464294,0.18639472126960754,0.022722899913787842,0.9245443035849847,0.11747496700588597,-0.2334453075034932,0.2773458277325605
1728406959156642600,0.986642578125,-0.60749351978302,0.6399751901626587,0.01776752434670925,-0.49215421080589294,-0.08264293521642685,-0.8665762543678284,0.17373377084732056,0.21975836157798767,0.01533418893814087,0.9254604297793292,0.11404969738551585,-0.2317424042287889,0.2771482979349463
1728406959166673700,0.996673583984375,-0.892392635345459,0.8260641098022461,0.03224899619817734,-0.4856909215450287,-0.07610179483890533,-0.8708116412162781,0.1181982159614563,0.22774358093738556,0.06526964902877808,0.926701399910111,0.1095639714747836,-0.2293249438253608,0.2768219875995843
1728406959176703700,1.006703857421875,-1.3963282108306885,0.9006283283233643,0.08868910372257233,-0.4781627058982849,-0.0658845454454422,-0.8757965564727783,0.06782335042953491,0.17434394359588623,0.18728947639465332,0.9282147902348176,0.10302221871152192,-0.22690998400507686,0.27625260662195106
1728406959186734600,1.016734619140625,-1.8756974935531616,0.8413940668106079,0.2247915416955948,-0.4704267382621765,-0.0505957305431366,-0.8809874057769775,0.039045482873916626,0.10073604434728622,0.30084824562072754,0.9298286195901072,0.0939178895906158,-0.2251349270366582,0.27552222920454134
1728406959196765700,1.026765625,-2.0200133323669434,0.6732436418533325,0.2974332869052887,-0.4637964367866516,-0.0318787544965744,-0.8853680491447449,0.055593281984329224,0.026431314647197723,0.31327033042907715,0.9311799380574992,0.08337774405799186,-0.22441950097914015,0.274932902332412
1728406959206795800,1.036795654296875,-1.58430016040802,0.22980248928070068,-0.05169490724802017,-0.4599343240261078,-0.014682553708553314,-0.8878315091133118,0.0936318039894104,-0.04616955295205116,0.22065627574920654,0.9321794577909097,0.07395205722335346,-0.22497850568454622,0.2737830954773936
1728406959216826600,1.04682666015625,-0.6263174414634705,-0.13544665277004242,-0.6469390988349915,-0.45955464243888855,-0.006337473168969154,-0.8881268501281738,0.08052629232406616,0.0029347073286771774,0.0774732232093811,0.933137984816928,0.0690354996071457,-0.2262093333592981,0.27077092504503386
1728406959226857700,1.056857666015625,0.5183544158935547,0.06253354251384735,-0.531318724155426,-0.4600023329257965,-0.008799481205642223,-0.8878741264343262,-0.0037123262882232666,0.24277769029140472,-0.017826557159423828,0.9339589058786356,0.06957891562910515,-0.22632216673818692,0.26768967454913967
1728406959236887800,1.0668876953125,1.299878478050232,0.4626244008541107,0.10044749081134796,-0.45767760276794434,-0.01831047609448433,-0.8889296650886536,0.06627437472343445,0.5004576444625854,-0.25247347354888916,0.934206980397643,0.07394467359329296,-0.22375737058969394,0.26780968874872324
1728406959246918700,1.076918701171875,1.5965114831924438,0.46335384249687195,0.601468026638031,-0.4533311128616333,-0.029656197875738144,-0.890848696231842,0.1801682710647583,0.5430685877799988,-0.4087728261947632,0.9336876069891509,0.0797094261192509,-0.219595228288939,0.27138842859448015
1728406959256949800,1.08694970703125,1.6439443826675415,0.20434942841529846,0.5769264101982117,-0.4505205452442169,-0.04154501482844353,-0.8917988538742065,0.15170761942863464,0.34893324971199036,-0.2973490357398987,0.9325132728862411,0.08626766262397212,-0.21600567842683727,0.27625770591754556
1728406959266979600,1.0969794921875,1.241688847541809,-0.03749782219529152,0.18746867775917053,-0.45012855529785156,-0.05283178761601448,-0.8913995027542114,0.07096287608146667,0.028616026043891907,-0.2131841778755188,0.9313806472143811,0.0925800024271655,-0.21384382304068011,0.27969631225921116
1728406959277010700,1.1070107421875,0.7499319314956665,-0.06797546148300171,-0.1932152807712555,-0.45052412152290344,-0.061745382845401764,-0.8906264901161194,-0.03615501523017883,-0.1732858121395111,-0.10456699132919312,0.9308794666457559,0.09728354062166278,-0.21265624985842574,0.2806715468827147
1728406959287041800,1.117041748046875,0.23132075369358063,-0.11714141070842743,-0.27373701333999634,-0.4511584937572479,-0.0672467052936554,-0.889906644821167,-0.08910948038101196,-0.2648456394672394,-0.06218069791793823,0.9309084543290833,0.09994930366928961,-0.21226588406503816,0.27993334121127106
1728406959297071600,1.127071533203125,-0.026750877499580383,-0.2613821029663086,-0.043646302074193954,-0.4527190625667572,-0.06863145530223846,-0.8890079855918884,-0.07503670454025269,-0.23419451713562012,-0.04756122827529907,0.9309022764103262,0.10072268165463817,-0.21295762374980598,0.2791505931946403
1728406959307102700,1.137102783203125,0.02995527908205986,-0.26666608452796936,0.03183327615261078,-0.45514926314353943,-0.06850989907979965,-0.8877755999565125,0.001383364200592041,-0.14030668139457703,-0.03680014610290527,0.9305996203900965,0.10105404339959191,-0.21424349178823274,0.279055871430224
1728406959317133600,1.147133544921875,0.1809585690498352,-0.11061032861471176,-0.08463820815086365,-0.45688214898109436,-0.0694117322564125,-0.8868149518966675,-0.009014487266540527,-0.03720148652791977,-0.07616722583770752,0.9303696577677099,0.10177541725413256,-0.21502161332089795,0.2789621541457464
1728406959327163600,1.15716357421875,0.5192372798919678,0.09834767878055573,-0.2115679234266281,-0.45685869455337524,-0.07323753833770752,-0.8865192532539368,-0.10910508036613464,0.10004717111587524,-0.07772934436798096,0.930395912120594,0.10359022692439944,-0.21449809710361303,0.27860926027824845
1728406959337194800,1.16719482421875,0.7958731651306152,0.2718789875507355,-0.1652025580406189,-0.45500943064689636,-0.08005622029304504,-0.8868807554244995,-0.15756994485855103,0.21177002787590027,-0.06215488910675049,0.9305268773685026,0.1066378443678328,-0.21257470414516932,0.27849630767669376
1728406959347225600,1.1772255859375,1.0354313850402832,0.38108476996421814,-0.004114869982004166,-0.45201876759529114,-0.08854175359010696,-0.8876031637191772,-0.13286590576171875,0.2928416132926941,-0.01818901300430298,0.9304996960126742,0.11051442449486068,-0.20972594158575464,0.27923470529703265
1728406959357255700,1.187255615234375,1.19687020778656,0.596776008605957,0.20934201776981354,-0.4477002024650574,-0.09806133061647415,-0.888790488243103,-0.07003054022789001,0.3205649256706238,-0.029193520545959473,0.9302429046637473,0.11493607530674338,-0.20589915970029996,0.2811463802442269
1728406959367286800,1.197286865234375,1.2013776302337646,0.7034366726875305,0.3005070984363556,-0.4420667886734009,-0.1076512485742569,-0.8904988169670105,-0.02775135636329651,0.23786969482898712,-0.04246926307678223,0.9298172131933904,0.11937003046002462,-0.20124954829573116,0.2840586935176645
1728406959377317600,1.207317626953125,0.8520803451538086,0.5445843935012817,-0.0156887024641037,-0.43653634190559387,-0.11627285182476044,-0.8921416401863098,-0.011171817779541016,-0.0005637556314468384,0.057867348194122314,0.9295751189536056,0.12317236856434484,-0.1968699038641,0.28628826209752783
1728406959387347700,1.21734765625,0.28173351287841797,0.2877022624015808,-0.5138675570487976,-0.4324999749660492,-0.12259133905172348,-0.8932609558105469,-0.05240911245346069,-0.2448708713054657,0.20086288452148438,0.9300099012777944,0.1255202542542939,-0.1939438006202583,0.28585296855532494
1728406959397378600,1.227378662109375,-0.28776341676712036,0.07645522058010101,-0.7512300610542297,-0.43006226420402527,-0.1253180205821991,-0.8940591812133789,-0.07334047555923462,-0.3091607987880707,0.2667856812477112,0.9311233565925491,0.12584403221002746,-0.19270102425554697,0.28291134808422946
1728406959407409700,1.23740966796875,-0.7223620414733887,-0.03268511965870857,-0.643235981464386,-0.4291035234928131,-0.12373223900794983,-0.8947404623031616,0.004558205604553223,-0.20230235159397125,0.2154497504234314,0.9324706324572924,0.12408977465556667,-0.19295464392364228,0.2790497753321481
1728406959417439700,1.247439697265625,-0.8765695691108704,0.08517126739025116,-0.32282307744026184,-0.42836669087409973,-0.11849036812782288,-0.8958024382591248,0.10361388325691223,-0.021692179143428802,0.15167713165283203,0.9336596007284963,0.1207207743997694,-0.193714416793747,0.2760090126739768
1728406959427470600,1.257470703125,-0.9705477356910706,0.21155716478824615,-0.07827671617269516,-0.4267962574958801,-0.11104752868413925,-0.8975039720535278,0.15901973843574524,0.09574290364980698,0.11262243986129761,0.9346153174032746,0.11639574829286357,-0.19416496170091646,0.2743104938568579
1728406959437501700,1.267501708984375,-1.249223232269287,0.2627579867839813,-0.01839314214885235,-0.4245489239692688,-0.10140127688646317,-0.8997088670730591,0.1388433277606964,0.06787766516208649,0.10416144132614136,0.9355229568391535,0.11099599512370095,-0.19448770522745135,0.27322376871902576
1728406959447531800,1.27753173828125,-1.9330875873565674,0.27533820271492004,-0.0001595430076122284,-0.42208054661750793,-0.08726777136325836,-0.9023482203483582,0.08277082443237305,-0.07894627749919891,0.14897608757019043,0.9366496336454387,0.10326719229697882,-0.19535037438373368,0.271774713763276
1728406959457562600,1.287562744140625,-2.8892600536346436,0.22357282042503357,0.08064529299736023,-0.4198256731033325,-0.06531671434640884,-0.9052513837814331,0.03275594115257263,-0.26691296696662903,0.19356626272201538,0.9380190949409652,0.09158964433497771,-0.1974478077210279,0.2697141988535972
1728406959467593700,1.29759375,-3.8568286895751953,0.07727845013141632,0.07239295542240143,-0.4184826612472534,-0.03421676903963089,-0.9075800180435181,0.04104122519493103,-0.4176570773124695,0.27406561374664307,0.9394681954517713,0.07538471397832822,-0.20131355508342297,0.26681341286105636
1728406959477623800,1.307623779296875,-4.4520583152771,-0.16530080139636993,-0.07410700619220734,-0.41885560750961304,0.00402707839384675,-0.9080439209938049,0.06933775544166565,-0.4535205662250519,0.29259592294692993,0.9407974824475688,0.05564524906864519,-0.2070788367823354,0.2625302048124732
1728406959487654700,1.317654541015625,-4.505906581878662,-0.3055447041988373,-0.2915671467781067,-0.4210987091064453,0.044249050319194794,-0.9059348106384277,0.06845283508300781,-0.35365158319473267,0.2314658761024475,0.9418065633800687,0.03488142944886425,-0.21404644202256382,0.25684185169197216
1728406959497685800,1.327685791015625,-4.2229204177856445,-0.41848137974739075,-0.33142614364624023,-0.4245786666870117,0.08263678103685379,-0.9016119241714478,0.060977011919021606,-0.16723158955574036,0.09509342908859253,0.9423827576758069,0.014964373206226799,-0.22129187550815302,0.25044100049896945
1728406959507715600,1.337715576171875,-3.646144151687622,-0.44611620903015137,-0.117953822016716,-0.42875105142593384,0.11728575825691223,-0.8957771062850952,0.06301307678222656,0.0637291967868805,0.06524121761322021,0.9422970834733434,-0.0029152436258241096,-0.22826070378196078,0.2448772522091987
1728406959517746700,1.34774658203125,-2.96877121925354,-0.49129220843315125,0.06830420345067978,-0.432931512594223,0.14680103957653046,-0.8893929123878479,0.11159664392471313,0.23703372478485107,-0.0008200407028198242,0.9416013037577642,-0.017936599745323804,-0.23448201173008532,0.24100524436527646
1728406959527776800,1.35777685546875,-2.3380234241485596,-0.5881596207618713,0.045532576739788055,-0.43763941526412964,0.1706874519586563,-0.8828009366989136,0.11766260862350464,0.3158237040042877,-0.10416799783706665,0.940556149082611,-0.029892352498105883,-0.2402206757375903,0.2382321532522168
1728406959537807600,1.3678076171875,-1.7863519191741943,-0.637947678565979,0.027956511825323105,-0.4429841637611389,0.18902921676635742,-0.8763749003410339,0.08260205388069153,0.3509029746055603,-0.18697959184646606,0.9394161913534721,-0.038928057964230475,-0.24555480396234344,0.2359756869684552
1728406959547838700,1.377838623046875,-1.3151061534881592,-0.768871009349823,0.08507013320922852,-0.44902074337005615,0.20277804136276245,-0.8702077269554138,0.06105077266693115,0.3345754146575928,-0.2563791871070862,0.9381551449877519,-0.045429400489818354,-0.25066375902452454,0.23445428632477333
1728406959557868800,1.387868896484375,-0.9024150371551514,-0.8819751739501953,0.16580359637737274,-0.4558553993701935,0.21304258704185486,-0.8641809821128845,0.043684929609298706,0.23881585896015167,-0.16206413507461548,0.9366993501534022,-0.04986417989198763,-0.25577934292048937,0.2338482406804577
1728406959567899600,1.397899658203125,-0.6157034635543823,-0.7539621591567993,0.12476587295532227,-0.46280986070632935,0.22018033266067505,-0.858677864074707,0.012904435396194458,0.12405788898468018,-0.09998607635498047,0.9352330603055791,-0.05256398033112752,-0.2605726377151986,0.23383343788804906
1728406959577930800,1.4079306640625,-0.5610969066619873,-0.5661749839782715,0.022188905626535416,-0.4683399796485901,0.22548849880695343,-0.8542907238006592,-0.04629325866699219,0.0339871346950531,-0.08116459846496582,0.9341214672923869,-0.054595471893540304,-0.26433686012531954,0.23358621488032297
1728406959587960800,1.4179609375,-0.5258569121360779,-0.4159490168094635,-0.03122771345078945,-0.4725073575973511,0.23016822338104248,-0.8507405519485474,-0.1405450403690338,0.01940445601940155,-0.005658984184265137,0.9333339099218917,-0.05660479729918779,-0.2672557495958002,0.23293393989234992
1728406959597991700,1.42799169921875,-0.3539555072784424,-0.3070564270019531,-0.009817763231694698,-0.4756384491920471,0.23382486402988434,-0.8479940891265869,-0.16507813334465027,0.08100967109203339,0.004488229751586914,0.932744622390992,-0.05821792704696543,-0.2694691610825215,0.2323455999503527
1728406959608022800,1.438022705078125,-0.003726651193574071,-0.18341146409511566,0.005240016151219606,-0.47768634557724,0.23551630973815918,-0.8463733196258545,-0.1324974000453949,0.14908140897750854,-0.04188656806945801,0.9323579565081912,-0.05886620600015837,-0.27082856766704705,0.2321534335071911
1728406959618052600,1.448052490234375,0.4444673955440521,-0.07930481433868408,0.02347361482679844,-0.4787985682487488,0.2336910516023636,-0.8462508320808411,-0.11131986975669861,0.19465360045433044,-0.06750649213790894,0.9322270173193261,-0.057689752081733096,-0.2711945455100266,0.23254737395179984
1728406959628083700,1.458083740234375,0.8829134702682495,0.01068738754838705,0.05392739176750183,-0.4790261685848236,0.22830809652805328,-0.8475903272628784,-0.09685581922531128,0.20517876744270325,-0.04236328601837158,0.9323207656292564,-0.054639567833447374,-0.2705907543022946,0.23360904522867773
1728406959638114800,1.46811474609375,1.499521017074585,0.08450152724981308,0.0847388356924057,-0.47838783264160156,0.2185986340045929,-0.8505055904388428,-0.08154872059822083,0.19119134545326233,0.021648168563842773,0.93261405159252,-0.049275137081397226,-0.26892225380737295,0.23554997044700254
1728406959648144600,1.47814453125,2.0470902919769287,0.19342908263206482,0.028120029717683792,-0.4771150052547455,0.2035619616508484,-0.8549408316612244,-0.053768813610076904,0.15422606468200684,-0.057046473026275635,0.9331262302870427,-0.04112991991416477,-0.26615394673992315,0.23821391848849974
1728406959658175700,1.48817578125,2.1964879035949707,0.2839217483997345,0.01077805832028389,-0.47500964999198914,0.185262069106102,-0.8602579832077026,-0.05103716254234314,0.15397128462791443,-0.10171711444854736,0.9338151123641766,-0.03143991625927062,-0.2624548181919736,0.24107754035117984
1728406959668206600,1.49820654296875,2.2957990169525146,0.2798527181148529,0.07787613570690155,-0.47242528200149536,0.16605688631534576,-0.8655862212181091,-0.060915201902389526,0.22264544665813446,-0.04177767038345337,0.9344399516031651,-0.021345446366334855,-0.25836266734779545,0.2441622445267816
1728406959678236700,1.508236572265625,2.3525466918945312,0.1732153743505478,0.20492596924304962,-0.4702449142932892,0.14635927975177765,-0.8703153133392334,-0.0336766242980957,0.23643791675567627,-0.0604708194732666,0.9347407210287662,-0.010837347178218729,-0.25441090087126544,0.24782558924301556
1728406959688267800,1.518267822265625,2.1479413509368896,0.10958552360534668,0.2902427315711975,-0.4686844050884247,0.1278209388256073,-0.874069094657898,0.016490161418914795,0.13348576426506042,-0.22497570514678955,0.9346613804277666,-0.0007565591949769148,-0.2509280636048149,0.2518783362987577
1728406959698298600,1.528298583984375,1.9613107442855835,0.1529754400253296,0.1679477095603943,-0.46728959679603577,0.11092598736286163,-0.877117931842804,0.06567823886871338,-0.060343168675899506,-0.28312987089157104,0.9344596125351149,0.008414601108599368,-0.24773014736335908,0.2556253210927411
1728406959708328700,1.53832861328125,1.4847242832183838,0.20594358444213867,-0.16649898886680603,-0.465686172246933,0.09558668732643127,-0.879772424697876,0.0772278904914856,-0.25478169322013855,-0.19157761335372925,0.9345684559099506,0.01634670264258179,-0.24463556635691588,0.257813931698038
1728406959718359800,1.54835986328125,1.1370328664779663,0.27769768238067627,-0.33458730578422546,-0.4638397991657257,0.08311165124177933,-0.8820119500160217,0.0034515857696533203,-0.2688416838645935,0.05487877130508423,0.9350817667349816,0.022322924952402876,-0.24185886162053935,0.2581240416960845
1728406959728390400,1.558390380859375,1.3838740587234497,0.4779050648212433,-0.3045276701450348,-0.4607599079608917,0.07071836292743683,-0.8847029209136963,-0.05347660183906555,-0.0854279026389122,0.2310011386871338,0.9357966382235967,0.027995137562979798,-0.23846344236836944,0.25813993430968507
1728406959738420500,1.56842041015625,1.821311354637146,0.6091805696487427,-0.206290602684021,-0.45603254437446594,0.055356401950120926,-0.8882398009300232,-0.055136919021606445,0.1364007294178009,0.10898876190185547,0.9365302856372217,0.035072555468634616,-0.23377340147744938,0.25890332981692404
1728406959748451600,1.57845166015625,2.371541976928711,0.6326656341552734,-0.06559793651103973,-0.4504828155040741,0.0360742025077343,-0.8920559883117676,-0.03796631097793579,0.32282769680023193,-0.007754802703857422,0.9370196368305573,0.04423147570331501,-0.22806926147274925,0.2608105189680505
1728406959758482400,1.588482421875,2.7799177169799805,0.5169593095779419,0.015407165512442589,-0.4453029930591583,0.012789090164005756,-0.8952885866165161,0.03603172302246094,0.37508925795555115,-0.09262639284133911,0.9370458778508687,0.05565693399105442,-0.22194144801607277,0.26379770962657617
1728406959768512500,1.598512451171875,2.8226404190063477,0.47308534383773804,-0.08663477748632431,-0.4408063292503357,-0.012819099240005016,-0.8975107073783875,0.1082104742527008,0.23999188840389252,-0.08976346254348755,0.9367457197043386,0.06834315666459782,-0.2158097893975633,0.2669508646027153
1728406959778543400,1.60854345703125,2.3584437370300293,0.3827331066131592,-0.26092374324798584,-0.43698805570602417,-0.037006739526987076,-0.8987057209014893,0.10861888527870178,0.0491831973195076,-0.007467985153198242,0.9364575435956446,0.0801792493316756,-0.21028180558308335,0.2690726985933821
1728406959788574500,1.618574462890625,1.8571226596832275,0.4067966341972351,-0.39473772048950195,-0.43320414423942566,-0.05747881531715393,-0.8994611501693726,0.05222266912460327,-0.06092945113778114,0.15205514430999756,0.9364243189280292,0.08988948901594432,-0.2054003508585223,0.26988900584719977
1728406959798604500,1.6286044921875,1.4309332370758057,0.4247837960720062,-0.4378231465816498,-0.42921575903892517,-0.0739254504442215,-0.9001715779304504,0.014054596424102783,-0.08871803432703018,0.15313184261322021,0.936647494458604,0.09737686665423644,-0.20107698709529312,0.2697726603131635
1728406959808635400,1.638635498046875,1.2268904447555542,0.4150867164134979,-0.4484209418296814,-0.4250428080558777,-0.08775666356086731,-0.9009091854095459,-0.012853950262069702,-0.041988879442214966,0.12217694520950317,0.9370060063363598,0.10345291250603038,-0.19708599955877018,0.2692107431401536
1728406959818666500,1.64866650390625,1.0207152366638184,0.4539650082588196,-0.43989109992980957,-0.42070913314819336,-0.09988230466842651,-0.9016802906990051,-0.02092602849006653,0.03173649311065674,0.0612720251083374,0.9374233875664303,0.10863075476955959,-0.19328530244544948,0.26847285190759373
1728406959828696600,1.658696533203125,0.9251415729522705,0.44865068793296814,-0.3777502179145813,-0.416066974401474,-0.11015421152114868,-0.9026374220848083,-0.01984614133834839,0.1196298599243164,0.053821563720703125,0.9379022685798193,0.11283862670091195,-0.18960150273404228,0.2676903705811565
1728406959838727400,1.6687275390625,1.190199613571167,0.37676581740379333,-0.2573401927947998,-0.4121066927909851,-0.12088115513324738,-0.9030812978744507,0.0029727816581726074,0.1685495674610138,0.09413665533065796,0.9380955703260149,0.11749718374120162,-0.1861552090375349,0.2674274433201293
1728406959848758500,1.678758544921875,1.2325856685638428,0.4296215772628784,-0.2625671923160553,-0.4080657660961151,-0.13324786722660065,-0.9031762480735779,0.048309266567230225,0.09098094701766968,0.051247596740722656,0.9380620482382688,0.1230610689483478,-0.18239474894888427,0.2676337294677344
1728406959858788600,1.68878857421875,0.9548044800758362,0.4461403787136078,-0.19179634749889374,-0.40377435088157654,-0.14405518770217896,-0.903445839881897,0.04136282205581665,0.00503230094909668,0.03261154890060425,0.9380839321954848,0.1278051382807729,-0.17872582750746477,0.2678088275343931
1728406959868819500,1.6988193359375,0.7824974656105042,0.36494407057762146,-0.10158603638410568,-0.3998314440250397,-0.15245607495307922,-0.9038207530975342,0.05002370476722717,-0.026773706078529358,0.16128236055374146,0.9380796516522971,0.13144098681945007,-0.1755360004115898,0.26817335480118587
1728406959878850600,1.7088505859375,0.5421096086502075,0.267736554145813,-0.0708819180727005,-0.3968428671360016,-0.15884706377983093,-0.9040372371673584,0.11232742667198181,-0.10000309348106384,0.18486005067825317,0.938019937578399,0.13423438517701894,-0.17309679600748748,0.2685838301590979
1728406959888880400,1.71888037109375,0.22512602806091309,0.20796695351600647,-0.005312227178364992,-0.39464816451072693,-0.16249656677246094,-0.9043493270874023,0.13408905267715454,-0.16898544132709503,0.18427181243896484,0.9380204350944077,0.13576029855587082,-0.1714482030379492,0.26887219447924365
1728406959898911500,1.728911376953125,-0.14254678785800934,0.19803735613822937,0.1259762942790985,-0.39286404848098755,-0.16266416013240814,-0.9050956964492798,0.12821561098098755,-0.22912055253982544,0.21919792890548706,0.9380834309093213,0.1356409402127899,-0.17045143025146633,0.2693461504079023
1728406959908942300,1.7389423828125,-0.80851811170578,0.10001865029335022,0.22423946857452393,-0.39179277420043945,-0.15788200497627258,-0.9064059257507324,0.11740919947624207,-0.3283546268939972,0.2634768486022949,0.9382734965525298,0.13317268063451052,-0.17047604401294564,0.2698994755987649
1728406959918972400,1.748972412109375,-1.9842299222946167,-0.030224038287997246,0.3182642459869385,-0.39184314012527466,-0.14449568092823029,-0.9086142778396606,0.08912399411201477,-0.4656881093978882,0.3488914370536804,0.938824890551054,0.12651305492483925,-0.17230002314789172,0.27002763024058335
1728406959929003500,1.75900341796875,-3.719238758087158,-0.2132873386144638,0.46409282088279724,-0.3935040831565857,-0.11706861853599548,-0.9118385314941406,0.0663556158542633,-0.6402709484100342,0.4664497375488281,0.9398846560576672,0.11298630522462476,-0.17695999547677257,0.26932519419040984
1728406959939034400,1.769034423828125,-5.403799057006836,-0.5202419757843018,0.26274773478507996,-0.3971675932407379,-0.07343968003988266,-0.9148029685020447,0.11161458492279053,-0.7784585952758789,0.48076677322387695,0.9413634072152245,0.09146531038029761,-0.18502054868816367,0.26690146015609273
1728406959949064400,1.779064453125,-6.200937747955322,-0.7880158424377441,-0.7008720636367798,-0.4032820463180542,-0.019982146099209785,-0.9148575067520142,0.15264111757278442,-0.7635109424591064,0.25120705366134644,0.9432526209521709,0.0646426934619642,-0.1959401865563413,0.26019837006028534
1728406959959095600,1.789095458984375,-5.525824069976807,-0.7211025953292847,-1.5807632207870483,-0.4103879928588867,0.029437558725476265,-0.9114357233047485,0.03772258758544922,-0.3359866738319397,-0.1320365071296692,0.9455730111882821,0.03872905139051768,-0.2068385588864754,0.24821254296298695
1728406959969126400,1.79912646484375,-3.9153566360473633,-0.8504656553268433,-0.5006306171417236,-0.41794872283935547,0.06811855733394623,-0.9059131741523743,-0.11813834309577942,0.4660458266735077,-0.35650742053985596,0.9468488539910611,0.01825326144270763,-0.2161254740469477,0.23755810034334174
1728406959979156500,1.809156494140625,-1.5665552616119385,-1.0257232189178467,0.8745197653770447,-0.42624497413635254,0.0942804366350174,-0.8996812701225281,0.06635117530822754,1.1485936641693115,-0.32381415367126465,0.9456668371179886,0.005952809017983943,-0.22388372162276676,0.2357008965390494
1728406959989187600,1.8191875,0.29991579055786133,-0.9792070388793945,0.7130739092826843,-0.43455660343170166,0.10313582420349121,-0.8947198390960693,0.3155227303504944,1.3373396396636963,-0.49250245094299316,0.9434737353795992,0.003504787801754063,-0.22940749421923332,0.2392013682220587
1728406959999218400,1.829218505859375,1.0216877460479736,-0.7112618088722229,0.1983112096786499,-0.44159990549087524,0.09851942956447601,-0.8917866945266724,-0.0012559890747070312,0.9642704129219055,-0.5167368650436401,0.9419713747293754,0.007443984580575444,-0.23248923356589404,0.24204017205435094
1728406960009248500,1.83924853515625,0.7047076225280762,-0.7214337587356567,0.19479210674762726,-0.4477066099643707,0.09099183231592178,-0.8895387649536133,-0.26082003116607666,0.31867608428001404,-0.24858373403549194,0.9408837261115309,0.012490438574276785,-0.23467976683234112,0.24394078623750526
1728406960019279400,1.849279296875,-0.737454891204834,-0.7798593640327454,0.1838611513376236,-0.45424774289131165,0.09162630140781403,-0.8861510157585144,-0.10014986991882324,-0.2703220844268799,0.00809931755065918,0.9397351050810752,0.013327966390540647,-0.23821597412085796,0.24489503799167925
1728406960029310500,1.859310546875,-2.2064318656921387,-0.8138352036476135,-0.05547952279448509,-0.46121904253959656,0.10541485249996185,-0.8810020685195923,0.025382250547409058,-0.5843120217323303,0.24263542890548706,0.9387659876028975,0.00705897496733023,-0.24382191490615782,0.2433503679439691
1728406960039340500,1.869340576171875,-2.702392339706421,-0.9188582301139832,-0.21962185204029083,-0.46902915835380554,0.12685653567314148,-0.8740246295928955,-0.005717575550079346,-0.6396739482879639,0.3674938678741455,0.9378969153164066,-0.0035456052260533556,-0.2509484408557456,0.23950279775963518
1728406960049371400,1.879371337890625,-2.5840675830841064,-0.9133113622665405,-0.14835087954998016,-0.4773331582546234,0.1491820365190506,-0.8659663796424866,-0.03334799408912659,-0.5011870861053467,0.20599323511123657,0.9368262252715345,-0.014720428691191358,-0.2584571972339394,0.23524411848157115
1728406960059402500,1.889402587890625,-2.328584671020508,-0.9785634279251099,0.008035004138946533,-0.4855593144893646,0.17020994424819946,-0.8574734926223755,-0.019399821758270264,-0.19111454486846924,-0.02886378765106201,0.9354304568277624,-0.025137684151324505,-0.2657656071796486,0.23174712229896893
1728406960069432600,1.8994326171875,-1.6208438873291016,-0.8904990553855896,0.15865540504455566,-0.49347224831581116,0.18778684735298157,-0.8492474555969238,-0.05735480785369873,0.14729608595371246,-0.07081174850463867,0.9337565981510534,-0.03354839566673578,-0.2724899600440612,0.2296135652040981
1728406960079463400,1.90946337890625,-1.0707978010177612,-0.7454783916473389,0.16164612770080566,-0.500149667263031,0.1997436136007309,-0.8425869345664978,-0.110110342502594,0.28374630212783813,-0.1776004433631897,0.9321841768769039,-0.03896105317985792,-0.2778283002643548,0.22874894929102613
1728406960089494500,1.91949462890625,-1.0576015710830688,-0.5246378779411316,0.11202318966388702,-0.5052118301391602,0.2091851532459259,-0.8372589349746704,-0.18799495697021484,0.21560418605804443,-0.21343070268630981,0.93092822663976,-0.04328625143087079,-0.2819518081124146,0.22803963202431654
1728406960099524600,1.929524658203125,-1.216933250427246,-0.3662535846233368,0.145330011844635,-0.5086154937744141,0.21934400498867035,-0.8325853943824768,-0.21503257751464844,0.08570964634418488,-0.06394469738006592,0.9298994895670986,-0.04826807751132742,-0.2852673875040338,0.22711163131450782
1728406960109555500,1.939555419921875,-1.6300638914108276,-0.32380253076553345,0.1328728049993515,-0.5114104747772217,0.2321023941040039,-0.8273982405662537,-0.14184880256652832,-0.06781107187271118,0.07898515462875366,0.9288251466409246,-0.054782185233716064,-0.28861703568344804,0.22579444132936297
1728406960119586600,1.949586669921875,-1.3156412839889526,-0.3079262971878052,0.13024532794952393,-0.5134590864181519,0.24512924253940582,-0.8223572373390198,-0.03051680326461792,-0.1674468070268631,0.11689770221710205,0.9278337989732065,-0.06161177808590799,-0.2915910767371365,0.22428371935285094
1728406960129616400,1.959616455078125,-1.152176022529602,-0.49528074264526367,0.24022270739078522,-0.5164370536804199,0.2561469078063965,-0.8171178102493286,0.03796720504760742,-0.19386056065559387,0.11631214618682861,0.9266174013653777,-0.06710713339311201,-0.2948520287520822,0.22347077571784288
1728406960139647500,1.9696474609375,-0.9462900161743164,-0.4958118498325348,0.31332647800445557,-0.5197709798812866,0.26627686619758606,-0.8117480278015137,0.10456401109695435,-0.11574897170066833,0.10943174362182617,0.9251861301133907,-0.07188750355880827,-0.29825858046027076,0.22339376659472499
1728406960149677600,1.979677490234375,-0.5959138870239258,-0.39758700132369995,0.2753143906593323,-0.5226330757141113,0.2742290496826172,-0.8072503805160522,0.11290401220321655,0.01329222321510315,0.044707655906677246,0.9238797063583212,-0.0754775169611053,-0.3011278224721833,0.22376671711824186
1728406960159708400,1.98970849609375,-0.1691652089357376,-0.22582463920116425,0.2631022036075592,-0.524487316608429,0.27872806787490845,-0.8045021891593933,0.013012707233428955,0.08414116501808167,0.01078575849533081,0.922950271255145,-0.07730033361998553,-0.3029415264967446,0.22453067382406858
1728406960169739500,1.999739501953125,0.14648541808128357,0.018590690568089485,0.29715603590011597,-0.5245262980461121,0.28019979596138,-0.8039653301239014,-0.07036811113357544,0.11478915810585022,-0.021016359329223633,0.9224810915820042,-0.07761304266724568,-0.30330440852604906,0.22585671210017602
1728406960179769600,2.00976953125,0.3724362552165985,0.20833325386047363,0.3245253562927246,-0.5227139592170715,0.27975890040397644,-0.8052981495857239,-0.10515469312667847,0.13428828120231628,-0.001662909984588623,0.9223998589383492,-0.07702338964599463,-0.30235464211807983,0.22765677238024798
1728406960189800400,2.019800537109375,0.6178146004676819,0.3258276581764221,0.32606518268585205,-0.519598662853241,0.2774919271469116,-0.8080937266349792,-0.09627658128738403,0.1399579644203186,0.05166971683502197,0.9226240540898148,-0.07555628333387747,-0.30040705286456,0.22980792727967284
1728406960199831600,2.02983154296875,0.964913010597229,0.41783130168914795,0.3271480202674866,-0.5156710147857666,0.2728573977947235,-0.8121774792671204,-0.060500919818878174,0.12408468127250671,0.07780247926712036,0.9230941716609719,-0.07287235966897285,-0.29765899909565924,0.23234859717803732
1728406960209861600,2.039861572265625,1.3492002487182617,0.5080887079238892,0.33543604612350464,-0.5109885931015015,0.26514172554016113,-0.8176738619804382,-0.02729576826095581,0.12397259473800659,0.09141653776168823,0.923801059595192,-0.06856826720214083,-0.2940432854009715,0.23543276726848494
1728406960219892500,2.049892578125,1.8568202257156372,0.6223339438438416,0.2953338921070099,-0.5055015683174133,0.25368446111679077,-0.8246892690658569,-0.014746904373168945,0.17493486404418945,0.13894402980804443,0.9247703062544629,-0.06234495630878538,-0.2894278485064193,0.23904908993783636
1728406960229923600,2.059923583984375,2.474159002304077,0.6930654048919678,0.27288612723350525,-0.49934157729148865,0.23715564608573914,-0.8333157896995544,-0.03343433141708374,0.2702142894268036,0.19003576040267944,0.925998054097998,-0.05352343901018591,-0.283685287329801,0.24328093100767445
1728406960239953400,2.069953369140625,2.8895909786224365,0.7369998693466187,0.23999659717082977,-0.492703378200531,0.21573811769485474,-0.8430305123329163,-0.05075368285179138,0.3646756410598755,0.12972790002822876,0.9273426819815775,-0.04222728988163274,-0.2769505255339237,0.2480944495100578
1728406960249984500,2.079984619140625,2.962312936782837,0.6223454475402832,0.22878974676132202,-0.48637866973876953,0.19175519049167633,-0.8524469137191772,-0.028727561235427856,0.3780384361743927,-0.014023423194885254,0.9285264150632497,-0.029660682390152456,-0.2699940484342918,0.25310509413249804
1728406960260015400,2.090015380859375,2.540635824203491,0.3742404282093048,0.2816969156265259,-0.48166465759277344,0.16918836534023285,-0.8598688840866089,0.04108235239982605,0.21247968077659607,-0.10231983661651611,0.9291951703812891,-0.017727319820109458,-0.26410473523856354,0.257935718707486
1728406960270045400,2.10004541015625,2.033430814743042,0.19802595674991608,0.13364246487617493,-0.47881487011909485,0.15051670372486115,-0.8649168014526367,0.14867565035820007,-0.11044719815254211,-0.12902545928955078,0.9294055139801177,-0.007734110716972342,-0.25977257238315504,0.262037781718087
1728406960280076500,2.11007666015625,1.0805808305740356,0.06868959963321686,-0.26802611351013184,-0.47784820199012756,0.13636061549186707,-0.8677942752838135,0.2039681375026703,-0.45272117853164673,-0.10379385948181152,0.9296987494271944,-0.00040037555684932345,-0.257104456773967,0.263737467662191
1728406960290107400,2.120107421875,0.41219237446784973,0.17110757529735565,-0.2896600365638733,-0.4773215353488922,0.128891259431839,-0.869224488735199,0.056117892265319824,-0.5192722082138062,0.056114137172698975,0.9302316726722936,0.003070114399745247,-0.2556918637171707,0.26321348689738877
1728406960300137500,2.130137451171875,0.5021589994430542,0.2988235652446747,-0.2039978951215744,-0.4755628705024719,0.12411125004291534,-0.870882511138916,-0.025871485471725464,-0.2686883211135864,0.1260095238685608,0.9308372568239212,0.005012366021065676,-0.25403468418009073,0.2626465004561228
1728406960310168600,2.14016845703125,1.2375179529190063,0.524185061454773,-0.19805371761322021,-0.472295880317688,0.1159520372748375,-0.8737801313400269,-0.0420321524143219,0.07572880387306213,0.01133817434310913,0.9315838509440626,0.008581794303703302,-0.2510702607850699,0.2627578418869592
1728406960320199400,2.150199462890625,2.0865731239318848,0.5806769728660583,-0.13973048329353333,-0.467376172542572,0.10032498836517334,-0.8783475160598755,-0.08419853448867798,0.3674636483192444,-0.11918050050735474,0.9324287720380963,0.015912643786656962,-0.24611587062313442,0.26410283862890466
1728406960330229500,2.1602294921875,2.4977643489837646,0.407536119222641,-0.05822870507836342,-0.4630996584892273,0.0793922170996666,-0.882743239402771,-0.03390967845916748,0.4940788149833679,-0.1650625467300415,0.932921881684184,0.026214216514386372,-0.24070979616927796,0.2665114905736923
1728406960340260600,2.170260498046875,2.580275297164917,0.23424740135669708,0.044966921210289,-0.4602811336517334,0.05676617473363876,-0.8859564661979675,0.08119174838066101,0.44123485684394836,-0.0706322193145752,0.9328961525597649,0.03771772199068611,-0.2357946689407422,0.2695981472954888
1728406960350291500,2.18029150390625,2.4530885219573975,0.18053410947322845,-0.01749325916171074,-0.4584948718547821,0.03431989252567291,-0.8880341053009033,0.1738726794719696,0.1856507509946823,-0.056179702281951904,0.9325376891531617,0.04928304634458434,-0.23141764492497666,0.27274603114642854
1728406960360321500,2.190321533203125,1.822407841682434,0.21540102362632751,-0.21337515115737915,-0.45681232213974,0.01445298083126545,-0.8894456624984741,0.1558021903038025,-0.14769278466701508,-0.04135572910308838,0.9323232665946372,0.059298566293804894,-0.22751010947610906,0.27476547518862493
1728406960370352400,2.200352294921875,1.131845474243164,0.3770999014377594,-0.3650863766670227,-0.4542977809906006,0.0002456370566505939,-0.8908498287200928,0.03797692060470581,-0.32972872257232666,0.08762723207473755,0.9325942288213653,0.06598028380152769,-0.22410194179187637,0.27512323151772944
1728406960380383500,2.210383544921875,0.9187158942222595,0.5378349423408508,-0.45098182559013367,-0.4501151442527771,-0.010582005605101585,-0.8929077982902527,-0.03616723418235779,-0.29875949025154114,0.18068861961364746,0.9333355860966195,0.07048608145940352,-0.22040372271931535,0.27447887170053475
1728406960390413600,2.22041357421875,1.0051101446151733,0.6134693026542664,-0.4134427011013031,-0.4448355734348297,-0.02102614752948284,-0.8953654170036316,-0.061481595039367676,-0.11755423992872238,0.07747906446456909,0.9342342039966478,0.07459071031008266,-0.2162256078221217,0.27365916399107737
1728406960400444400,2.2304443359375,1.2917430400848389,0.5196841955184937,-0.27351224422454834,-0.4395895004272461,-0.03279454633593559,-0.8975998759269714,-0.046662360429763794,0.14784575998783112,0.01721358299255371,0.9348785557217636,0.07951437879063337,-0.2118431316168488,0.2734996131570429
1728406960410475500,2.2404755859375,1.6399953365325928,0.3839404881000519,-0.19487310945987701,-0.4353908598423004,-0.047034263610839844,-0.89901202917099,0.02317461371421814,0.31500905752182007,-0.04662090539932251,0.935058781205027,0.08601968498138315,-0.20759241903064793,0.2741734545306001
1728406960420505600,2.250505615234375,1.618324875831604,0.23198126256465912,-0.18838484585285187,-0.4325288236141205,-0.062902070581913,-0.8994232416152954,0.0917237401008606,0.2691245377063751,-0.1387695074081421,0.9348848060128866,0.09361378371901648,-0.2037764558715658,0.275140064538314
1728406960430536400,2.260536376953125,1.1670303344726562,0.13573914766311646,-0.2052687555551529,-0.4308066964149475,-0.07634095847606659,-0.8992094397544861,0.08716347813606262,0.08555721491575241,-0.09769296646118164,0.9346478887195336,0.10011899178638944,-0.20092648996539184,0.2757502183975312
1728406960440567600,2.270567626953125,0.8351436257362366,0.2732788622379303,-0.3902018368244171,-0.4288073480129242,-0.08658280223608017,-0.8992372751235962,0.05055719614028931,-0.10447254776954651,0.021765410900115967,0.9347259293846014,0.10481689136448115,-0.198481185206019,0.27551057944754664
1728406960450597600,2.28059765625,-0.17436490952968597,0.41893672943115234,-0.5325941443443298,-0.4255963861942291,-0.09053020924329758,-0.9003732800483704,-0.021119922399520874,-0.1997530609369278,0.05509740114212036,0.935545634438751,0.10587589090330063,-0.19647815661605697,0.27375370837627405
1728406960460628500,2.29062841796875,0.8149763941764832,0.37513017654418945,-0.4538777470588684,-0.4216594398021698,-0.09520809352397919,-0.9017420411109924,-0.08899122476577759,-0.012335918843746185,0.2430964708328247,0.9364725257169236,0.10715357738097091,-0.1940285605027416,0.271827692142627
1728406960470659600,2.30065966796875,0.8434663414955139,0.3404185473918915,-0.40903836488723755,-0.41767770051956177,-0.10531224310398102,-0.9024714231491089,-0.04235956072807312,0.07720549404621124,0.05660051107406616,0.9369240880134546,0.11134759166049261,-0.19069870423771437,0.2709411067434144
1728406960480689400,2.310689453125,0.7095159888267517,0.044562049210071564,-0.30801907181739807,-0.41558390855789185,-0.11336532980203629,-0.902462363243103,0.09665992856025696,0.12085733562707901,-0.1118655800819397,0.9371968426920965,0.11482390177035028,-0.18863797038706354,0.2699877050972577
1728406960490720500,2.320720458984375,0.8964414000511169,-0.24940380454063416,-0.19890007376670837,-0.4161818325519562,-0.12192671746015549,-0.9010696411132812,0.1720258891582489,0.1799253225326538,0.13323217630386353,0.9369470342568526,0.11910491833556545,-0.18782753987926343,0.2695645210265794
1728406960500751600,2.330751708984375,0.46025797724723816,-0.39667022228240967,-0.17728957533836365,-0.4189949631690979,-0.12907427549362183,-0.8987675309181213,0.2033272087574005,-0.04309071600437164,-0.022008776664733887,0.9364524514802754,0.12305013706388516,-0.18834780569265616,0.26914817614634595
1728406960510781400,2.340781494140625,0.015331928618252277,-0.39038702845573425,-0.20529644191265106,-0.4222520589828491,-0.1318543404340744,-0.896837592124939,0.10685285925865173,-0.24810482561588287,-0.006726861000061035,0.9361947120328379,0.12479222123845189,-0.18975804699778717,0.2682502855935342
1728406960520812500,2.3508125,-0.7936350107192993,-0.4582093358039856,-0.2349158674478531,-0.42576470971107483,-0.1297859400510788,-0.8954775333404541,0.0029436051845550537,-0.4589592218399048,0.03695708513259888,0.9362990011611393,0.12399684398867601,-0.19205731660261502,0.2666138941573308
1728406960530843400,2.360843505859375,-1.98091721534729,-0.4061192572116852,-0.28665387630462646,-0.42941126227378845,-0.11825328320264816,-0.8953335285186768,-0.056977927684783936,-0.634310245513916,0.04497647285461426,0.9370599770289866,0.118229824058334,-0.1958441915123448,0.2637902915545055
1728406960540873500,2.37087353515625,-2.6917319297790527,-0.32655972242355347,-0.45355525612831116,-0.4322323799133301,-0.09855105727910995,-0.8963608741760254,-0.08095124363899231,-0.5974176526069641,0.16493088006973267,0.9385288116720762,0.10792274487120597,-0.2004301310115354,0.25950727874004725
1728406960550904600,2.380904541015625,-3.155503273010254,-0.4277345538139343,-0.5690416097640991,-0.43508556485176086,-0.07457717508077621,-0.8972952961921692,-0.12387442588806152,-0.46462273597717285,0.1846182942390442,0.9403118797313146,0.09518321801983393,-0.2056514425847001,0.25389233042550857
1728406960560935400,2.390935302734375,-3.5784554481506348,-0.4269370436668396,-0.43959468603134155,-0.43874675035476685,-0.0462329126894474,-0.8974206447601318,-0.10655662417411804,-0.27052435278892517,0.16695189476013184,0.9419972985542251,0.08022756199264194,-0.21178577856815542,0.24769222469257213
1728406960570965500,2.400965576171875,-3.2929863929748535,-0.43778061866760254,-0.2984221279621124,-0.44248339533805847,-0.016597570851445198,-0.8966230750083923,0.001885831356048584,-0.043537385761737823,0.20140212774276733,0.9432357734086787,0.06473902283804593,-0.21793880066665938,0.24211097975500767
1728406960580996600,2.41099658203125,-2.9329514503479004,-0.4013838469982147,-0.23178371787071228,-0.44629088044166565,0.010013003833591938,-0.8948319554328918,0.08276546001434326,0.07542089372873306,0.15397202968597412,0.9439852880199616,0.05090124099489852,-0.22359136584999745,0.23729236732340345
1728406960591026400,2.4210263671875,-2.6962521076202393,-0.2234274297952652,-0.1588035225868225,-0.44922736287117004,0.03452980890870094,-0.8927499651908875,0.03933045268058777,0.11958389729261398,0.11124056577682495,0.9444754346399516,0.038096741933718675,-0.2284155559882356,0.23311171230804312
1728406960601057500,2.4310576171875,-2.233004093170166,-0.08810433000326157,-0.2845395803451538,-0.4507070779800415,0.05561891570687294,-0.8909375071525574,-0.033866316080093384,0.09879996627569199,0.17359131574630737,0.9449421963594904,0.026846654924857296,-0.23197090742789236,0.22924424234912186
1728406960611088600,2.441088623046875,-1.9339991807937622,0.030751217156648636,-0.44085463881492615,-0.45110851526260376,0.07241618633270264,-0.8895263075828552,-0.07333612442016602,-0.04984850436449051,0.11941522359848022,0.9455764012733052,0.01749005298544719,-0.23437352950056697,0.22505217903416125
1728406960621118500,2.451118408203125,-1.909446120262146,0.019261114299297333,-0.32957205176353455,-0.45122477412223816,0.08763229101896286,-0.8880972862243652,-0.05172020196914673,-0.12133901566267014,0.061986446380615234,0.9461735456621455,0.008880819912481073,-0.23637361028482803,0.2209169764903071
1728406960631149600,2.461149658203125,-1.8622081279754639,-0.056239232420921326,-0.283626914024353,-0.4516729712486267,0.10325072705745697,-0.8861889243125916,0.015576779842376709,-0.07689885050058365,0.16647762060165405,0.9465166510057601,0.00021241820075581955,-0.23854872417683728,0.2172571730369853
1728406960641180400,2.471180419921875,-1.724652886390686,0.046369004994630814,-0.300849050283432,-0.4521280527114868,0.11761508136987686,-0.884164571762085,0.05652865767478943,-0.04000895470380783,0.12153029441833496,0.9467846861790197,-0.007813619921756627,-0.24053414105541693,0.21373151136563107
1728406960651210500,2.48121044921875,-1.9231727123260498,0.19920781254768372,-0.24209707975387573,-0.45137134194374084,0.13251125812530518,-0.8824424743652344,0.004685521125793457,-0.05202120542526245,-0.027698516845703125,0.947118226546993,-0.016266596644817114,-0.24189702165174198,0.21021028455244134
1728406960661241600,2.49124169921875,-1.868082046508789,0.16747555136680603,-0.24491655826568604,-0.44987085461616516,0.14836114645004272,-0.880684494972229,-0.05467629432678223,-0.0627441555261612,0.046242356300354004,0.947414854531192,-0.025281566528123873,-0.24293740620096893,0.2067546539604512
1728406960671272400,2.5012724609375,-1.9658374786376953,-0.008660850115120411,-0.3101291060447693,-0.44972631335258484,0.16404271125793457,-0.8779727816581726,-0.050533145666122437,-0.12354594469070435,0.04519385099411011,0.9474849998777103,-0.03412123817756485,-0.24464125601291353,0.20312188444646428
1728406960681302500,2.511302490234375,-2.3015341758728027,-0.14254440367221832,-0.31332650780677795,-0.4508695900440216,0.18140453100204468,-0.8739616870880127,0.0037107467651367188,-0.12958575785160065,-0.1268928050994873,0.9473075585477374,-0.043830168922848106,-0.24718025048199418,0.1989706548406828
1728406960691333600,2.521333740234375,-2.1264655590057373,-0.3028365969657898,-0.20937001705169678,-0.45340967178344727,0.19984768331050873,-0.8686084151268005,0.0008644461631774902,-0.028079569339752197,-0.017713546752929688,0.9467194457461886,-0.05393471082703482,-0.2505729974942098,0.19500427339922033
1728406960701364500,2.531364501953125,-2.0448358058929443,-0.27149417996406555,-0.2098725587129593,-0.4564381539821625,0.21683712303638458,-0.8629286289215088,-0.021985918283462524,-0.016611367464065552,-0.06807106733322144,0.9459290142605998,-0.06317598925433195,-0.2540560382825791,0.19152688544199165
1728406960711394600,2.54139453125,-2.174410343170166,-0.1363627314567566,-0.25037524104118347,-0.4586900770664215,0.233988419175148,-0.8572355508804321,-0.10553416609764099,-0.055369094014167786,-0.1668580174446106,0.945174383740025,-0.07270204329370578,-0.25709264213209854,0.18778484018313302
1728406960721425400,2.55142529296875,-2.1245508193969727,-0.10764937847852707,-0.18746019899845123,-0.46021392941474915,0.2515637278556824,-0.8514216542243958,-0.19087862968444824,0.0075457096099853516,-0.06468552350997925,0.9443887734943992,-0.08259263166596353,-0.2597453167034652,0.18395829612896095
1728406960731457800,2.561457763671875,-1.8088499307632446,-0.11429236829280853,-0.10945087671279907,-0.46160978078842163,0.2676742374897003,-0.8457345366477966,-0.17005831003189087,0.07645717263221741,-0.06230074167251587,0.9435007046464163,-0.09162253579943139,-0.26217941403054906,0.1807586391798201
1728406960741487600,2.571487548828125,-1.6736477613449097,-0.17599093914031982,-0.13508807122707367,-0.46306613087654114,0.2818012833595276,-0.8403319716453552,-0.08690643310546875,0.07966408133506775,-0.15634161233901978,0.9425956204771699,-0.09954976054882274,-0.2644312008374326,0.1779876179564792
1728406960751518700,2.581518798828125,-1.5597853660583496,-0.23226459324359894,-0.21571233868598938,-0.46542829275131226,0.29458630084991455,-0.8346229195594788,-0.026331990957260132,0.08833295106887817,-0.18937915563583374,0.9416269882189621,-0.10678330180663435,-0.26699413277533707,0.17507170759168544
1728406960761549800,2.5915498046875,-1.483945369720459,-0.2694345712661743,-0.23426924645900726,-0.4682040810585022,0.3063066601753235,-0.8288311958312988,0.004672527313232422,0.10142338275909424,-0.16057920455932617,0.9406378906058284,-0.11348720648680143,-0.2696387234212882,0.17209310314249526
1728406960771579600,2.60157958984375,-1.31209397315979,-0.26663804054260254,-0.23159995675086975,-0.4711868166923523,0.31680402159690857,-0.8231756687164307,0.006282001733779907,0.08192333579063416,-0.12373900413513184,0.9396492564519662,-0.11953547866449118,-0.2722561940440793,0.1692544922359119
1728406960781610800,2.61161083984375,-1.161606788635254,-0.21572445333003998,-0.23883390426635742,-0.47397395968437195,0.32591673731803894,-0.8180018067359924,-0.01709967851638794,0.036281079053878784,-0.06651967763900757,0.9387436938868716,-0.12485149461393195,-0.2746110033956519,0.16661685129549633
1728406960791641600,2.6216416015625,-1.0083975791931152,-0.055855683982372284,-0.28341811895370483,-0.47600075602531433,0.3335532546043396,-0.8137355446815491,-0.06689172983169556,0.010715484619140625,-0.011459827423095703,0.9380718977292684,-0.12948038548739596,-0.2763459265781675,0.16397821496492998
1728406960801671700,2.631671630859375,-0.7999598383903503,0.15356290340423584,-0.35174793004989624,-0.4766353666782379,0.33955541253089905,-0.8108766078948975,-0.12259256839752197,0.026563942432403564,-0.02802109718322754,0.9377910850772487,-0.13341454728286617,-0.2770600320083037,0.16120235051818463
1728406960811702800,2.641702880859375,-0.5332722067832947,0.23554883897304535,-0.3839029371738434,-0.4762934148311615,0.34309104084968567,-0.8095881938934326,-0.1341191828250885,0.07202422618865967,-0.025098025798797607,0.9379291147367093,-0.13614236560177848,-0.27689554923597043,0.15837609003913236
1728406960821733600,2.651733642578125,-0.29921674728393555,0.27696332335472107,-0.31103697419166565,-0.47538354992866516,0.34488481283187866,-0.8093608617782593,-0.09709572792053223,0.11911961436271667,-0.006358742713928223,0.9382736551103471,-0.13786977018394744,-0.2762453710369922,0.15595858509578472
1728406960831763700,2.661763671875,0.07762213796377182,0.3191390037536621,-0.281867116689682,-0.4739927649497986,0.3444479703903198,-0.810361921787262,-0.028982728719711304,0.1591225266456604,0.07090574502944946,0.9388232205163881,-0.13823980437074232,-0.2751523095557785,0.15424639442581597
1728406960841794800,2.671794921875,0.3902354836463928,0.39853423833847046,-0.3284628391265869,-0.47216305136680603,0.3411022424697876,-0.812841534614563,0.005091488361358643,0.14693483710289001,0.03072178363800049,0.9397034871958146,-0.13699030433744722,-0.2735194694858013,0.15289899094180434
1728406960851825700,2.68182568359375,0.7601813077926636,0.5293045043945312,-0.35499298572540283,-0.46956613659858704,0.33487483859062195,-0.8169249892234802,-0.014869898557662964,0.13294431567192078,0.045761048793792725,0.9409799368910442,-0.1342199352767142,-0.27115034270193666,0.1517208177033287
1728406960861855700,2.691855712890625,1.374704122543335,0.6641766428947449,-0.3321622312068939,-0.4657963216304779,0.3245730996131897,-0.8232169151306152,-0.03466147184371948,0.14805257320404053,0.09399938583374023,0.9427469414008371,-0.12922212209023407,-0.2677558147026076,0.1511182207413008
1728406960871886800,2.701886962890625,1.9793564081192017,0.7713167071342468,-0.294423907995224,-0.4608133137226105,0.3090904951095581,-0.8319339752197266,-0.033418893814086914,0.18302065134048462,0.09165382385253906,0.9450053387705604,-0.12135249141129366,-0.2632614153177913,0.15143313810031028
1728406960881917700,2.711917724609375,2.1300196647644043,0.7564710974693298,-0.2670631408691406,-0.45513346791267395,0.29027414321899414,-0.8417805433273315,-0.018468856811523438,0.25609728693962097,0.03814589977264404,0.9474538982436775,-0.11166654367591805,-0.2581478359209323,0.15238619685219396
1728406960891947800,2.72194775390625,1.6767922639846802,0.5386418700218201,-0.15862135589122772,-0.45017945766448975,0.2730041444301605,-0.8501807451248169,-0.0005347132682800293,0.2826445698738098,0.0649939775466919,0.9494948001819387,-0.10276357902713947,-0.2536716155397807,0.1534605715949023
1728406960901978600,2.731978515625,1.2643414735794067,0.4015742242336273,-0.1263451725244522,-0.44660693407058716,0.25981518626213074,-0.8561765551567078,0.05669906735420227,0.10282513499259949,0.055730998516082764,0.9509047943932313,-0.09592926058197958,-0.2504182513618904,0.15449353739166963
1728406960912009700,2.742009765625,0.4950298070907593,0.2767723798751831,-0.2719084918498993,-0.44411569833755493,0.2511409819126129,-0.8600519895553589,0.12642768025398254,-0.2479519546031952,-0.06432545185089111,0.9519156976492792,-0.09162734504013498,-0.24815001407337364,0.1545394908144109
1728406960922039800,2.752039794921875,-0.23212987184524536,0.1212397888302803,-0.32669663429260254,-0.44326308369636536,0.2489764541387558,-0.8611205220222473,0.08671095967292786,-0.44688302278518677,-0.0045868754386901855,0.9524315660894638,-0.09095440136395072,-0.24731971065358468,0.15308275515678896
1728406960932070700,2.762070556640625,-0.29289335012435913,0.12611842155456543,-0.2674002945423126,-0.44303280115127563,0.25025662779808044,-0.8608679175376892,0.045373499393463135,-0.3524753451347351,0.1356481909751892,0.952659947933121,-0.09211075055962745,-0.24714702914789094,0.15123829138528444
1728406960942101800,2.772101806640625,0.19194066524505615,0.19469615817070007,-0.27231088280677795,-0.442318856716156,0.24982134997844696,-0.8613613247871399,0.027630716562271118,-0.10071252286434174,0.07292443513870239,0.9530161889606122,-0.09231057140975439,-0.24657270559791222,0.1498024808942408
1728406960952131800,2.7821318359375,1.0668002367019653,0.20537729561328888,-0.3093615770339966,-0.44125789403915405,0.24317508935928345,-0.8638039827346802,-0.001430124044418335,0.18738208711147308,-0.047145724296569824,0.9537715480180327,-0.08914854927788433,-0.24525608291825757,0.14906947056453224
1728406960962162700,2.79216259765625,1.872894287109375,0.15144014358520508,-0.27305737137794495,-0.4403786361217499,0.22892889380455017,-0.8681349158287048,-0.00433880090713501,0.38139209151268005,-0.11060959100723267,0.9548519553259679,-0.08178928878315103,-0.24339896459295865,0.1494163627927268
1728406960972193800,2.80219384765625,2.0189919471740723,0.04611371457576752,-0.20863871276378632,-0.4400221109390259,0.210458904504776,-0.8729762434959412,0.04349198937416077,0.4281060993671417,-0.09908485412597656,0.955925733676834,-0.0720221689758,-0.24150502163897625,0.15064534567617185
1728406960982224000,2.812223876953125,1.7023274898529053,-0.03593816980719566,-0.1278218924999237,-0.4403474032878876,0.19341015815734863,-0.8767477869987488,0.07943123579025269,0.3503519892692566,0.03354710340499878,0.9566814580728429,-0.06290409475864979,-0.24014409537561301,0.1520999339321628
1728406960992254700,2.822254638671875,1.360446810722351,-0.09350186586380005,-0.13501963019371033,-0.4411218762397766,0.17933186888694763,-0.8793472051620483,0.08640080690383911,0.1488846093416214,0.13110202550888062,0.9571549916302869,-0.05533075634544616,-0.2393008432099938,0.15338776845130445
1728406961002285800,2.832285888671875,0.8372246623039246,-0.15135493874549866,-0.20915749669075012,-0.44256162643432617,0.1688038557767868,-0.880706787109375,0.06730222702026367,-0.10465599596500397,0.048553526401519775,0.9574261649291829,-0.04971658404921898,-0.2391126649644486,0.15391058175352026
1728406961012315600,2.842315673828125,0.3834817111492157,-0.15844640135765076,-0.21141958236694336,-0.4442596435546875,0.16258969902992249,-0.8810209631919861,0.028457671403884888,-0.23081180453300476,-0.01512765884399414,0.9575538003357537,-0.04648446168013109,-0.2394341494616361,0.15362668133595792
1728406961022346800,2.8523466796875,0.2764328420162201,-0.16831225156784058,-0.1908477395772934,-0.4460674226284027,0.15906086564064026,-0.8807516694068909,0.011268198490142822,-0.19908472895622253,-0.01850980520248413,0.9575702949720596,-0.04467659923758367,-0.24005865503703186,0.15308529463888948
1728406961032376800,2.862376953125,0.534839391708374,-0.12005017697811127,-0.24996857345104218,-0.44767868518829346,0.15469340980052948,-0.88071209192276,0.01551923155784607,-0.08865344524383545,-0.03856891393661499,0.9576454196670751,-0.04245639522912231,-0.24050242302814517,0.15254952814843398
1728406961042407700,2.87240771484375,1.0413713455200195,-0.05186057463288307,-0.3045889437198639,-0.44888216257095337,0.14656996726989746,-0.881488561630249,0.0020590126514434814,0.029119670391082764,-0.09736275672912598,0.957908816278013,-0.03831825391138786,-0.2403901781147901,0.15216758841687994
1728406961052438800,2.882438720703125,1.6075263023376465,0.07768463343381882,-0.3456261157989502,-0.44923868775367737,0.13338351249694824,-0.8833987712860107,-0.002665609121322632,0.1216060221195221,-0.13541525602340698,0.9583999768872482,-0.031567786610567736,-0.23938270038076026,0.1522131389213675
1728406961062468900,2.89246875,1.7472854852676392,0.06902223080396652,-0.3033721446990967,-0.448943555355072,0.11670754104852676,-0.8859057426452637,0.0033411383628845215,0.16181105375289917,-0.08288997411727905,0.9589836835168677,-0.02300630988038037,-0.23773478357246455,0.15265370889937968
1728406961072499700,2.902499755859375,1.6813695430755615,0.015485232695937157,-0.2254890650510788,-0.44887110590934753,0.10030147433280945,-0.887949526309967,0.002871960401535034,0.19573423266410828,0.09241729974746704,0.9593930311151495,-0.014491690342101411,-0.23625247161162663,0.1534270149354889
1728406961082530800,2.91253076171875,1.7024537324905396,0.04795342683792114,-0.2175712287425995,-0.4488544464111328,0.0843096673488617,-0.8896188139915466,0.010683029890060425,0.23391231894493103,0.19972318410873413,0.9596767173126578,-0.00614955259507522,-0.2348462996508155,0.1543701266841432
1728406961092561000,2.922560791015625,1.6346871852874756,0.12651801109313965,-0.2082938402891159,-0.44826677441596985,0.0683816522359848,-0.891280472278595,-0.03160691261291504,0.20162254571914673,0.07052546739578247,0.9599598566161219,0.0020998004630333683,-0.2331423465949767,0.15529803589205893
1728406961102591700,2.932591796875,1.4419077634811401,0.10570237040519714,-0.15475870668888092,-0.44722703099250793,0.05370469391345978,-0.8928067088127136,-0.06522417068481445,0.10510873049497604,-0.04513579607009888,0.9602031031290107,0.009673946172487308,-0.2313072871104996,0.1562479939429164
1728406961112622800,2.942622802734375,1.1770004034042358,0.11717313528060913,-0.2174878716468811,-0.4463694989681244,0.04123099148273468,-0.8938983678817749,-0.0436360239982605,-0.02411070093512535,-0.0517956018447876,0.9603807052401083,0.01607182904917165,-0.22976624037896246,0.15690107492490127
1728406961122652700,2.952652587890625,0.9930339455604553,0.1652149111032486,-0.2757894992828369,-0.44520264863967896,0.030437152832746506,-0.8949123620986938,-0.028445422649383545,-0.11060690134763718,-0.04394561052322388,0.9606382335053183,0.021442256636216125,-0.2282192804558746,0.15694041388751556
1728406961132683800,2.962683837890625,1.127102017402649,0.3066897392272949,-0.26585617661476135,-0.44327956438064575,0.02000289410352707,-0.8961601853370667,-0.05253952741622925,-0.07829153537750244,-0.03396981954574585,0.9609805976564808,0.02652628770498416,-0.2263100959151097,0.15683213096177218
1728406961142714600,2.972714599609375,1.3768001794815063,0.38644397258758545,-0.3200344741344452,-0.4399900436401367,0.00723596615716815,-0.8979734778404236,-0.06065088510513306,0.04920623078942299,-0.01511240005493164,0.9614354843485026,0.0327153659407192,-0.22347919826452123,0.15693495029592947
1728406961152744700,2.98274462890625,1.4074718952178955,0.3492039144039154,-0.31736597418785095,-0.4367268681526184,-0.006622849963605404,-0.8995697498321533,-0.07885235548019409,0.1952214241027832,-0.020153701305389404,0.9618483672315247,0.039437108185311834,-0.22058972547090655,0.15694789567871067
1728406961162775800,2.99277587890625,1.7171021699905396,0.3590686619281769,-0.23557978868484497,-0.43354400992393494,-0.021798402070999146,-0.9008687138557434,-0.05031222105026245,0.31607934832572937,0.05597430467605591,0.9621105356325473,0.046934541672121056,-0.21762993887850007,0.1574094837029294
1728406961172806700,3.002806640625,1.8291045427322388,0.29659274220466614,-0.2315022200345993,-0.4304567873477936,-0.0389949306845665,-0.9017684459686279,0.01744711399078369,0.27124887704849243,0.00793910026550293,0.9621948626486467,0.055564403499263,-0.21454223607568124,0.15831995667513313
1728406961182836700,3.012836669921875,1.588692545890808,0.20591488480567932,-0.2067984789609909,-0.4281800091266632,-0.05555763468146324,-0.9019840359687805,0.03764653205871582,0.14930757880210876,-0.001290440559387207,0.9621121663394634,0.06393436882945046,-0.21194426425303026,0.15916079205305603
1728406961192867800,3.022867919921875,1.4129934310913086,0.2909453511238098,-0.12574170529842377,-0.42581790685653687,-0.06979270279407501,-0.902113139629364,0.03307187557220459,0.04185379296541214,0.11257761716842651,0.9620001140501602,0.07112513493716797,-0.2094866171899752,0.16003902912127813
1728406961202898700,3.032898681640625,1.3029098510742188,0.3714926540851593,-0.21901439130306244,-0.4227142035961151,-0.0826372280716896,-0.902487576007843,0.012985169887542725,-0.05798783153295517,0.12305337190628052,0.9619684366598795,0.07751542126824454,-0.2067548562809872,0.16081254306157222
1728406961212928800,3.0429287109375,1.2663699388504028,0.37682217359542847,-0.3924735188484192,-0.41901224851608276,-0.09545394778251648,-0.9029492139816284,-0.047677814960479736,-0.05611167103052139,0.10764586925506592,0.9620953429387021,0.08365992568842648,-0.20378031103100955,0.16077044432818502
1728406961222959900,3.0529599609375,1.5039693117141724,0.28368237614631653,-0.3172141909599304,-0.41561993956565857,-0.10939737409353256,-0.9029353857040405,-0.08764544129371643,0.07715548574924469,0.06101644039154053,0.9621368140833529,0.09036696264883329,-0.2009132320326958,0.1605005937967331
1728406961232990700,3.06299072265625,1.6856427192687988,0.0657937303185463,-0.11402086168527603,-0.4137234091758728,-0.12485993653535843,-0.9017998576164246,0.0017513632774353027,0.18435388803482056,-0.04159003496170044,0.961730440949904,0.09820160460448712,-0.19863667264018914,0.16116613242823594
1728406961243020800,3.073020751953125,1.6177698373794556,-0.10021281987428665,-0.020368941128253937,-0.4138893485069275,-0.1400926560163498,-0.8994830250740051,0.1107429563999176,0.15103314816951752,-0.07604187726974487,0.9609001649786351,0.10628151058739387,-0.19738982180631826,0.162518970394219
1728406961253051600,3.0830517578125,1.271935224533081,-0.14398187398910522,-0.01108862366527319,-0.4150545001029968,-0.15337681770324707,-0.89677494764328,0.11329668760299683,-0.012394726276397705,-0.01118403673171997,0.9599703587725886,0.11347725426563111,-0.19681320434745592,0.16384261004261294
1728406961263082800,3.093082763671875,0.6330994367599487,-0.07161462306976318,0.018320396542549133,-0.41606980562210083,-0.1619778424501419,-0.89478999376297,0.05349045991897583,-0.23616981506347656,0.06323176622390747,0.9593003408113447,0.11818040090320847,-0.1965665294985037,0.16473597415946206
1728406961273112800,3.10311279296875,0.1375170797109604,0.05623868107795715,0.039578814059495926,-0.41619837284088135,-0.16507168114185333,-0.8941645622253418,0.00228843092918396,-0.37014567852020264,0.1441950798034668,0.9590492882726709,0.11988805865713581,-0.19632771599825743,0.1652477512121656
1728406961283143700,3.113143798828125,-0.08288032561540604,0.09712507575750351,0.04314425587654114,-0.415500283241272,-0.16510923206806183,-0.8944822549819946,-0.020321279764175415,-0.41449594497680664,0.16442549228668213,0.9590885928280135,0.11988477808385112,-0.19592478982781297,0.16549977245154204
1728406961293174800,3.1231748046875,-0.5848843455314636,0.00048481766134500504,0.1428239792585373,-0.41504591703414917,-0.16218174993991852,-0.8952284455299377,-0.010720103979110718,-0.43274325132369995,0.13708025217056274,0.9592505607473175,0.11837156597816069,-0.19589269872992066,0.16568824336971494
1728406961303204900,3.133204833984375,-1.831161379814148,-0.279781311750412,0.2892046272754669,-0.4167248010635376,-0.1502930074930191,-0.8965224027633667,0.04886588454246521,-0.40683597326278687,0.19947046041488647,0.9596273303571136,0.11240367696386906,-0.1977478185513858,0.16545889848917186
1728406961313235700,3.143235595703125,-2.4177134037017822,-0.38748860359191895,0.30156409740448,-0.42018765211105347,-0.12955544888973236,-0.8981412649154663,0.11098352074623108,-0.3108742833137512,0.3297055959701538,0.9601973152966471,0.10197338813363481,-0.20132261662082512,0.1645957414883155
1728406961323266800,3.153266845703125,-2.6532251834869385,-0.38484489917755127,0.21655945479869843,-0.4240936040878296,-0.10535553842782974,-0.8994691967964172,0.0698150098323822,-0.24812963604927063,0.17684346437454224,0.9608051675387494,0.0896977939690795,-0.20547434547223473,0.163058488572829
1728406961333297000,3.163296875,-2.5777227878570557,-0.2914947271347046,0.15898430347442627,-0.4272887408733368,-0.08081534504890442,-0.9004961252212524,-0.027179062366485596,-0.15417006611824036,-0.08763253688812256,0.9614098242251937,0.07709269884651436,-0.20930519963605884,0.16105669580334542
1728406961343327700,3.17332763671875,-2.1834092140197754,-0.21158744394779205,0.2102956920862198,-0.42972928285598755,-0.05831274390220642,-0.9010729193687439,-0.09761449694633484,0.07582976669073105,-0.0970960259437561,0.9618554685164378,0.0655084767167512,-0.21253748225837682,0.15928161929401097
1728406961353358800,3.18335888671875,-1.5788346529006958,-0.17884786427021027,0.37315574288368225,-0.431532621383667,-0.04005178064107895,-0.9012078046798706,-0.1180432140827179,0.3185703754425049,-0.026953816413879395,0.9620059999899885,0.056260867142097326,-0.21501353809968712,0.15858258061901537
1728406961363388700,3.193388671875,-1.0324444770812988,-0.24309289455413818,0.5061489343643188,-0.43355780839920044,-0.026420598849654198,-0.9007383584976196,-0.04108208417892456,0.4057082533836365,-0.07585465908050537,0.9617681338398911,0.04970131251896403,-0.2171649207386938,0.1592837333979906
1728406961373419800,3.203419677734375,-1.0302643775939941,-0.39639589190483093,0.534308671951294,-0.43643710017204285,-0.015255747362971306,-0.899605393409729,0.07930511236190796,0.2604339122772217,-0.06615382432937622,0.9612453517039105,0.044630543810982234,-0.21955729222931034,0.16065523765120238
1728406961383450600,3.21345068359375,-1.5887377262115479,-0.5332762002944946,0.48700881004333496,-0.44109952449798584,-0.0011834457982331514,-0.8974574208259583,0.11909326910972595,-0.020362038165330887,0.10186421871185303,0.9605295718298869,0.0381638675258905,-0.2231923277698729,0.1615906819730461
1728406961393480700,3.223480712890625,-1.8730764389038086,-0.4595966637134552,0.3209037184715271,-0.4453473389148712,0.016244107857346535,-0.8952105045318604,0.12416508793830872,-0.24930691719055176,0.13025695085525513,0.9599593886966614,0.029722905089210227,-0.22696099150663063,0.16150279914410387
1728406961403511800,3.23351171875,-2.0345609188079834,-0.4097007215023041,0.2761077582836151,-0.44921088218688965,0.03516693040728569,-0.8927333950996399,0.07492801547050476,-0.29662635922431946,-0.05938452482223511,0.9594720499057454,0.020279889148491156,-0.23069901622016742,0.16056181364114894
1728406961413542700,3.243542724609375,-1.9642419815063477,-0.32624897360801697,0.36096006631851196,-0.45233356952667236,0.05462101101875305,-0.8901746273040771,-0.0028208494186401367,-0.11049875617027283,0.007713139057159424,0.9589453189162401,0.010511842058525093,-0.23409864990407891,0.1597223516294032
1728406961423572700,3.25357275390625,-1.6186953783035278,-0.32107385993003845,0.429922878742218,-0.45495232939720154,0.07257508486509323,-0.8875535130500793,-0.0019111037254333496,0.1501268744468689,0.10262614488601685,0.9583019957738537,0.0015932219243570645,-0.23710904876222708,0.15948075585626528
1728406961433603800,3.263603759765625,-0.9710411429405212,-0.2812635898590088,0.46153831481933594,-0.4573341906070709,0.08627745509147644,-0.8850997686386108,0.005567222833633423,0.3317369818687439,0.11341708898544312,0.9575621746185852,-0.004990416029255483,-0.23963556288007046,0.160076797231189
1728406961443634000,3.273634033203125,-0.3655106723308563,-0.24641600251197815,0.4241541922092438,-0.45928382873535156,0.09409354627132416,-0.883292019367218,-0.008138686418533325,0.3731457591056824,0.08348733186721802,0.9568595955964062,-0.008433969630082694,-0.24141845376168736,0.16144850681237635
1728406961453664800,3.283664794921875,-0.20234175026416779,-0.08460259437561035,0.38171806931495667,-0.4604175090789795,0.09824865311384201,-0.8822487592697144,-0.06970331072807312,0.2899196147918701,0.08259671926498413,0.9563093926041921,-0.010024666140728122,-0.24243580055705097,0.16308501358498256
1728406961463696000,3.29369580078125,-0.3557184338569641,-0.011333066038787365,0.2756456732749939,-0.46041977405548096,0.10212868452072144,-0.8818068504333496,-0.09362685680389404,0.1424848735332489,0.06498867273330688,0.955976776637464,-0.011670405066632384,-0.2428175555414835,0.16435264329142252
1728406961473725700,3.3037255859375,-0.579865574836731,-0.06853137165307999,0.14559872448444366,-0.4605116844177246,0.10722275823354721,-0.88115394115448,-0.06175091862678528,-0.05692987143993378,0.07736670970916748,0.9557327148606297,-0.014137030976458282,-0.24335811647568886,0.16477838426706978
1728406961483756800,3.3137568359375,-0.7989335656166077,-0.14813804626464844,0.20418693125247955,-0.46127572655677795,0.11421224474906921,-0.8798751831054688,0.007998108863830566,-0.21337918937206268,0.07509613037109375,0.9554046330519381,-0.017622316365362396,-0.24444196791618053,0.16474126021701369
1728406961493787600,3.32378759765625,-0.7663359045982361,-0.15790413320064545,0.2255452275276184,-0.4624328911304474,0.1222691461443901,-0.8781834244728088,0.04411318898200989,-0.20665031671524048,0.09209638833999634,0.9549438638097234,-0.021579465443623682,-0.24585081551571408,0.16484547318564424
1728406961503817700,3.333817626953125,-0.8351319432258606,-0.1385606825351715,0.22133849561214447,-0.46341827511787415,0.13010969758033752,-0.8765357732772827,0.0065548717975616455,-0.1023540198802948,0.048380255699157715,0.9544973219301973,-0.025449238467041772,-0.24715267076180517,0.1649329512141614
1728406961513848800,3.343848876953125,-0.9576717019081116,-0.04152841120958328,0.28684747219085693,-0.46392735838890076,0.1392863690853119,-0.8748546838760376,-0.08509916067123413,0.010234430432319641,0.028480172157287598,0.9540390880030167,-0.03003965408122178,-0.2483350048676109,0.16503586409819382
1728406961523879700,3.353879638671875,-0.9161345958709717,0.06430938839912415,0.3245013654232025,-0.46339574456214905,0.14898644387722015,-0.8735373020172119,-0.12234342098236084,0.09791596233844757,0.10377717018127441,0.9536413030529968,-0.034940436226630574,-0.24901909347452564,0.16533905557572548
1728406961533909800,3.36390966796875,-0.9722141027450562,0.11737234145402908,0.3095807433128357,-0.46201062202453613,0.15864530205726624,-0.8725696802139282,-0.11902883648872375,0.035446420311927795,0.06661570072174072,0.9533246089367481,-0.039883356068650844,-0.24924779879242176,0.16570202991948607
1728406961543940900,3.37394091796875,-1.140821933746338,0.10752418637275696,0.24884919822216034,-0.46061715483665466,0.16921263933181763,-0.8713202476501465,-0.07508844137191772,-0.0748676061630249,0.11202764511108398,0.9530019224557954,-0.045394718307255104,-0.24955800823672553,0.16567315626747117
1728406961553971700,3.3839716796875,-1.1013126373291016,0.08463431894779205,0.22915540635585785,-0.4592999517917633,0.180242657661438,-0.8698023557662964,-0.026341527700424194,-0.12553995847702026,0.2203882932662964,0.9526540278020146,-0.051207898831047115,-0.2499531562761486,0.16538264917890338
1728406961564001800,3.394001708984375,-1.015640139579773,-0.10813097655773163,0.14615505933761597,-0.45894792675971985,0.19028900563716888,-0.8678461313247681,0.04219985008239746,-0.14338354766368866,0.19629156589508057,0.9522129968106545,-0.05647419691275792,-0.25077398858766303,0.16496541472346113
1728406961574033000,3.404032958984375,-1.0052469968795776,-0.3923752009868622,0.13547684252262115,-0.460810124874115,0.19951078295707703,-0.8647829294204712,0.11869281530380249,-0.0902884304523468,0.01999533176422119,0.9515019525585912,-0.06116864020208055,-0.2527190961277188,0.16442488465515084
1728406961584063700,3.414063720703125,-0.9920995831489563,-0.6277967691421509,0.20145373046398163,-0.46494626998901367,0.20908114314079285,-0.8602964878082275,0.17216059565544128,0.020945027470588684,-0.13926100730895996,0.9503760061726403,-0.06579650528910211,-0.2559737784596659,0.1641150620332505
1728406961594093800,3.42409375,-0.9805307984352112,-0.7350524067878723,0.22557425498962402,-0.4703329801559448,0.21852509677410126,-0.8550050854682922,0.15562042593955994,0.09646201133728027,-0.21712321043014526,0.9489828161284224,-0.07018162510079108,-0.25994615940476906,0.16411627141803717
1728406961604124700,3.434124755859375,-1.3995468616485596,-0.7864943146705627,0.3211897313594818,-0.47641268372535706,0.22962120175361633,-0.848707914352417,0.06941497325897217,0.0838858038187027,-0.3026745319366455,0.9473089572798806,-0.07534878399514967,-0.2645158101117577,0.16419442351620483
1728406961614155800,3.44415576171875,-1.929397463798523,-0.6238439083099365,0.28874310851097107,-0.48166343569755554,0.24558968842029572,-0.8412407636642456,-0.050151169300079346,0.06015060842037201,-0.1484595537185669,0.9454221496800904,-0.08327978445165143,-0.2691543977937213,0.16369893852936365
1728406961624185900,3.454185791015625,-1.6568671464920044,-0.373860239982605,0.1128343865275383,-0.4853225648403168,0.26195043325424194,-0.8341726064682007,-0.18064728379249573,0.053799599409103394,0.07938140630722046,0.9437734914997731,-0.09181211195480452,-0.27291797202009793,0.1624128169093479
1728406961634216700,3.464216796875,-1.3289636373519897,-0.28334203362464905,-0.014356855303049088,-0.48787930607795715,0.2744423449039459,-0.8286466002464294,-0.20865392684936523,-0.04067772626876831,-0.03378015756607056,0.9425993720271996,-0.098586040667135,-0.2756038631819733,0.16071628800151166
1728406961644247800,3.474247802734375,-1.2113333940505981,-0.2857644259929657,0.006258409004658461,-0.49025246500968933,0.28488874435424805,-0.8237056136131287,-0.10767847299575806,-0.08547168970108032,-0.07251936197280884,0.9415713485237663,-0.10433130625994042,-0.2779607486825801,0.15904764656713086
1728406961654278000,3.48427783203125,-1.1489133834838867,-0.48104071617126465,0.044077157974243164,-0.4931991398334503,0.29475823044776917,-0.8184571862220764,0.04466700553894043,-0.05501219630241394,0.08846145868301392,0.9404032207528007,-0.10966023839722797,-0.28061723978772884,0.15770332170745463
1728406961664308700,3.494308837890625,-1.2027441263198853,-0.6818424463272095,0.12750041484832764,-0.49782198667526245,0.3047000765800476,-0.8119920492172241,0.11810702085494995,-0.03963974118232727,0.1135515570640564,0.9388338496670545,-0.11479255311167925,-0.2843002743649368,0.15680216658989984
1728406961674339800,3.50433984375,-1.222352385520935,-0.5491861701011658,0.14932875335216522,-0.5024718642234802,0.31539595127105713,-0.80501389503479,0.11288446187973022,-0.010891616344451904,-0.07378554344177246,0.9370979178970237,-0.12029919241109227,-0.2881339196694048,0.15605887925151463
1728406961684370000,3.514369873046875,-1.0165343284606934,-0.43363434076309204,0.20112377405166626,-0.5058368444442749,0.32541269063949585,-0.7988964915275574,-0.014289498329162598,0.04658123850822449,-0.08712029457092285,0.935552914607663,-0.1255042413452012,-0.29120514001807274,0.155527757550823
1728406961694400800,3.52440087890625,-0.6471176743507385,-0.3139015734195709,0.20839951932430267,-0.5081641674041748,0.33308592438697815,-0.7942436337471008,-0.1508018970489502,0.05322074890136719,0.01067429780960083,0.9343031756166794,-0.1293874753401467,-0.29349118365780175,0.15556118714265188
1728406961704431900,3.534431884765625,-0.4844150245189667,-0.11366849392652512,0.1414407342672348,-0.509272038936615,0.3384173810482025,-0.7912746667861938,-0.1995139718055725,0.01406058669090271,-0.0023502111434936523,0.9334833054840189,-0.1320888458822689,-0.29481383635040204,0.15571167210241343
1728406961714461700,3.544461669921875,-0.3502649664878845,0.01502370648086071,0.14668449759483337,-0.5091100931167603,0.34256893396377563,-0.7895907163619995,-0.22373902797698975,0.021505743265151978,-0.02748692035675049,0.9330257145295914,-0.13429384790969692,-0.29524533837187533,0.15575130450828992
1728406961724493000,3.5544931640625,-0.17199015617370605,0.022857768461108208,0.1969367414712906,-0.5083174109458923,0.34535717964172363,-0.7888864874839783,-0.19694381952285767,0.0772043764591217,0.0012888312339782715,0.9327645592939281,-0.13569653062181483,-0.2952002943897636,0.15618439846306092
1728406961734524000,3.56452392578125,-0.31883928179740906,0.05947490036487579,0.21282702684402466,-0.5073708891868591,0.3483453392982483,-0.7881816029548645,-0.11392122507095337,0.09412896633148193,-0.039745032787323,0.9324757427725257,-0.1371662806323543,-0.2951179363667728,0.15677949634569116
1728406961744554000,3.574553955078125,-0.43466711044311523,0.11707215011119843,0.21238307654857635,-0.5058614015579224,0.3524714410305023,-0.7873170375823975,-0.05721849203109741,0.0662449300289154,-0.07134079933166504,0.9321838056548611,-0.139359056541002,-0.29482286943599484,0.15713661787884814
1728406961754585000,3.584585205078125,-0.3938451111316681,0.05540851876139641,0.20844772458076477,-0.5044108033180237,0.35683393478393555,-0.786281943321228,-0.04981893301010132,-0.026755869388580322,-0.03349649906158447,0.9318534764342213,-0.14168992469322791,-0.2945895513045927,0.15744861653425707
1728406961764616000,3.594615966796875,-0.4176354706287384,0.04256611689925194,0.19767017662525177,-0.503402829170227,0.3611026108264923,-0.7849780321121216,-0.037612855434417725,-0.10547217726707458,-0.021235346794128418,0.9314485136306017,-0.14393707873825773,-0.2946066851526845,0.15777419617217053
1728406961774646000,3.60464599609375,-0.20024242997169495,0.1992446780204773,0.1457771509885788,-0.5018615126609802,0.3645874857902527,-0.7843538522720337,-0.052993834018707275,-0.042917072772979736,-0.04068881273269653,0.9312401728586925,-0.14583271081298033,-0.2942038319437744,0.1580144804693415
1728406961784677000,3.614677001953125,0.24762427806854248,0.2792113125324249,0.13307787477970123,-0.4993951618671417,0.36513277888298035,-0.7856732606887817,-0.10119077563285828,0.10164874792098999,-0.037065327167510986,0.9315147022317111,-0.14615269916366389,-0.2929210848268678,0.15848296801184464
1728406961794708000,3.6247080078125,0.719428300857544,0.3375934064388275,0.13386270403862,-0.4965384304523468,0.3620319664478302,-0.7889121770858765,-0.10273528099060059,0.20988264679908752,-0.037168145179748535,0.9321898967687637,-0.14434797704652977,-0.29104565387665043,0.15961846341748495
1728406961804738000,3.634738037109375,1.410364031791687,0.4760221540927887,0.06826025992631912,-0.4929133951663971,0.3542596399784088,-0.7946926951408386,-0.04323470592498779,0.2806585133075714,-0.028763115406036377,0.933443693746565,-0.13994423501654887,-0.2882173917819546,0.1613357127746645
1728406961814769200,3.64476904296875,2.2253262996673584,0.5070767402648926,0.0038756788708269596,-0.488777756690979,0.33976539969444275,-0.8035270571708679,-0.014502912759780884,0.3158283829689026,-0.03886491060256958,0.935384287815126,-0.1318335963225137,-0.2843525408850543,0.16376721748486395
1728406961824800000,3.654800048828125,2.562150001525879,0.4010877311229706,0.0051308260299265385,-0.4849799871444702,0.31991854310035706,-0.8139082193374634,0.021021217107772827,0.33628562092781067,-0.10067307949066162,0.9375910067214146,-0.12072167537290632,-0.2801288442913463,0.16696499440309323
1728406961834830000,3.664830078125,2.28645658493042,0.19064448773860931,0.041499484330415726,-0.4825611710548401,0.29998505115509033,-0.8228874206542969,0.0751362144947052,0.369646817445755,-0.09962844848632812,0.9393813983038735,-0.10950431667218176,-0.2767039669523266,0.17031274765996476
1728406961844861000,3.67486083984375,1.6415724754333496,0.049730341881513596,0.06611348688602448,-0.4814283549785614,0.28382858633995056,-0.8292575478553772,0.11189097166061401,0.23820504546165466,-0.029629170894622803,0.9405360991986008,-0.10033378883096447,-0.27441637075638387,0.17326494943270437
1728406961854892000,3.68489208984375,0.7843912243843079,-0.08107001334428787,0.01300978846848011,-0.48148268461227417,0.2740359306335449,-0.8325135111808777,0.12644115090370178,-0.0797153115272522,-0.021276772022247314,0.9410544756460956,-0.09470967832409058,-0.27344709048393245,0.17513805653626846
1728406961864922000,3.694922119140625,0.5373216867446899,-0.032118238508701324,-0.12304525077342987,-0.48225027322769165,0.26873651146888733,-0.8337957859039307,0.09580615162849426,-0.2850482165813446,0.09386658668518066,0.9412759338928143,-0.0917149706475557,-0.27329557452939757,0.17577728722744346
1728406961874953000,3.704952880859375,0.9309113025665283,0.13132740557193756,-0.2383209764957428,-0.4822705090045929,0.26185330748558044,-0.8359712958335876,0.03411984443664551,-0.23785129189491272,0.07112449407577515,0.9418433548996976,-0.08814201758588859,-0.27247995624432403,0.17583192101869324
1728406961884984000,3.714984130859375,1.8341964483261108,0.25041618943214417,-0.18049496412277222,-0.4812774360179901,0.24950815737247467,-0.8403081297874451,-0.041381895542144775,0.07680097222328186,0.02303212881088257,0.9428626329820619,-0.08166572210058552,-0.2705118160637943,0.17653394673659717
1728406961895014100,3.72501416015625,2.962245464324951,0.3173648715019226,-0.039247557520866394,-0.47907689213752747,0.22857797145843506,-0.8474889397621155,-0.021869152784347534,0.45878463983535767,0.0020299553871154785,0.9442679022789057,-0.07036666983318247,-0.2670282253200961,0.17917206752532314
1728406961905045000,3.735044921875,3.6685614585876465,0.35716181993484497,0.00649356609210372,-0.4762553572654724,0.19992074370384216,-0.8562783002853394,0.030897051095962524,0.6082609295845032,-0.033644795417785645,0.9457697000930143,-0.05478896939914141,-0.2624100214645502,0.183463371533725
1728406961915076000,3.745076171875,3.7649528980255127,0.3337496817111969,0.016874300315976143,-0.47318464517593384,0.1675763577222824,-0.8648782968521118,0.03922468423843384,0.5128129720687866,0.028101563453674316,0.9470814749738655,-0.03731286924019177,-0.2572325888689739,0.18835035087068946
1728406961925106200,3.755106201171875,3.431196928024292,0.29050377011299133,0.013440687209367752,-0.4704408645629883,0.13617807626724243,-0.8718606233596802,0.041363686323165894,0.2695225477218628,0.09599697589874268,0.9479878387475346,-0.020460615455774208,-0.2522915878160824,0.19300138386305904
1728406961935137000,3.765136962890625,2.5497288703918457,0.19359184801578522,0.0558461993932724,-0.4684625267982483,0.10996358841657639,-0.8766132593154907,0.06556940078735352,-0.02889372408390045,0.1013752818107605,0.9484330474360521,-0.006415227271767863,-0.24829861221580674,0.1969297448906305
1728406961945167000,3.7751669921875,1.7990186214447021,0.1925930678844452,0.008871234953403473,-0.46677789092063904,0.09125874191522598,-0.8796534538269043,0.059230923652648926,-0.23795682191848755,0.15707355737686157,0.9486368679700989,0.0035563106377584823,-0.24527662096614802,0.19978675285773914
1728406961955198000,3.785197998046875,1.5395526885986328,0.3153879642486572,-0.07805540412664413,-0.4645605981349945,0.07658040523529053,-0.8822238445281982,-0.00969785451889038,-0.2619594931602478,0.18463778495788574,0.9489297612537464,0.011150655318159773,-0.2424123350401401,0.2016043881943643
1728406961965229000,3.79522900390625,1.8108304738998413,0.4113432466983795,-0.09928399324417114,-0.4613667130470276,0.06164522096514702,-0.8850653171539307,-0.1125774085521698,-0.11595132946968079,0.09018921852111816,0.9493400682612748,0.018685172241422188,-0.23899415340550328,0.20318988112578404
1728406961975259100,3.805259033203125,2.1977248191833496,0.5051853060722351,-0.03958764299750328,-0.45723670721054077,0.043543897569179535,-0.8882784247398376,-0.13369041681289673,0.11119542270898819,0.015155255794525146,0.9497384572490505,0.027804147852528424,-0.23470775778632733,0.20527066092829493
1728406961985290000,3.8152900390625,2.8313522338867188,0.515796422958374,-0.04459838196635246,-0.4526180028915405,0.020904185250401497,-0.8914594650268555,-0.07478681206703186,0.2897189259529114,-0.06258106231689453,0.9499501026165355,0.039309621122448776,-0.229619296487353,0.20814570728723747
1728406961995321000,3.825321044921875,2.9045839309692383,0.3877255916595459,-0.028840722516179085,-0.4485880732536316,-0.005364685785025358,-0.8937225341796875,-0.001775115728378296,0.30854150652885437,-0.055435121059417725,0.9498385828116401,0.05275524563170555,-0.22440056035236683,0.2113480675668374
1728406962005351000,3.835350830078125,2.7057113647460938,0.3771165609359741,0.0735010951757431,-0.4451880156993866,-0.030345695093274117,-0.8949227929115295,0.009274870157241821,0.234477698802948,-0.002431333065032959,0.9493982453144878,0.06564939706390983,-0.2196104953763423,0.21471913039141086
1728406962015382000,3.845382080078125,2.4139764308929443,0.3596358299255371,0.08194278180599213,-0.4419182240962982,-0.05293964967131615,-0.895491898059845,0.024773448705673218,0.11077039688825607,0.04075556993484497,0.9487852025447389,0.07733906185937259,-0.21511098254498434,0.21806572984040892
1728406962025413000,3.8554130859375,2.2521474361419678,0.4245750308036804,-0.05936800688505173,-0.4384118318557739,-0.07386457920074463,-0.8957338333129883,-0.021366000175476074,-0.08237021416425705,0.028882086277008057,0.9482125575129593,0.08801227159510655,-0.2106820532658278,0.2208163896667391
1728406962035443000,3.86544287109375,1.6937137842178345,0.40503406524658203,-0.21320496499538422,-0.4345454275608063,-0.09230554848909378,-0.8959073424339294,-0.06606495380401611,-0.2309672236442566,0.03805828094482422,0.9478883244310953,0.09712390022195036,-0.20642983145908222,0.2223992387576165
1728406962045474000,3.87547412109375,1.5237513780593872,0.3603173494338989,-0.20939265191555023,-0.43090617656707764,-0.10731558501720428,-0.8959928750991821,-0.08889976143836975,-0.191649928689003,0.1287657618522644,0.9477355536542648,0.10435766230754522,-0.2027635093723763,0.2231450522557278
1728406962055505200,3.885505126953125,1.5726736783981323,0.17513258755207062,-0.14748747646808624,-0.4282292127609253,-0.12211021035909653,-0.8953819274902344,-0.045144230127334595,-0.08391402661800385,0.09136587381362915,0.9473591143560283,0.11165559760329345,-0.1996047554768334,0.22405700155381886
1728406962065534700,3.89553466796875,1.4883240461349487,0.007393696345388889,-0.14631807804107666,-0.42727065086364746,-0.13627317547798157,-0.8937949538230896,0.011026114225387573,-0.05404976010322571,-0.029956817626953125,0.9467288234836181,0.11887660665727472,-0.19741041149689767,0.2249492294072625
1728406962075566000,3.905566162109375,1.4980478286743164,-0.08631415665149689,-0.24272558093070984,-0.4274054765701294,-0.15074923634529114,-0.8914029598236084,0.016196340322494507,-0.03720858693122864,0.002410709857940674,0.945973008368088,0.12634625431559904,-0.19579362369791156,0.22546970663119736
1728406962085597000,3.915596923828125,1.1394221782684326,-0.07954764366149902,-0.09798890352249146,-0.4278067350387573,-0.16331002116203308,-0.8889945149421692,-0.010776668787002563,-0.10867796838283539,-0.08222740888595581,0.9452484351352137,0.13286613591523855,-0.19454905669998981,0.22583762990771927
1728406962095626800,3.925626708984375,0.7984836101531982,-0.08436423540115356,0.008383344858884811,-0.4285373389720917,-0.1720481514930725,-0.8869922161102295,-0.015081465244293213,-0.16688014566898346,0.028242826461791992,0.944535369389911,0.1375806417178294,-0.1938438993488387,0.22660350496558804
1728406962105658000,3.935658203125,0.23483724892139435,0.033107686787843704,-0.04235333576798439,-0.4287804365158081,-0.17683570086956024,-0.8859325647354126,0.0008324086666107178,-0.32208096981048584,0.1859508752822876,0.9441556700720348,0.14014320524786764,-0.19337424441993586,0.22701653984502082
1728406962115689000,3.94568896484375,-0.5407319664955139,0.02134850062429905,0.01553686149418354,-0.4283638000488281,-0.17565831542015076,-0.8863682150840759,-0.046367645263671875,-0.49644559621810913,0.2791142463684082,0.9443207302003012,0.1394397215945559,-0.1933195891802296,0.22680918943059503
1728406962125718800,3.95571875,-1.5490789413452148,-0.2442404180765152,0.13041365146636963,-0.42940109968185425,-0.16611255705356598,-0.8877056837081909,0.0023380517959594727,-0.5891823172569275,0.3441876173019409,0.9448498467267826,0.13457075612854189,-0.19503301637610918,0.22607904904757375
1728406962135750100,3.965750244140625,-2.5600075721740723,-0.48818567395210266,0.1392849087715149,-0.43295156955718994,-0.14713644981384277,-0.8893277049064636,0.10436877608299255,-0.6445048451423645,0.4071958065032959,0.9456524783005482,0.1250933574047177,-0.1992179566980635,0.22451096563554485
1728406962145781000,3.975781005859375,-3.5550057888031006,-0.629072368144989,-0.04505271464586258,-0.4380479156970978,-0.1195802167057991,-0.8909627199172974,0.112333744764328,-0.6568022966384888,0.41713160276412964,0.9468325179354791,0.11114872409937032,-0.2053401879825017,0.22133572325177855
1728406962155810800,3.985810791015625,-4.05546760559082,-0.5819482207298279,-0.19855625927448273,-0.44356298446655273,-0.08568203449249268,-0.8921381831169128,0.011647671461105347,-0.5106315016746521,0.33877819776535034,0.9482981627835871,0.0936555311414982,-0.2125077888264377,0.21633255173402105
1728406962165842200,3.99584228515625,-3.782604932785034,-0.4173327684402466,0.04347182437777519,-0.44794154167175293,-0.05073888227343559,-0.8926219344139099,-0.06898051500320435,-0.19042633473873138,0.1709270477294922,0.9495583070952285,0.07546783613760664,-0.2190744728379489,0.21130562903186556
1728406962175873000,4.005873046875,-3.143576145172119,-0.36099839210510254,0.4769417941570282,-0.451483815908432,-0.018515262752771378,-0.8920872211456299,-0.09670346975326538,0.1160341203212738,0.06255841255187988,0.9500112820207194,0.059076628883068,-0.2246471783552653,0.20861972422150404
1728406962185902800,4.01590283203125,-2.704608201980591,-0.1267106831073761,0.5103468894958496,-0.4538227319717407,0.009911528788506985,-0.891036868095398,-0.09131279587745667,0.25498098134994507,0.040191590785980225,0.9499270655107842,0.04487643053476902,-0.22905824295871657,0.2077423620866727
1728406962195934000,4.025933837890625,-2.2087602615356445,0.0006486023776233196,0.3241623640060425,-0.45411089062690735,0.03382112458348274,-0.8903030157089233,-0.14797043800354004,0.2639082968235016,0.00880277156829834,0.9499317920709789,0.03269247111722164,-0.2319045088810563,0.2068359100997731
1728406962205965000,4.035965087890625,-1.775693416595459,-0.064607635140419,0.39329296350479126,-0.4542025625705719,0.052949436008930206,-0.8893235921859741,-0.1864835023880005,0.24828951060771942,0.004496932029724121,0.9498240517112854,0.022939125443745108,-0.2341196495297518,0.20614609053833885
1728406962215995000,4.045994873046875,-1.5538105964660645,-0.150253027677536,0.5576446056365967,-0.45488643646240234,0.0700790286064148,-0.8877878785133362,-0.06888678669929504,0.22980189323425293,0.03138834238052368,0.9493497475260798,0.01450912144475352,-0.23642239936788292,0.20646836179200515
1728406962226026000,4.05602587890625,-1.1642894744873047,-0.30183088779449463,0.4910576045513153,-0.4564558267593384,0.0846140906214714,-0.8857135772705078,0.08696421980857849,0.19736826419830322,0.07599067687988281,0.9485991283696763,0.007639476410892791,-0.23892437565322194,0.20740389614612886
1728406962236057000,4.06605712890625,-1.067785382270813,-0.35008150339126587,0.48338502645492554,-0.459113210439682,0.09642481058835983,-0.8831292986869812,0.11438661813735962,0.0924941822886467,0.0480768084526062,0.9477155826641401,0.002263308817977239,-0.24172346868003866,0.20832640062538405
