time,seconds_elapsed,rotationRateX,rotationRateY,rotationRateZ,gravityX,gravityY,gravityZ,accelerationX,accelerationY,accelerationZ,quaternionW,quaternionX,quaternionY,quaternionZ
1728066105513159400,0.106159423828125,0.03426860272884369,-0.01867528073489666,-0.05553090199828148,-0.00545100774616003,-0.37860944867134094,-0.9255405068397522,0.039645954966545105,-0.05301597714424133,0.017932474613189697,0.9812086579482362,0.19293013806649356,-0.002777700521322057,-3.9131201627474565e-18
1728066105523189500,0.116189453125,0.06833602488040924,0.01982657052576542,-0.07939548790454865,-0.005206308327615261,-0.3791082799434662,-0.9253376722335815,0.005358896218240261,-0.0528528094291687,-0.0031901001930236816,0.9811568462627946,0.19319361536105747,-0.002718389662921995,-0.00033133817877630163
1728066105533220600,0.126220703125,0.09248717129230499,0.055172841995954514,-0.0843348503112793,-0.004575478844344616,-0.3799196481704712,-0.9250081777572632,-0.01965547911822796,-0.053689390420913696,-0.020380616188049316,0.9810727151578671,0.19362286988852667,-0.002468871403545738,-0.0006941475566329654
1728066105543250700,0.136250732421875,0.11472536623477936,0.054316531866788864,-0.07952012121677399,-0.003776553552597761,-0.38091790676116943,-0.924601137638092,-0.01897430047392845,-0.048967987298965454,-0.031010985374450684,0.9809687342976313,0.1941517120008846,-0.0021291723955522315,-0.0010320524402801302
1728066105553281500,0.146281494140625,0.16551023721694946,0.01331290416419506,-0.05762387812137604,-0.0032273263204842806,-0.38225340843200684,-0.9240519404411316,0.0030442194547504187,-0.03533390164375305,-0.03220111131668091,0.9808284110318712,0.19485993674118732,-0.0019102107119321724,-0.0013339110732386145
1728066105563312600,0.156312744140625,0.1852613091468811,-0.039679259061813354,-0.0318404845893383,0.0009365500882267952,-0.38525184988975525,-0.9228110313415527,0.02297396957874298,-0.029787272214889526,-0.009439945220947266,0.9805109768152198,0.19645480280088495,0.00008480519494632866,-0.0019603625177022264
1728066105573342500,0.166342529296875,0.19315731525421143,-0.06316328048706055,-0.026742659509181976,0.004490439314395189,-0.3889683187007904,-0.9212402105331421,0.0393938347697258,-0.03707239031791687,0.00217282772064209,0.9801090308353229,0.19843575312704523,0.0017752014572336224,-0.0025465604672791926
1728066105583373600,0.17637353515625,0.22235701978206635,-0.04684987664222717,-0.03140878677368164,0.0070808399468660355,-0.3932052254676819,-0.9194234609603882,0.037825774401426315,-0.039396733045578,0.01762908697128296,0.9796440987640047,0.20069709947297223,0.0029892534925771447,-0.003049448318393805
1728066105593403600,0.186403564453125,0.2563250958919525,0.019215429201722145,-0.04670651629567146,0.00858920719474554,-0.39752909541130066,-0.9175493717193604,0.004655423574149609,-0.046394914388656616,0.028145134449005127,0.9791645847594126,0.20300682477162307,0.0036785048958563383,-0.003412405796366373
1728066105603434500,0.1964345703125,0.27023372054100037,0.08924862742424011,-0.056954093277454376,0.008928527124226093,-0.4010447561740875,-0.9160149693489075,-0.04387115687131882,-0.05574241280555725,0.01994258165359497,0.9787721037757785,0.2048852766841763,0.0038136393524067186,-0.0035706792618475313
1728066105613465600,0.206465576171875,0.2662091553211212,0.13795623183250427,-0.050271958112716675,0.009204772301018238,-0.4040209949016571,-0.914703369140625,-0.07367315888404846,-0.046555787324905396,0.010711729526519775,0.9784367661281838,0.20647710444823486,0.003938321806417005,-0.0036274596980720637
1728066105623495700,0.21649560546875,0.2589033544063568,0.16220486164093018,-0.03471510112285614,0.010032358579337597,-0.40657132863998413,-0.9135639667510986,-0.08065003156661987,-0.03832921385765076,0.006016969680786133,0.9781456912435704,0.207843701473741,0.004360662525264869,-0.003612407047378874
1728066105633526500,0.226526611328125,0.2613345682621002,0.16536974906921387,-0.010560228489339352,0.011404240503907204,-0.40881866216659546,-0.9125443696975708,-0.06671735644340515,-0.03248080611228943,0.0015794634819030762,0.9778854500382295,0.20905029407948725,0.005077053506049761,-0.0035271103404481596
1728066105643556600,0.236556640625,0.23777799308300018,0.14571349322795868,0.001795507501810789,0.01317389216274023,-0.41106116771698,-0.9115126132965088,-0.04538518935441971,-0.019099414348602295,0.002699136734008789,0.9776219485165757,0.21025624161924253,0.006001694163444168,-0.003422291220343253
1728066105653587500,0.24658740234375,0.2162252962589264,0.09306386858224869,0.008239291608333588,0.015242848545312881,-0.4134368896484375,-0.9104052186012268,-0.02326897345483303,-0.008224517107009888,0.004551947116851807,0.9773388760538035,0.2115359992456636,0.007065853897686268,-0.0033833040557474225
1728066105663618600,0.25661865234375,0.1939697265625,0.04196755588054657,0.005084777716547251,0.01698005199432373,-0.4160485565662384,-0.9091838598251343,-0.0058258771896362305,-0.0010809898376464844,0.016743063926696777,0.977026303000664,0.21294346881721293,0.007946711239364176,-0.003408790433624127
1728066105673648600,0.266648681640625,0.20234110951423645,-0.013846438378095627,-0.012635363265872002,0.016971364617347717,-0.41907066106796265,-0.9077950119972229,0.007976757362484932,0.001574873924255371,0.0280647873878479,0.9766709272024371,0.21456788676433403,0.007944785075355145,-0.003384668889121473
1728066105683679500,0.276679443359375,0.22444432973861694,-0.08809078484773636,-0.05172977223992348,0.014711671508848667,-0.4223426282405853,-0.906316876411438,0.008222287520766258,0.008478432893753052,0.02730381488800049,0.976292443631929,0.21632283887472709,0.006781487188698299,-0.003398259874534261
1728066105693709600,0.28670947265625,0.2259647250175476,-0.09699879586696625,-0.08477933704853058,0.011330582201480865,-0.42529329657554626,-0.9049846529960632,-0.0014428868889808655,0.016342490911483765,0.030442476272583008,0.975950764467134,0.21790483251578874,0.0050153937086729345,-0.0035360097394757897
1728066105703740700,0.29674072265625,0.2042194902896881,-0.07886741310358047,-0.10536184161901474,0.008094956167042255,-0.42778193950653076,-0.9038457274436951,-0.007057360373437405,0.025163501501083374,0.026633262634277344,0.975658102601113,0.2192401995367328,0.0032961020951266405,-0.0037931431552118877
1728066105713771500,0.306771484375,0.1816398799419403,-0.07384255528450012,-0.10220439732074738,0.005729080177843571,-0.42982587218284607,-0.9028936624526978,-0.017890334129333496,0.033265143632888794,0.017731308937072754,0.9754126077827429,0.22033878128362747,0.001999616939381437,-0.004148559199101218
1728066105723801600,0.316801513671875,0.1356329619884491,-0.09962323307991028,-0.0934726893901825,0.004064674023538828,-0.43116822838783264,-0.9022623896598816,-0.02084933966398239,0.035278916358947754,0.009989500045776367,0.9752488766800405,0.22106040191321275,0.0010449020553141527,-0.004583803098091024
1728066105733832700,0.326832763671875,0.08630217611789703,-0.13156439363956451,-0.09018900990486145,0.002926218556240201,-0.43179595470428467,-0.9019665718078613,-0.001324045704677701,0.03721889853477478,0.0015302300453186035,0.9751704271064647,0.22139690946670768,0.0003422117858927144,-0.005101220539443286
1728066105743862500,0.336862548828125,0.03872247412800789,-0.169443741440773,-0.06490229815244675,0.0022485877852886915,-0.4320201575756073,-0.9018611311912537,0.02565973810851574,0.045987993478775024,0.0061397552490234375,0.9751401539180815,0.22151614862657232,-0.00013890366369558317,-0.005686919305517982
1728066105753893600,0.3468935546875,-0.008971278555691242,-0.2021939754486084,-0.036127906292676926,0.001605927012860775,-0.4320403039455414,-0.9018528461456299,0.03953176736831665,0.041079580783843994,0.012463867664337158,0.9751347167329989,0.2215247622425981,-0.0005896453682735554,-0.006220284990804258
1728066105763924500,0.356924560546875,-0.04451828822493553,-0.24351121485233307,-0.03692872077226639,0.0004237602697685361,-0.4315851032733917,-0.9020721316337585,0.04507794603705406,0.024251669645309448,0.01773381233215332,0.9751877131067505,0.22127408257201173,-0.0013070997453696036,-0.0067181285961126
1728066105773954600,0.36695458984375,-0.04626958444714546,-0.2712525427341461,-0.02892378903925419,-0.001454396522603929,-0.43087470531463623,-0.902410626411438,0.04193596541881561,0.011181652545928955,0.03061497211456299,0.975271118198826,0.2208824416029835,-0.0023749843917632344,-0.007194122982192138
1728066105783985700,0.376985595703125,-0.018623773008584976,-0.26558583974838257,-0.02508404292166233,-0.003720783395692706,-0.43007898330688477,-0.9027836322784424,0.031110310927033424,0.00866168737411499,0.03715252876281738,0.9753633476429706,0.22044272015252853,-0.0036333009129959444,-0.007636436799830666
1728066105794015700,0.387015625,0.015178931877017021,-0.22606347501277924,-0.028250807896256447,-0.006121375598013401,-0.4294111430644989,-0.903088390827179,0.019427036866545677,0.021391093730926514,0.021023571491241455,0.9754384266660842,0.22007128512039761,-0.004944216899257736,-0.008006911294015876
1728066105804046600,0.397046630859375,0.061805155128240585,-0.18013064563274384,-0.017763547599315643,-0.008180745877325535,-0.4290821850299835,-0.9032284021377563,-0.000821937806904316,0.028157472610473633,-0.004028618335723877,0.9754718800085818,0.21988404035166495,-0.006066043584806781,-0.008308387533489269
1728066105814077700,0.40707763671875,0.07967257499694824,-0.125984326004982,-0.01347079686820507,-0.009213058277964592,-0.4289828836917877,-0.903265655040741,-0.01460590772330761,0.026227116584777832,-0.012475252151489258,0.9754790029374129,0.21982463343157901,-0.006656233862531391,-0.008581783207326433
1728066105824107500,0.417107421875,0.06657960265874863,-0.09948522597551346,-0.022106098011136055,-0.009019779041409492,-0.4286836087703705,-0.9034096598625183,-0.018964841961860657,0.017184555530548096,-0.00988990068435669,0.9755129790616622,0.2196615786099479,-0.006629932963054587,-0.008912329177090597
1728066105834138600,0.427138671875,0.041423387825489044,-0.12016227841377258,-0.028536032885313034,-0.008314641192555428,-0.428366094827652,-0.9035670161247253,-0.011384454555809498,0.00476682186126709,0.006395995616912842,0.9755493768103274,0.2194904587171575,-0.006358785548492301,-0.00932153778118989
1728066105844168700,0.437168701171875,0.004073483869433403,-0.16192597150802612,-0.039441414177417755,-0.007749187760055065,-0.42827123403549194,-0.9036170244216919,0.01139603741466999,-0.003979802131652832,0.024100422859191895,0.9755573491409979,0.21943856860343813,-0.006180775282748449,-0.009821003096479073
1728066105854199600,0.447199462890625,-0.047476258128881454,-0.2138669341802597,-0.0539066381752491,-0.0077269854955375195,-0.4282532334327698,-0.9036257266998291,0.031652770936489105,-0.0017699897289276123,0.0344240665435791,0.9755532720593905,0.21942506831782907,-0.006306400282735927,-0.010430606724805822
1728066105864230700,0.457230712890625,-0.09252682328224182,-0.2565843164920807,-0.04615018144249916,-0.008575212210416794,-0.4278913736343384,-0.9037894606590271,0.040420301258563995,-0.0022692084312438965,0.046215057373046875,0.9755883352018787,0.2192212340636608,-0.006877934850911293,-0.011050146375619794
1728066105874260700,0.4672607421875,-0.10062310099601746,-0.27201199531555176,-0.022179333493113518,-0.010241935029625893,-0.42678898572921753,-0.9042932391166687,0.04069847986102104,-0.006575942039489746,0.05424141883850098,0.9757112740274868,0.2186133895173603,-0.007845629793830591,-0.011591706077928548
1728066105884291600,0.47729150390625,-0.08587837219238281,-0.2668223977088928,0.00957593321800232,-0.012626518495380878,-0.4253291189670563,-0.9049506783485413,0.036247123032808304,-0.013803631067276001,0.03994518518447876,0.9758754681721831,0.21781009314959826,-0.00913373083224475,-0.011937575296006104
1728066105894321700,0.48732177734375,-0.054925255477428436,-0.21414746344089508,0.06043298542499542,-0.015294854529201984,-0.42404377460479736,-0.9055125713348389,0.03220159187912941,-0.017820268869400024,0.008234739303588867,0.9760186638265157,0.2171022234526806,-0.010504868750232118,-0.012001354063226315
1728066105904352800,0.497352783203125,-0.045377690345048904,-0.16997282207012177,0.10000782459974289,-0.017798172309994698,-0.4231396019458771,-0.9058896899223328,0.03142426908016205,-0.0189380943775177,-0.020822346210479736,0.9761180851483183,0.2166047137344204,-0.01172815785855393,-0.011767893767985739
1728066105914383600,0.507383544921875,-0.037851862609386444,-0.1554356813430786,0.1358390748500824,-0.01985766552388668,-0.42289796471595764,-0.9059597253799438,0.02681567147374153,-0.027526289224624634,-0.03389012813568115,0.9761409054679588,0.21646959354354284,-0.012690599162133432,-0.011359470734112987
1728066105924413700,0.51741357421875,-0.02765568345785141,-0.17489956319332123,0.18225184082984924,-0.021269047632813454,-0.42319321632385254,-0.9057897925376892,0.030973637476563454,-0.034204304218292236,-0.040789127349853516,0.9761032325275103,0.21662910824854784,-0.013301377390851235,-0.010843387284014648
1728066105934444500,0.527444580078125,-0.04697265475988388,-0.20794087648391724,0.2656359374523163,-0.02277826890349388,-0.4233520030975342,-0.905678927898407,0.04443048685789108,-0.03886726498603821,-0.05141335725784302,0.9760830395134015,0.21671906154659543,-0.013906705521563024,-0.010082015363776254
1728066105944474600,0.537474609375,-0.10749219357967377,-0.2714424729347229,0.32049810886383057,-0.02501479536294937,-0.4231303930282593,-0.9057234525680542,0.06122390180826187,-0.050395667552948,-0.0586472749710083,0.9761047424839294,0.21660748613543715,-0.01481477973541727,-0.009018059880349694
1728066105954505700,0.547505615234375,-0.11721539497375488,-0.30506911873817444,0.31782668828964233,-0.0281278807669878,-0.42261719703674316,-0.9058716893196106,0.06978437304496765,-0.05312138795852661,-0.06036055088043213,0.9761528341406279,0.21634099615730193,-0.01614688330659524,-0.007848191128509529
1728066105964536600,0.55753662109375,-0.033230945467948914,-0.35125431418418884,0.5188903212547302,-0.032060716301202774,-0.42217135429382324,-0.9059489369392395,0.07197770476341248,-0.04651767015457153,-0.0893208384513855,0.9761837445134905,0.21612027403934678,-0.017820106237905815,-0.006317498799582311
1728066105974566700,0.567566650390625,-0.0027539958246052265,-0.37359076738357544,0.6472640037536621,-0.03791499882936478,-0.4219077229499817,-0.9058456420898438,0.10401606559753418,-0.013547629117965698,-0.13387292623519897,0.976170447822198,0.21602491092019727,-0.020258474474377966,-0.0037876422395846277
1728066105984597800,0.57759765625,0.026150556281208992,-0.27387338876724243,0.3542049527168274,-0.04367462918162346,-0.4215477705001831,-0.9057538509368896,0.14159026741981506,-0.10582652688026428,-0.16367363929748535,0.9761532070647021,0.21589085577326117,-0.02267644584874737,-0.0013820402340383067
1728066105994627800,0.5876279296875,0.11087822914123535,-0.6132293343544006,-0.17904376983642578,-0.04760156571865082,-0.4227960705757141,-0.9049738049507141,0.06739221513271332,-0.22497007250785828,-0.1530858874320984,0.975952987145561,0.2165642875312554,-0.024758968490562437,-0.0016752813410528188
1728066106004658700,0.59765869140625,-0.09441540390253067,-0.7292611002922058,0.09479682147502899,-0.0534808486700058,-0.42275065183639526,-0.9046666026115417,-0.009965203702449799,-0.2768648862838745,-0.18001961708068848,0.975871626624728,0.21652035814018533,-0.02802888702811731,-0.002827316094552012
1728066106014689800,0.607689697265625,-0.046670787036418915,-0.8388128876686096,0.5557394027709961,-0.062142327427864075,-0.4218244254589081,-0.9045454859733582,0.14653868973255157,-0.1644030511379242,-0.07401591539382935,0.9758426577039183,0.21606648344637433,-0.032288288945068314,-0.002023110101032494
1728066106024719600,0.6177197265625,0.0810227245092392,-0.7964164018630981,0.5794143676757812,-0.07224337011575699,-0.42153704166412354,-0.9039288759231567,0.2572714388370514,-0.06688159704208374,-0.10885792970657349,0.9756867253996963,0.21602089702659244,-0.037020561595006614,0.000005618997044004356
1728066106034750700,0.627750732421875,0.24243691563606262,-0.5810500383377075,0.5045678019523621,-0.08086652308702469,-0.42258501052856445,-0.9027084112167358,0.1545664668083191,-0.05382490158081055,-0.16276699304580688,0.9753723790348735,0.21669942479290613,-0.04107488668627188,0.0017072035495111191
1728066106044780500,0.637780517578125,0.33877232670783997,-0.525562584400177,1.1276087760925293,-0.08932290226221085,-0.4246244728565216,-0.9009525775909424,0.011045299470424652,-0.04435443878173828,-0.18171954154968262,0.9749119669470935,0.2179964084456044,-0.044735779602498874,0.004807433081393816
1728066106054811600,0.647811767578125,0.33946287631988525,-0.7848644256591797,1.1624722480773926,-0.10068197548389435,-0.42646151781082153,-0.8988847136497498,0.14183494448661804,-0.0026156604290008545,-0.18039989471435547,0.9743390531822409,0.21936746730056134,-0.04935139090188245,0.010284122562248605
1728066106064842800,0.6578427734375,0.3188599944114685,-0.8606529235839844,0.5901261568069458,-0.1117672398686409,-0.4285145103931427,-0.8965954780578613,0.3389553427696228,-0.0074901580810546875,-0.13053464889526367,0.9737102164800892,0.22080318842126595,-0.05429753385357826,0.01364814821624414
1728066106074872600,0.66787255859375,0.3025151193141937,-0.852449893951416,0.509279191493988,-0.12196531146764755,-0.43068838119506836,-0.8942214250564575,0.07602109014987946,-0.09013986587524414,-0.0909927487373352,0.9730744527090444,0.2222386369810617,-0.05915459623908726,0.015392592289651412
1728066106084903700,0.677903564453125,0.24487797915935516,-0.7851123213768005,0.6563009023666382,-0.13181829452514648,-0.43238791823387146,-0.8920003175735474,-0.014681339263916016,-0.14854472875595093,-0.11205846071243286,0.9724703884746791,0.22345305865746382,-0.06378525810046608,0.017363270627224932
1728066106094934800,0.687934814453125,0.25582650303840637,-0.7828049659729004,0.8761706948280334,-0.14224116504192352,-0.4334988594055176,-0.8898574113845825,0.05476251244544983,-0.1090274453163147,-0.1087234616279602,0.9718618168661939,0.22445793725261465,-0.06848298429123707,0.020336024501291163
1728066106104964600,0.697964599609375,0.3280298709869385,-0.8019623160362244,0.9228942394256592,-0.15339389443397522,-0.43471041321754456,-0.8874103426933289,0.10526767373085022,-0.05556976795196533,-0.10290026664733887,0.9711483949209873,0.2256264766520666,-0.07339965595736651,0.023999809463483415
1728066106114995700,0.70799560546875,0.38978296518325806,-0.812761664390564,0.824947714805603,-0.16446051001548767,-0.4365047216415405,-0.8845430612564087,0.10165531933307648,-0.03329819440841675,-0.09957253932952881,0.9703175003435633,0.22714724140546183,-0.07831096494520327,0.02748771216275589
1728066106125025500,0.718025634765625,0.45425039529800415,-0.8524837493896484,0.7941897511482239,-0.17541109025478363,-0.43883174657821655,-0.881281852722168,0.06600555777549744,-0.016612648963928223,-0.10957813262939453,0.9693825826394856,0.22897643314007712,-0.08323988901450491,0.030633065760203776
1728066106135056400,0.728056396484375,0.5047356486320496,-0.8903749585151672,0.8169073462486267,-0.18677173554897308,-0.4415896534919739,-0.8775619268417358,0.0666392594575882,-0.0063779354095458984,-0.11493074893951416,0.9683189973814803,0.23109967786833913,-0.08838539428553709,0.03375430649164485
1728066106145087700,0.738087646484375,0.4926760494709015,-0.8730331659317017,0.8282918334007263,-0.19825991988182068,-0.4443846046924591,-0.8736220002174377,0.08529908955097198,-0.001690894365310669,-0.11800092458724976,0.9671841689156107,0.23330698824147664,-0.09357808106414396,0.03695869298905177
1728066106155117600,0.74811767578125,0.49518847465515137,-0.8790383338928223,0.8276521563529968,-0.20968885719776154,-0.44696348905563354,-0.8696287870407104,0.07136790454387665,0.0011016130447387695,-0.10620123147964478,0.9660229214464459,0.23544879776255628,-0.09873934407684398,0.04017840019259328
1728066106165148400,0.7581484375,0.49555540084838867,-0.898582398891449,0.8816916942596436,-0.22128944098949432,-0.4494124948978424,-0.8654822111129761,0.038046613335609436,0.0005141198635101318,-0.07746517658233643,0.9648047624524843,0.23759182807178747,-0.10396644286566589,0.04350907949556555
1728066106175178500,0.768178466796875,0.5571354031562805,-0.946090817451477,0.9649191498756409,-0.23351195454597473,-0.4517892301082611,-0.861021876335144,0.022940650582313538,0.0006325840950012207,-0.06147873401641846,0.963476280243349,0.23981522677803463,-0.10944280270602624,0.04716311950305109
1728066106185209600,0.778209716796875,0.6388319134712219,-0.9674734473228455,1.015029788017273,-0.2463700920343399,-0.45452365279197693,-0.8559848070144653,0.025453343987464905,-0.008336454629898071,-0.04945641756057739,0.9619646879729528,0.2423713338262472,-0.11516826601007153,0.0511497934736321
1728066106195240400,0.788240478515625,0.690302848815918,-0.9555177092552185,0.9791812300682068,-0.2592916488647461,-0.4576420485973358,-0.85048907995224,0.017500877380371094,-0.03166159987449646,-0.05746990442276001,0.960310300240501,0.24523005774414855,-0.12090360876883796,0.05521692128568862
1728066106205270500,0.7982705078125,0.7321580052375793,-0.9403695464134216,0.9207552075386047,-0.2718212306499481,-0.46111148595809937,-0.8446829915046692,-0.011885464191436768,-0.05147707462310791,-0.060941338539123535,0.9585677436347901,0.24831545013775624,-0.12648291600940187,0.05907072263176597
1728066106215301600,0.808301513671875,0.7892279028892517,-0.9377673864364624,0.8976019024848938,-0.28403741121292114,-0.4649723470211029,-0.8385246396064758,-0.034871309995651245,-0.05568811297416687,-0.06699293851852417,0.9567267973493082,0.25165393579212525,-0.13193933841033714,0.06274015781541264
1728066106225331500,0.81833154296875,0.8334580659866333,-0.9349993467330933,0.9346190690994263,-0.29624316096305847,-0.4690888226032257,-0.8319830298423767,-0.028875887393951416,-0.05088499188423157,-0.08494812250137329,0.9547614843624905,0.25522503491416965,-0.13736328933755512,0.06649976619403548
1728066106235362600,0.828362548828125,0.8694429397583008,-0.9499987959861755,1.0083354711532593,-0.30877044796943665,-0.47318384051322937,-0.8250805735588074,-0.004919767379760742,-0.04297524690628052,-0.08142882585525513,0.9526623016892284,0.25892725553027984,-0.14288596483444083,0.07053392943212981
1728066106245393400,0.838393310546875,0.8793225288391113,-0.9545928835868835,1.090637445449829,-0.32168814539909363,-0.4770430326461792,-0.8178916573524475,0.00956958532333374,-0.033897578716278076,-0.06058734655380249,0.9504355455506219,0.2626727961217093,-0.14851659999341088,0.07495492945494045
1728066106255423500,0.848423583984375,0.8767368793487549,-0.9812812209129333,1.1826435327529907,-0.3351718783378601,-0.48041263222694397,-0.8104711771011353,0.01470676064491272,-0.024180322885513306,-0.04933100938796997,0.9480889718351879,0.26634501664169946,-0.15435263520702017,0.07976839622798884
1728066106265454600,0.85845458984375,0.8801954984664917,-0.9675171971321106,1.2627195119857788,-0.34909552335739136,-0.4832780361175537,-0.802854061126709,0.00591006875038147,-0.022810280323028564,-0.0029930472373962402,0.9456248979664342,0.26994085917311217,-0.16032744042944103,0.0849746791000785
1728066106275484700,0.868484619140625,0.8636005520820618,-0.9183390140533447,1.2926547527313232,-0.36300382018089294,-0.4856451153755188,-0.7952213883399963,-0.014666467905044556,-0.04145452380180359,0.030756115913391113,0.9430915312352705,0.2734243613853491,-0.16621802437125538,0.09049340606554174
1728066106285515500,0.878515625,0.8137916922569275,-0.8580509424209595,1.2828353643417358,-0.376451313495636,-0.48747408390045166,-0.7878156304359436,-0.0547620952129364,-0.06938019394874573,0.07207167148590088,0.9405711461660441,0.27669431043275,-0.17185004234393436,0.09609328709386722
1728066106295546600,0.888546630859375,0.7622747421264648,-0.7988526225090027,1.274896264076233,-0.389308899641037,-0.488693505525589,-0.7807799577713013,-0.0884895920753479,-0.08531168103218079,0.08471977710723877,0.938112627016575,0.279667733024037,-0.17718913957372598,0.10166019915140982
1728066106305576400,0.898576416015625,0.7955419421195984,-0.7879529595375061,1.327046513557434,-0.4019532799720764,-0.48951929807662964,-0.7738245725631714,-0.09784838557243347,-0.06260478496551514,0.06935679912567139,0.935621462070516,0.28252854931234,-0.18238785419619966,0.10735429658766688
1728066106315607600,0.908607666015625,0.8708151578903198,-0.753373920917511,1.374853491783142,-0.41466015577316284,-0.49036869406700134,-0.7665477991104126,-0.06335195899009705,-0.025149524211883545,0.05446594953536987,0.932962738936053,0.28559026669538706,-0.18752147471530609,0.11337755067444616
1728066106325637600,0.9186376953125,0.9124937057495117,-0.6870360970497131,1.3840088844299316,-0.4270729422569275,-0.49132513999938965,-0.7590838670730591,-0.022405266761779785,0.014472663402557373,0.04922980070114136,0.9301737401881156,0.28885590145255136,-0.19240665955259106,0.11966119952514374
1728066106335668500,0.92866845703125,0.9401735067367554,-0.592911422252655,1.4103808403015137,-0.43886563181877136,-0.49226993322372437,-0.7517095804214478,-0.012458860874176025,0.05605161190032959,0.05632084608078003,0.9273361203553258,0.2921962744350623,-0.19689220150661943,0.126105538611749
1728066106345699600,0.938699462890625,0.9302491545677185,-0.6098499894142151,1.3828336000442505,-0.4504449665546417,-0.49296554923057556,-0.7443684339523315,-0.008783578872680664,0.10409528017044067,0.06494039297103882,0.9244362559174245,0.29550907257483544,-0.20122170979690948,0.13267219139237235
1728066106355729700,0.948729736328125,0.9413784742355347,-0.5826966166496277,1.3396427631378174,-0.46168434619903564,-0.49362295866012573,-0.7370101809501648,0.008666127920150757,0.14833179116249084,0.0703079104423523,0.9215023135563561,0.29883422524415126,-0.20540941971254392,0.1390634529609688
1728066106365760500,0.958760498046875,0.9645057320594788,-0.5462464094161987,1.331526517868042,-0.4725789427757263,-0.4943450093269348,-0.7295835614204407,-0.01477155089378357,0.14926749467849731,0.05554187297821045,0.9185087237919873,0.302246581480433,-0.20941641013570286,0.14537357097392264
1728066106375790600,0.96879052734375,0.9646285176277161,-0.46962088346481323,1.3492839336395264,-0.48298388719558716,-0.4948962926864624,-0.7223602533340454,-0.023424863815307617,0.12709838151931763,0.06789559125900269,0.9154988991100886,0.3056224925243794,-0.21310737603533553,0.15179631653944778
1728066106385821700,0.97882177734375,0.9594797492027283,-0.41562482714653015,1.3819860219955444,-0.49303171038627625,-0.4950907826423645,-0.7154054641723633,-0.022562801837921143,0.11633706092834473,0.07107257843017578,0.9124725331943927,0.30888477199802006,-0.21653513379903694,0.1584199085342833
1728066106395852500,0.9888525390625,0.9588273167610168,-0.3527451753616333,1.394943356513977,-0.5027387142181396,-0.49495723843574524,-0.7087109088897705,-0.02741265296936035,0.09949517250061035,0.07910281419754028,0.9094252055664818,0.3120449130093137,-0.21971007839096832,0.16523091261391631
1728066106405882600,0.998882568359375,0.90421062707901,-0.29869890213012695,1.3923698663711548,-0.5120400786399841,-0.4944165050983429,-0.7024011611938477,-0.038436055183410645,0.06648370623588562,0.12210941314697266,0.9064067429265436,0.3150127204524949,-0.22263515423382776,0.17212648883605633
1728066106415913500,1.00891357421875,0.8206225037574768,-0.21814465522766113,1.3883190155029297,-0.5208140015602112,-0.4932097792625427,-0.6967760920524597,-0.055464744567871094,0.02862536907196045,0.135969877243042,0.9035172377754102,0.3175755794057055,-0.22529467984429535,0.17901051970130438
1728066106425944600,1.018944580078125,0.7748064994812012,-0.1421860307455063,1.358411431312561,-0.5289340019226074,-0.49143877625465393,-0.6918936371803284,-0.058880388736724854,0.012831568717956543,0.14988625049591064,0.9007756627232998,0.31975558917568797,-0.22761711555406258,0.1858764342045245
1728066106435974700,1.028974609375,0.7256128191947937,-0.07190974056720734,1.3059601783752441,-0.536275327205658,-0.48945268988609314,-0.6876371502876282,-0.048044800758361816,0.025676995515823364,0.15112292766571045,0.8981807435979393,0.32169054400528607,-0.22955744052141894,0.1925875416949576
1728066106446005000,1.0390048828125,0.7062877416610718,-0.020845811814069748,1.2919878959655762,-0.5429970026016235,-0.48730355501174927,-0.6838783025741577,-0.03296130895614624,0.08047366142272949,0.11052936315536499,0.8956931466114415,0.3234372724467335,-0.23119077032220314,0.19918081913342323
1728066106456034800,1.049034912109375,0.6971480250358582,0.01022235956043005,1.3330274820327759,-0.5494773387908936,-0.4849034249782562,-0.6803994178771973,-0.004050493240356445,0.14145857095718384,0.13611841201782227,0.893202751201165,0.3250692556854166,-0.23265915096950227,0.20588501927873235
1728066106466066000,1.05906591796875,0.6321309208869934,0.04780755192041397,1.3727504014968872,-0.5559275150299072,-0.48189085721969604,-0.6772930026054382,0.021305322647094727,0.15100395679473877,0.1419994831085205,0.8907089339993131,0.32643447803093717,-0.23408123994534397,0.21280080407770663
1728066106476096800,1.0690966796875,0.5128873586654663,0.12634682655334473,1.3333784341812134,-0.561970055103302,-0.47811537981033325,-0.6749779582023621,0.019459128379821777,0.08936721086502075,0.1807916760444641,0.8883818765345474,0.32729503167962876,-0.23534862513598093,0.21969654338112493
1728066106486126800,1.079126953125,0.29499372839927673,0.19785472750663757,1.191585659980774,-0.5669605731964111,-0.47368672490119934,-0.6739263534545898,-0.014048397541046143,-0.011191874742507935,0.22733211517333984,0.8864741568886266,0.3274384478481766,-0.23626444772143476,0.22611259154367702
1728066106496158000,1.089157958984375,-0.016212081536650658,0.2086072415113449,1.0519888401031494,-0.5708741545677185,-0.46819624304771423,-0.6744591593742371,-0.05726921558380127,-0.07199546694755554,0.20989012718200684,0.8852061572781715,0.32647321679439256,-0.2370351647576792,0.23160271120894035
1728066106506188000,1.09918798828125,-0.12925687432289124,0.14067687094211578,0.9547514915466309,-0.5743923783302307,-0.46178555488586426,-0.6758902072906494,-0.06316566467285156,-0.03662759065628052,0.1956961750984192,0.8843887382062008,0.3246532072618599,-0.23802349330138228,0.23622401453364122
1728066106516219000,1.109218994140625,-0.03739086911082268,0.12029410898685455,0.9203226566314697,-0.5779025554656982,-0.4557303190231323,-0.6770070195198059,-0.010598480701446533,0.04851895570755005,0.14528405666351318,0.8835563563734168,0.32297938742365057,-0.23912506787301405,0.2404822526769792
1728066106526250000,1.11925,0.10642582178115845,0.14069919288158417,0.8936026692390442,-0.5811870694160461,-0.4506268799304962,-0.677611231803894,0.04595452547073364,0.13393068313598633,0.033965110778808594,0.8825514491288572,0.3218588734698382,-0.24000257511904685,0.24476228810696798
1728066106536279800,1.12927978515625,0.25371888279914856,0.17670807242393494,0.8700472712516785,-0.5841031670570374,-0.44667908549308777,-0.6777178049087524,0.06570100784301758,0.2153405249118805,-0.02739083766937256,0.8813571588518011,0.3213917746408736,-0.24051701690067476,0.24913580221623366
1728066106546311000,1.139310791015625,0.3833816945552826,0.19153143465518951,0.8455560207366943,-0.5867156386375427,-0.4437711536884308,-0.6773713827133179,0.05020129680633545,0.2640683352947235,-0.050365984439849854,0.8799769056336361,0.32152391892376375,-0.24070037925618173,0.25362671761236605
1728066106556341000,1.149341064453125,0.43266910314559937,0.2265879511833191,0.8077295422554016,-0.5890327095985413,-0.4416542947292328,-0.6767436861991882,0.023786067962646484,0.266819030046463,-0.04125857353210449,0.8784877881423229,0.32207360692113646,-0.24061745327383635,0.25812999629045336
1728066106566371800,1.159371826171875,0.37492331862449646,0.24156387150287628,0.770122766494751,-0.5909368395805359,-0.43972912430763245,-0.6763371825218201,-0.008901476860046387,0.23474249243736267,-0.046624183654785156,0.8770822990909873,0.3226004800100218,-0.2403337922509215,0.26247913867753986
1728066106576403000,1.16940283203125,0.27046799659729004,0.2438291609287262,0.7458318471908569,-0.5926486253738403,-0.43739837408065796,-0.6763507723808289,-0.025317132472991943,0.19170132279396057,-0.014078855514526367,0.8758406247689261,0.3227813868384248,-0.24007662658225232,0.2666059623607122
1728066106586433000,1.17943310546875,0.12983040511608124,0.22413556277751923,0.7225744724273682,-0.5942885875701904,-0.4343380630016327,-0.6768838167190552,-0.012446701526641846,0.14283409714698792,0.020847439765930176,0.8748084754312881,0.3224420003650683,-0.2399776219216382,0.2704667592094339
1728066106596463900,1.1894638671875,0.017490290105342865,0.16684670746326447,0.6759057641029358,-0.5960527658462524,-0.4306069612503052,-0.6777158379554749,0.008513033390045166,0.0810585618019104,0.04333174228668213,0.8739592073176278,0.32164362129782803,-0.24018213410901154,0.27395847337271756
1728066106606494000,1.199493896484375,-0.12854348123073578,0.14521357417106628,0.5669038891792297,-0.5977256298065186,-0.42647430300712585,-0.6788548231124878,0.02443760633468628,0.001043945550918579,0.08891957998275757,0.8733633086140205,0.3204368169753837,-0.24060928632536568,0.2768829716810831
1728066106616525000,1.209525146484375,-0.32687413692474365,0.11711083352565765,0.4370660185813904,-0.5989059805870056,-0.42188727855682373,-0.6806782484054565,0.01469266414642334,-0.050967395305633545,0.12455648183822632,0.8732070592164068,0.3186201166625966,-0.24112669966398634,0.27901390033871887
1728066106626556000,1.219555908203125,-0.358708918094635,0.1465139389038086,0.37981337308883667,-0.5997798442840576,-0.4169885218143463,-0.6829237341880798,-0.015347778797149658,-0.032092928886413574,0.1664290428161621,0.8733519103595276,0.31638788646012794,-0.2417371515229368,0.2805679751363449
1728066106636586000,1.2295859375,-0.30609285831451416,0.22919709980487823,0.3686688244342804,-0.6000887155532837,-0.41241270303726196,-0.6854263544082642,-0.032006680965423584,0.012113571166992188,0.18454140424728394,0.873575049357822,0.3141981333839249,-0.2420048534366563,0.28209888402259264
1728066106646616800,1.239616943359375,-0.23078009486198425,0.3266810476779938,0.3854805827140808,-0.5997551083564758,-0.408256858587265,-0.6882007122039795,-0.046118974685668945,0.05599239468574524,0.14755135774612427,0.8737933804744773,0.31215967604184197,-0.2417767106655501,0.28387609654949103
1728066106656647000,1.24964697265625,-0.18769334256649017,0.3583042323589325,0.34975454211235046,-0.5989102125167847,-0.4045635759830475,-0.6911113858222961,-0.05953711271286011,0.0921398401260376,0.06283080577850342,0.8739981108409974,0.31030352864396343,-0.2411556005341889,0.2858026435094439
1728066106666678000,1.259677978515625,-0.137848362326622,0.34491991996765137,0.27228984236717224,-0.5977590680122375,-0.40152275562286377,-0.6938758492469788,-0.05199074745178223,0.12909230589866638,-0.043535590171813965,0.8742234952149144,0.30869557639017814,-0.24035206769222092,0.2875263031515791
1728066106676708900,1.269708984375,-0.13064397871494293,0.33801940083503723,0.20903445780277252,-0.5963634848594666,-0.3991725444793701,-0.6964280009269714,-0.016048073768615723,0.17251843214035034,-0.050627052783966064,0.8744883975523475,0.30734146635940246,-0.23943106066523692,0.2889360981837809
1728066106686739000,1.279739013671875,-0.09021154046058655,0.29924601316452026,0.225028857588768,-0.5950234532356262,-0.3970194458961487,-0.6988008618354797,0.025031328201293945,0.2076425850391388,-0.03581821918487549,0.8747362708765245,0.30608916326777025,-0.23855604618979256,0.29023605034847455
1728066106696770000,1.28977001953125,0.010414136573672295,0.2853858768939972,0.2407281994819641,-0.5939579010009766,-0.3953259289264679,-0.7006650567054749,0.06127351522445679,0.208298921585083,-0.04391801357269287,0.8747918625039671,0.3052147280871858,-0.23772137407896057,0.29167082483737183
1728066106706799900,1.2997998046875,-0.03275783360004425,0.3019086420536041,0.2058543711900711,-0.5928223729133606,-0.3939293622970581,-0.7024110555648804,0.0734437108039856,0.1620110273361206,-0.058300554752349854,0.874806664295581,0.30449732912210764,-0.23680339507053288,0.2931191560745289
1728066106716831000,1.3098310546875,-0.15246239304542542,0.2662108540534973,0.15181857347488403,-0.5914947986602783,-0.39218607544898987,-0.7045026421546936,0.037432849407196045,0.11922156810760498,-0.01682603359222412,0.8750304123343091,0.3034387141742738,-0.23595257526297342,0.2942331278769033
1728066106726862000,1.319862060546875,-0.22796514630317688,0.15510204434394836,0.16932645440101624,-0.5906118750572205,-0.38993027806282043,-0.7064928412437439,-0.004435181617736816,0.09862467646598816,0.05207395553588867,0.8753373485167534,0.30211498448332025,-0.23554216584116067,0.29501042377784753
1728066106736891600,1.3298916015625,-0.3011443018913269,0.09776739031076431,0.24642230570316315,-0.590611457824707,-0.38671794533729553,-0.7082566022872925,-0.011576652526855469,0.062071919441223145,0.13055890798568726,0.8755765032082896,0.3004820911500149,-0.23575879883993223,0.2957942105565085
1728066106746923000,1.339923095703125,-0.3531688451766968,0.020785201340913773,0.22516441345214844,-0.59124755859375,-0.38292068243026733,-0.7097873687744141,-0.007995665073394775,-0.013487428426742554,0.10578346252441406,0.8757405364720726,0.29869436310963504,-0.23640644099058955,0.2966011421490711
1728066106756952800,1.349952880859375,-0.6345081329345703,0.06775883585214615,0.10847188532352448,-0.5915926694869995,-0.37844300270080566,-0.711898148059845,-0.03532993793487549,-0.11552977561950684,-0.02029472589492798,0.8762630695261457,0.2962922312503494,-0.2371957595479817,0.29683682844544723
1728066106766983700,1.359983642578125,-0.7051144242286682,-0.004926659166812897,-0.011040663346648216,-0.5915526747703552,-0.37310129404067993,-0.7147454023361206,-0.09075939655303955,-0.11398983001708984,-0.0022193193435668945,0.8772628527712969,0.29308955096381023,-0.2381718334951111,0.2962816098963495
1728066106777015000,1.37001513671875,-0.5294867157936096,-0.0777694433927536,-0.08177262544631958,-0.591713011264801,-0.3689127564430237,-0.7167838215827942,-0.10269922018051147,-0.052260369062423706,-0.021833062171936035,0.8781882239818788,0.2904750908584533,-0.23923273986898363,0.29525817558055245
1728066106787044900,1.380044921875,-0.37689757347106934,-0.12831762433052063,-0.024377772584557533,-0.5922766327857971,-0.36599254608154297,-0.7178146243095398,-0.08425229787826538,0.013728141784667969,-0.12633198499679565,0.8788011573467973,0.28870697811255813,-0.24029349683566292,0.2943057250507277
1728066106797075700,1.39007568359375,-0.2280319184064865,-0.14771795272827148,0.11823742836713791,-0.593477189540863,-0.36351463198661804,-0.7180821299552917,-0.05561649799346924,0.07657304406166077,-0.13720345497131348,0.8789992336731747,0.28751624225470457,-0.24144012564280237,0.2939413906611204
1728066106807105800,1.400105712890625,-0.17348359525203705,-0.15013748407363892,0.23230195045471191,-0.5952643752098083,-0.3610757291316986,-0.7178333401679993,-0.027126431465148926,0.07526332139968872,-0.09637558460235596,0.8788078512920168,0.2867004340622896,-0.24266474283769882,0.29430201705122916
1728066106817136600,1.41013671875,-0.35099658370018005,-0.10890083760023117,0.28223034739494324,-0.597169816493988,-0.3576226532459259,-0.717979371547699,-0.01678287982940674,0.020067691802978516,-0.028160154819488525,0.878622414775027,0.2854327750910158,-0.24400503095267037,0.2949787622372064
1728066106827167700,1.420167724609375,-0.440939724445343,-0.05773618072271347,0.23670682311058044,-0.5987828969955444,-0.35302701592445374,-0.7189095616340637,-0.04114025831222534,-0.006729483604431152,0.041556715965270996,0.8787056208660786,0.28341126193273297,-0.2454043042608505,0.29551867187647557
1728066106837197800,1.43019775390625,-0.4289618730545044,0.05100388079881668,0.2080237865447998,-0.5995883345603943,-0.3485713303089142,-0.7204108834266663,-0.07210361957550049,-0.017822742462158203,0.004468560218811035,0.8789859547953589,0.28123529444754264,-0.24637626804863386,0.2959546504835692
1728066106847228700,1.440228759765625,-0.5198346972465515,0.0844830647110939,0.26416027545928955,-0.5999138355255127,-0.34371092915534973,-0.7224723100662231,-0.07750016450881958,-0.024437904357910156,-0.02273637056350708,0.8793839877009352,0.2787482801193091,-0.24710976036978877,0.2965132125727604
1728066106857259800,1.450259765625,-0.5435069799423218,0.03879706561565399,0.277427077293396,-0.6004235744476318,-0.338094025850296,-0.7246958017349243,-0.035242319107055664,0.0035298168659210205,0.003718078136444092,0.8797982476508012,0.2759184085778772,-0.24803453814206453,0.2971582942862963
1728066106867289900,1.460289794921875,-0.5580986738204956,-0.011755216866731644,0.2071976661682129,-0.601201593875885,-0.3325706124305725,-0.7266041040420532,0.011617183685302734,0.030583888292312622,-0.021244406700134277,0.8801931189805405,0.27316066107508363,-0.24916102143876648,0.29759399019218297
1728066106877320700,1.47032080078125,-0.6305528879165649,-0.060084931552410126,0.13666385412216187,-0.6020410060882568,-0.32717278599739075,-0.7283575534820557,0.02591484785079956,0.03548571467399597,-0.035543203353881836,0.8806999415625663,0.27036588468404993,-0.2504466396175618,0.29756771039627816
1728066106887350800,1.480350830078125,-0.6811278462409973,-0.09839242696762085,0.09904216229915619,-0.6030604243278503,-0.32161620259284973,-0.7299870848655701,0.030123412609100342,0.02431395649909973,0.009696006774902344,0.8813000863097001,0.2674271093679114,-0.25197065211201675,0.2971593246530795
1728066106897382000,1.4903818359375,-0.833420991897583,-0.14151246845722198,0.08904625475406647,-0.6042693257331848,-0.31556063890457153,-0.73162841796875,0.03122544288635254,-0.021506041288375854,0.03564453125,0.8819995279883612,0.2641840565621827,-0.25375693017862344,0.2964643808650934
1728066106907412700,1.500412841796875,-1.2026636600494385,-0.16312800347805023,0.11947286874055862,-0.6057573556900024,-0.30749526619911194,-0.7338287830352783,0.03576529026031494,-0.07682785391807556,0.048083603382110596,0.8829660232609428,0.25981426877885644,-0.25609014459810153,0.29544102898804075
1728066106917442800,1.51044287109375,-1.6278194189071655,-0.15057732164859772,0.15931269526481628,-0.6074053049087524,-0.2960984706878662,-0.7371461987495422,0.044859468936920166,-0.11126548051834106,0.11783778667449951,0.884373306013104,0.2535539907166597,-0.2591086288229821,0.2940355557141692
1728066106927473700,1.5204736328125,-1.9814162254333496,-0.0932164117693901,0.1390729397535324,-0.6087908744812012,-0.28172099590301514,-0.7416245937347412,0.056285321712493896,-0.15123191475868225,0.1565873622894287,0.8862371514371473,0.245504236394119,-0.2625173679420019,0.29222627023466136
1728066106937503700,1.530503662109375,-2.2962896823883057,-0.07285228371620178,0.06292863190174103,-0.6096994280815125,-0.26505714654922485,-0.747001588344574,0.053897976875305176,-0.19929835200309753,0.13036346435546875,0.8885638871565507,0.23593606092187566,-0.266145407745885,0.28975019772727584
1728066106947534800,1.540534912109375,-2.409538745880127,-0.09583515673875809,-0.011649727821350098,-0.610429048538208,-0.2469770461320877,-0.7525814771652222,0.026536166667938232,-0.19352896511554718,0.12845122814178467,0.8911523425860588,0.22540569582869102,-0.270002866628647,0.28659803647399973
1728066106957565700,1.550565673828125,-2.3066132068634033,-0.15727587044239044,-0.14370416104793549,-0.6112183332443237,-0.22952476143836975,-0.7574500441551208,0.008480846881866455,-0.15156352519989014,0.09628677368164062,0.8936997103343801,0.2151030482638893,-0.2738715870968304,0.28288860962814755
1728066106967595800,1.560595703125,-2.1747488975524902,-0.14826183021068573,-0.18919441103935242,-0.6120961308479309,-0.21349675953388214,-0.7614180445671082,-0.020502805709838867,-0.08754391968250275,0.07439112663269043,0.8960778821247622,0.2055096995808765,-0.27759094151811947,0.2788431036069156
1728066106977627000,1.570626953125,-2.0179436206817627,-0.13720518350601196,-0.13385233283042908,-0.6128445863723755,-0.19842244684696198,-0.764885663986206,-0.04490083456039429,0.03326128423213959,0.07715684175491333,0.8982304648177648,0.19647806271697865,-0.2809867009262283,0.2750000603534968
1728066106987656700,1.58065673828125,-1.6273571252822876,-0.17722855508327484,-0.00024340907111763954,-0.613953709602356,-0.18464355170726776,-0.7674422860145569,-0.02105611562728882,0.16068722307682037,0.06860506534576416,0.8998766325491424,0.18846779074200923,-0.28418082655066956,0.27192540310766483
1728066106997687800,1.590687744140625,-1.0542075634002686,-0.24346616864204407,0.10651978850364685,-0.6157135963439941,-0.17394062876701355,-0.7685319781303406,0.004568517208099365,0.21845048666000366,0.07753777503967285,0.9007383548591567,0.18261425800489997,-0.2870296674339646,0.2700673895001579
1728066107007719000,1.600718994140625,-0.7006383538246155,-0.2820327877998352,0.13460655510425568,-0.6179957389831543,-0.1665423959493637,-0.7683390974998474,0.02120918035507202,0.19892151653766632,-0.030244827270507812,0.9009500421889998,0.17892461484625238,-0.2895106778696131,0.26918158830978506
1728066107017748700,1.610748779296875,-0.7169307470321655,-0.3372955024242401,0.08463073521852493,-0.6206150054931641,-0.16045476496219635,-0.7675228714942932,0.009363114833831787,0.15255069732666016,-0.10608851909637451,0.9009535821786636,0.17603272790237176,-0.29197781543173046,0.2684105722078419
1728066107027779800,1.62077978515625,-0.964445948600769,-0.3492735028266907,0.022253643721342087,-0.6234471797943115,-0.15363724529743195,-0.7666219472885132,-0.019863367080688477,0.10302382707595825,-0.03998810052871704,0.9010909481249545,0.17262783014682745,-0.29476882390423775,0.26710677893388735
1728066107037810000,1.630809814453125,-1.101159930229187,-0.3246179521083832,-0.10356713831424713,-0.6259934902191162,-0.14574569463729858,-0.7660877108573914,-0.041807472705841064,0.051965147256851196,-0.011561214923858643,0.9015303032868203,0.1683696797283864,-0.2976706398544735,0.26511691224347056
1728066107047840800,1.6408408203125,-1.1740357875823975,-0.25714311003685,-0.1658579260110855,-0.628107488155365,-0.1379275768995285,-0.7658047676086426,-0.05594402551651001,0.01451447606086731,-0.06575340032577515,0.9022098100811475,0.1638539599982782,-0.30041553737877436,0.26252590883497096
1728066107057872000,1.650871826171875,-1.3445957899093628,-0.18680714070796967,-0.08080723136663437,-0.6296128630638123,-0.1290196180343628,-0.7661211490631104,-0.08025652170181274,0.023169398307800293,-0.09981507062911987,0.9030661587193096,0.15861339459580331,-0.30295415162481626,0.2598696124006059
1728066107067902000,1.66090185546875,-1.3437118530273438,-0.260995090007782,0.0010817800648510456,-0.6313214302062988,-0.1187324970960617,-0.7663784623146057,-0.04751163721084595,0.05511859059333801,-0.07294642925262451,0.9038299570124269,0.15276903719178087,-0.30573255735698296,0.25745044923604876
1728066107077932800,1.670932861328125,-1.159064769744873,-0.27197158336639404,0.02011858858168125,-0.633388340473175,-0.10893377661705017,-0.766128420829773,-0.0058634281158447266,0.05136234313249588,-0.01675426959991455,0.9043483737618558,0.14736644290176817,-0.30857564120850806,0.2553789256891102
1728066107087963000,1.680962890625,-0.8815485835075378,-0.28841057419776917,-0.025414275005459785,-0.635618269443512,-0.10100116580724716,-0.7653680443763733,0.0030193328857421875,0.003466963768005371,-0.02976745367050171,0.9046427356719408,0.1430599894183092,-0.31120703758372925,0.2535855132157722
1728066107097993700,1.69099365234375,-0.535508394241333,-0.2526293992996216,-0.12408865243196487,-0.6376651525497437,-0.09601731598377228,-0.7643061280250549,0.011352837085723877,-0.025381624698638916,-0.06288802623748779,0.9048048420253759,0.14030438932671338,-0.31330752951317736,0.2519551034917463
1728066107108024800,1.70102490234375,-0.28254184126853943,-0.21260954439640045,-0.19539372622966766,-0.6393336057662964,-0.09392879903316498,-0.7631709575653076,0.006765186786651611,0.0004076659679412842,-0.05601233243942261,0.9049160665507867,0.13901237310882905,-0.3147857488012714,0.25042470737462635
1728066107118055000,1.711054931640625,0.02169821597635746,-0.17866356670856476,-0.2549862265586853,-0.6406277418136597,-0.09426915645599365,-0.7620429992675781,0.005022823810577393,0.08180270344018936,-0.0309256911277771,0.9049804743180725,0.13896820118863554,-0.31569974748895085,0.24906238314656765
1728066107128085800,1.721085693359375,0.41543179750442505,-0.1717340648174286,-0.2839973568916321,-0.6417413353919983,-0.09763417392969131,-0.7606810927391052,0.008318424224853516,0.16976244747638702,0.0032500624656677246,0.9048846269492479,0.1405854032225653,-0.3160620317273196,0.24804144812889964
1728066107138115800,1.73111572265625,0.8264520764350891,-0.158232644200325,-0.2530980408191681,-0.642776370048523,-0.10411418229341507,-0.758945882320404,0.005920231342315674,0.21618996560573578,-0.006434917449951172,0.9044988754160577,0.1440557643340777,-0.3158718062229871,0.2476991756699939
1728066107148147000,1.74114697265625,1.058223009109497,-0.1106932982802391,-0.20969170331954956,-0.6435981392860413,-0.11280874162912369,-0.7570043802261353,0.011731624603271484,0.2117161899805069,-0.02000361680984497,0.9038571565327794,0.14890562000388494,-0.3151585508677013,0.24808161147686003
1728066107158177800,1.751177734375,1.2020195722579956,-0.05663832277059555,-0.22733886539936066,-0.643998920917511,-0.12277233600616455,-0.7551108598709106,0.013276815414428711,0.17167672514915466,-0.011704325675964355,0.903125176086222,0.1544804437495033,-0.3139751199438663,0.24883822566190467
1728066107168208000,1.761207763671875,1.1072168350219727,-0.02845856361091137,-0.21983328461647034,-0.6440668702125549,-0.13307534158229828,-0.7533053159713745,0.004677772521972656,0.11656531691551208,-0.005285382270812988,0.9024105709783671,0.1601875146360072,-0.3125496969690614,0.2496154517608322
1728066107178239000,1.771239013671875,0.9104737043380737,0.0005547120235860348,-0.1744314432144165,-0.6439234614372253,-0.14185921847820282,-0.7518235445022583,0.0010401010513305664,0.061994701623916626,0.049858272075653076,0.9018182869669543,0.16502041807829976,-0.3112177613029623,0.2502711357500881
1728066107188268800,1.781268798828125,0.8149383068084717,0.04169389232993126,-0.16733571887016296,-0.6435597538948059,-0.14941473305225372,-0.7506704926490784,0.019841432571411133,-0.008895233273506165,0.12992775440216064,0.9013275389449898,0.16915352490324637,-0.30992230763808104,0.2508866270137543
1728066107198300000,1.7912998046875,0.7187364101409912,0.06344472616910934,-0.14788079261779785,-0.6429254412651062,-0.1561010181903839,-0.7498528957366943,0.0350610613822937,-0.09592841565608978,0.1433771252632141,0.9009607205324983,0.17273739783529793,-0.3086022583124134,0.25138864623302853
1728066107208330800,1.801330810546875,0.6735835075378418,0.02548333816230297,-0.1491953283548355,-0.642332911491394,-0.1622958779335022,-0.7490450739860535,0.04098397493362427,-0.1435513198375702,0.15442532300949097,0.9006018839266153,0.1760667416196818,-0.3073727051028149,0.25187044786978885
1728066107218360800,1.81136083984375,0.47377079725265503,-0.07151884585618973,-0.19157235324382782,-0.6422758102416992,-0.16767655313014984,-0.7479080557823181,0.07315343618392944,-0.15321581065654755,0.06655734777450562,0.9002541325034195,0.1789542615051408,-0.30662902480869686,0.2519854072948678
1728066107228392000,1.821391845703125,0.39431145787239075,-0.13475681841373444,-0.27568671107292175,-0.6426752209663391,-0.17228378355503082,-0.7465165257453918,0.10960936546325684,-0.11839617788791656,-0.044346511363983154,0.9000015567350994,0.18132817582192298,-0.30636880018906343,0.251506525332474
1728066107238422000,1.831422119140625,0.3781295716762543,-0.1816958338022232,-0.37498772144317627,-0.643324613571167,-0.17725300788879395,-0.7447918057441711,0.13072079420089722,-0.05876997113227844,-0.09462469816207886,0.8998039044850475,0.18377201781254912,-0.3063200153124023,0.25049710005741344
1728066107248452900,1.841452880859375,0.276017963886261,-0.1924118548631668,-0.40228673815727234,-0.6440706253051758,-0.18223214149475098,-0.7429431080818176,0.115353524684906,-0.014377385377883911,-0.0789562463760376,0.8996926294925485,0.186097460414161,-0.30642481955049927,0.24904785260047435
1728066107258484000,1.85148388671875,0.2696322500705719,-0.2156548649072647,-0.33502352237701416,-0.6449326872825623,-0.1865420788526535,-0.741123378276825,0.08215796947479248,0.053699031472206116,0.0038645267486572266,0.8995903722845251,0.1880899464099613,-0.3066928095942185,0.24758607400072963
1728066107268513800,1.861513671875,0.3163904547691345,-0.1633116602897644,-0.277801513671875,-0.6458461880683899,-0.1906801462173462,-0.7392725348472595,0.05433917045593262,0.0990968644618988,0.0469355583190918,0.8993749054018724,0.19013270535770355,-0.30694182076783993,0.2464978888985743
1728066107278545000,1.871544921875,0.30588001012802124,-0.06028354912996292,-0.29594963788986206,-0.6461549401283264,-0.19478069245815277,-0.7379325032234192,0.01805734634399414,0.09420998394489288,0.023546576499938965,0.8992427664281956,0.19210367698449893,-0.30680600481387993,0.24561935264440382
1728066107288576000,1.881575927734375,0.16751201450824738,-0.0167048629373312,-0.32312214374542236,-0.6457864046096802,-0.1986374706029892,-0.737226665019989,-0.0189475417137146,0.07601781189441681,0.014219522476196289,0.899335973859671,0.19374186794143397,-0.3063507090402127,0.24455728878249575
1728066107298605800,1.891605712890625,0.01975024677813053,-0.06687748432159424,-0.25589674711227417,-0.6454878449440002,-0.20112188160419464,-0.7368144392967224,-0.03096485137939453,0.07166628539562225,0.04743766784667969,0.8995521778382976,0.19460405337978784,-0.30614056483085733,0.24333775855962528
1728066107308637000,1.901636962890625,0.05129479244351387,-0.1677698940038681,-0.14442801475524902,-0.6459187269210815,-0.2026466280221939,-0.7360186576843262,0.007246792316436768,0.07277904450893402,0.08033323287963867,0.8995892012451603,0.195192251698598,-0.30641583460759925,0.24238149500173006
1728066107318667000,1.9116669921875,-0.10063482075929642,-0.16181373596191406,-0.07110133767127991,-0.6470828652381897,-0.2031736671924591,-0.7348498106002808,0.024875223636627197,0.027956977486610413,0.10331910848617554,0.899436546154184,0.19550306924481003,-0.30717038823428766,0.24174130741564492
1728066107328697900,1.92169775390625,-0.4288531243801117,-0.06162482500076294,-0.09235815703868866,-0.6477470993995667,-0.2017839401960373,-0.7346474528312683,0.01337820291519165,-0.0524122416973114,0.06089574098587036,0.8996098106377577,0.19459848702753202,-0.30790857820122497,0.24088557714273368
1728066107338729000,1.93172900390625,-0.8657939434051514,-0.04525144770741463,-0.04799335449934006,-0.6479743719100952,-0.19748707115650177,-0.7356140613555908,-0.01494377851486206,-0.12421400845050812,0.060656845569610596,0.9002484771698633,0.19184942949053146,-0.30884745683994486,0.23949888541174927
1728066107348759000,1.941759033203125,-1.3146746158599854,-0.07378008216619492,0.07186993211507797,-0.648449182510376,-0.1893017590045929,-0.7373456358909607,-0.008426487445831299,-0.180800199508667,0.11095714569091797,0.9011771535500919,0.18695239678451395,-0.3104447980200069,0.23780830593648236
1728066107358790000,1.951789794921875,-1.786767840385437,-0.2020176649093628,0.11237367987632751,-0.649662435054779,-0.1771625429391861,-0.7392917275428772,0.04988515377044678,-0.2442547231912613,0.15246927738189697,0.9022681399694445,0.17994602180539823,-0.31300729730702365,0.23570789590266955
1728066107368820000,1.961820068359375,-2.214289665222168,-0.31390613317489624,0.08383151888847351,-0.6518133282661438,-0.1615178883075714,-0.7409800291061401,0.08807730674743652,-0.297649621963501,0.16946208477020264,0.9034987673501993,0.17096767839023905,-0.31667022868565103,0.2327662615041125
1728066107378850800,1.971850830078125,-2.407851457595825,-0.4473765790462494,-0.07949721813201904,-0.6546687483787537,-0.14412708580493927,-0.7420487403869629,0.09535777568817139,-0.2964246869087219,0.12376260757446289,0.9048115872264434,0.16083550484691228,-0.32110367312275934,0.228780590537995
1728066107388882000,1.9818818359375,-2.2779836654663086,-0.5327281951904297,-0.21345368027687073,-0.6581636667251587,-0.12749715149402618,-0.7420007586479187,0.08309036493301392,-0.2018333226442337,-0.008060216903686523,0.9060316265975207,0.15088626095120042,-0.3259339563770984,0.22384642352236445
1728066107398912000,1.991912109375,-1.8401838541030884,-0.6219286918640137,-0.15671557188034058,-0.6622667908668518,-0.11339008808135986,-0.7406386137008667,0.02670764923095703,-0.012205027043819427,-0.1052323579788208,0.906810418638028,0.14244221306732296,-0.3307429740706484,0.21912192837290442
1728066107408942800,2.00194287109375,-1.3327925205230713,-0.5849648118019104,-0.01623302884399891,-0.6667689681053162,-0.10218305140733719,-0.7382261753082275,0.018133044242858887,0.1659800261259079,-0.14777541160583496,0.9069720353718684,0.13604752845785573,-0.3352282647254974,0.2156732791686693
1728066107418973000,2.011972900390625,-1.0330227613449097,-0.4867277145385742,-0.0023992378264665604,-0.6707321405410767,-0.09355272352695465,-0.7357760071754456,0.036210596561431885,0.22998154163360596,-0.13638579845428467,0.9068423069305352,0.1313240659870088,-0.3389188472629028,0.21336628971304336
1728066107429004000,2.022004150390625,-1.0947743654251099,-0.44622206687927246,-0.06117041036486626,-0.6741008162498474,-0.08609656244516373,-0.7336044907569885,0.0016916990280151367,0.14743687212467194,-0.048606812953948975,0.9067684434539783,0.1271272775555628,-0.34210586594499515,0.21112389498295908
1728066107439035000,2.032034912109375,-1.3789656162261963,-0.4031824767589569,-0.031121695414185524,-0.6772381663322449,-0.07738887518644333,-0.7316826581954956,-0.0387042760848999,-0.006122492253780365,0.0731590986251831,0.906846017174184,0.12206803483631218,-0.3453376167403633,0.20849878298758984
1728066107449065000,2.04206494140625,-1.803188681602478,-0.33936429023742676,0.02094283699989319,-0.6799921989440918,-0.06574496626853943,-0.7302658557891846,-0.03849846124649048,-0.14125579595565796,0.10573887825012207,0.9071398721337631,0.11522984808080851,-0.34869635618217204,0.2055000181154796
1728066107459096000,2.052095947265625,-2.1454293727874756,-0.2751650810241699,0.044376254081726074,-0.6822977662086487,-0.050905290991067886,-0.7293000221252441,-0.060011863708496094,-0.2005900889635086,0.11002212762832642,0.9076645110807023,0.1064097667117416,-0.35217459130312945,0.2019785806068632
1728066107469126000,2.0621259765625,-2.161672592163086,-0.24458378553390503,0.07585614919662476,-0.6842021346092224,-0.03463105112314224,-0.7284697890281677,-0.09901630878448486,-0.17034026980400085,0.0641937255859375,0.908253691334115,0.09668053445107608,-0.3555530680418769,0.19826837013655357
1728066107479157000,2.072156982421875,-2.079913854598999,-0.279067724943161,0.11127007007598877,-0.6861416101455688,-0.018456704914569855,-0.72723388671875,-0.09286540746688843,-0.11536289006471634,0.008026123046875,0.9086674042266396,0.08708734399024608,-0.3588855661511842,0.1947837547622692
1728066107489187800,2.082187744140625,-1.9977202415466309,-0.3263697922229767,0.1300962269306183,-0.6884077191352844,-0.0027139002922922373,-0.7253188490867615,-0.04613518714904785,-0.0515158511698246,-0.02419281005859375,0.9088343530886244,0.07784634422582534,-0.3623265332414736,0.19151918334504567
1728066107499218000,2.092218017578125,-1.9301726818084717,-0.3006433844566345,0.13465848565101624,-0.6907229423522949,0.012415416538715363,-0.7230129837989807,-0.008114397525787354,0.011739234440028667,-0.005105853080749512,0.9088435991324134,0.06899351590402801,-0.3656957842077527,0.1884408476702816
1728066107509249000,2.1022490234375,-1.8770498037338257,-0.26511797308921814,0.11083251237869263,-0.6928144693374634,0.027133913710713387,-0.7206052541732788,-0.0000718832015991211,0.05221177637577057,0.013833463191986084,0.9088122704144935,0.060309729713670636,-0.3688632674901625,0.1853726983822132
1728066107519279000,2.112279052734375,-1.7366021871566772,-0.10616933554410934,0.09149157255887985,-0.6941925883293152,0.040900520980358124,-0.7186263799667358,-0.01407468318939209,0.07778233289718628,0.05096280574798584,0.9088649234930325,0.0520549667615049,-0.37145268376072443,0.18242214289463365
1728066107529310000,2.12231005859375,-1.5626555681228638,0.07650353759527206,-0.000013045500963926315,-0.6942803263664246,0.05317576229572296,-0.7177375555038452,-0.036264777183532715,0.06157032027840614,0.048563361167907715,0.909189034295808,0.04443215400402401,-0.37303753190750943,0.17956667424819844
1728066107539341000,2.132341064453125,-1.3948084115982056,0.22289857268333435,-0.12254295498132706,-0.69326251745224,0.06333477050065994,-0.7178968191146851,-0.052526116371154785,0.03793780505657196,0.08715951442718506,0.9098218455009487,0.03770752839094699,-0.37367063545846485,0.1765579404157602
1728066107549371000,2.142370849609375,-1.1933108568191528,0.2910766005516052,-0.2612758278846741,-0.6915152668952942,0.07152052223682404,-0.7188125848770142,-0.041623830795288086,0.06222275644540787,0.14015352725982666,0.9106962473022349,0.031834637920171376,-0.37360443956610095,0.17331685031865318
1728066107559402000,2.152402099609375,-0.9267529845237732,0.2618476152420044,-0.40603700280189514,-0.689807116985321,0.0765433982014656,-0.7199356555938721,0.0025969743728637695,0.13137286901474,0.18664097785949707,0.9116728460699615,0.027514610170796698,-0.3731958354824382,0.16976615349642027
1728066107569431800,2.162431884765625,-0.5169258117675781,0.32358092069625854,-0.1724034547805786,-0.6879794001579285,0.08005974441766739,-0.7213008403778076,-0.013955533504486084,0.2538788616657257,0.2387722134590149,0.9125549211958345,0.02430968930760399,-0.37250316037288445,0.16701549312004424
1728066107579463000,2.172462890625,0.3159746527671814,0.3555774688720703,-0.13392290472984314,-0.6856249570846558,0.07971207052469254,-0.7235774993896484,0.011979937553405762,0.3812711834907532,0.1288357377052307,0.9133080864641265,0.023915750964778153,-0.3709976984033128,0.16630422297401942
1728066107589494000,2.182493896484375,0.3721674084663391,0.43745556473731995,-0.25397422909736633,-0.6829694509506226,0.07557931542396545,-0.7265263199806213,0.03636300563812256,0.30607348680496216,-0.1723994016647339,0.9141406526459188,0.025712811425133757,-0.3688844034509245,0.16616257876031865
1728066107599523800,2.19252392578125,0.12614884972572327,0.48532161116600037,-0.20542851090431213,-0.679764986038208,0.07211623340845108,-0.729875922203064,-0.06452822685241699,0.16225874423980713,-0.12988048791885376,0.9151607253768534,0.026916381930535947,-0.36652086120932004,0.16558657396869844
1728066107609555000,2.202554931640625,-0.19035285711288452,0.49552035331726074,-0.10927268862724304,-0.6762906312942505,0.07128965109586716,-0.7331772446632385,-0.08857148885726929,0.013213522732257843,0.007225096225738525,0.9161851243046909,0.02666144135861123,-0.3642808773672837,0.16490473260195565
1728066107619584800,2.212584716796875,-0.5593047738075256,0.4968186318874359,-0.07568597048521042,-0.6727620363235474,0.07348579913377762,-0.7362004518508911,-0.05228984355926514,-0.12448069453239441,0.012430369853973389,0.91719367544052,0.024680591455752243,-0.36234050087677205,0.1638784051695517
1728066107629615900,2.222615966796875,-0.8481794595718384,0.4764920175075531,-0.07843568176031113,-0.6692275404930115,0.07830016314983368,-0.7389205694198608,-0.051338255405426025,-0.17858093976974487,0.030271947383880615,0.9182182674147326,0.021109199668565413,-0.3606856111512537,0.1622824191232391
1728066107639647000,2.23264697265625,-0.9778754115104675,0.44780948758125305,-0.1766922026872635,-0.6659287214279175,0.08428903669118881,-0.7412383556365967,-0.03545677661895752,-0.1926264464855194,-0.003802478313446045,0.9192285848668468,0.016739122322300463,-0.35930574868324394,0.16011877892870452
1728066107649676800,2.2426767578125,-1.1744532585144043,0.4047940671443939,-0.1987953782081604,-0.6629616022109985,0.09099653363227844,-0.7431027293205261,-0.014955997467041016,-0.19046857953071594,-0.1085970401763916,0.9202252313302924,0.011779868028809894,-0.35820365943269,0.15728035671473192
1728066107659708000,2.2527080078125,-1.129260540008545,0.39036452770233154,-0.10102834552526474,-0.6601822972297668,0.09880710393190384,-0.7445780634880066,-0.03177332878112793,-0.10317111760377884,0.007059812545776367,0.9210955482666145,0.006300246033462721,-0.3573111557478457,0.15450589414465143
1728066107669737700,2.26273779296875,-0.8079173564910889,0.36766257882118225,-0.1436341255903244,-0.6574613451957703,0.10536722093820572,-0.7460846900939941,-0.0004671812057495117,0.023981526494026184,0.054373323917388916,0.921879389710627,0.0016977978754337552,-0.35630711315161107,0.1522528590075788
1728066107679768800,2.272768798828125,-0.4635045826435089,0.3454539477825165,-0.24254605174064636,-0.6550554037094116,0.10882236808538437,-0.7477032542228699,0.016963303089141846,0.10795924067497253,-0.015007257461547852,0.9226545174275889,-0.0011531987162030312,-0.35517184917948513,0.15020103777286353
1728066107689799700,2.282799560546875,-0.18162314593791962,0.3144439160823822,-0.23305721580982208,-0.6528794169425964,0.10960770398378372,-0.7494896650314331,-0.0014022588729858398,0.18918991088867188,-0.054526448249816895,0.9234145558737887,-0.0024375148342015694,-0.35390568222199487,0.1484944070317638
1728066107699829800,2.292829833984375,0.14476536214351654,0.352940171957016,-0.15097245573997498,-0.6506234407424927,0.10858912020921707,-0.7515967488288879,-0.0012320876121520996,0.2582321763038635,-0.04207390546798706,0.9241354271666604,-0.002482701899300964,-0.35241377034986504,0.14755441743832318
1728066107709860900,2.30286083984375,0.4796272814273834,0.3860197961330414,-0.13684386014938354,-0.6479933857917786,0.10527606308460236,-0.7543351650238037,0.006956338882446289,0.26262861490249634,0.0020769238471984863,0.924892012876102,-0.0010376353073206705,-0.3504730114158628,0.14745309862822506
1728066107719891000,2.312890869140625,0.8517364263534546,0.33232566714286804,-0.11574523895978928,-0.6453686356544495,0.09951261430978775,-0.757361650466919,-0.011262893676757812,0.22765108942985535,0.07254719734191895,0.9256170230250823,0.001949553438800502,-0.34830357633003084,0.14803421867652305
1728066107729921800,2.322921875,1.3078426122665405,0.2050168216228485,-0.23594221472740173,-0.6435089707374573,0.09014251828193665,-0.7601122260093689,0.0178680419921875,0.20522186160087585,0.038234174251556396,0.9261747794722992,0.007110190339622124,-0.3462561844550522,0.14918589752556022
1728066107739953000,2.332952880859375,1.5400243997573853,0.08844440430402756,-0.26447319984436035,-0.6426523327827454,0.07756977528333664,-0.762221097946167,0.06600737571716309,0.20552653074264526,-0.1371166706085205,0.9265449905727045,0.014069462609807586,-0.3445163384487454,0.15041631606982767
1728066107749982700,2.342982666015625,2.053076982498169,0.11307768523693085,-0.07209789007902145,-0.6421256065368652,0.06280447542667389,-0.7640224695205688,0.016942501068115234,0.2879645526409149,-0.10879546403884888,0.926655598708156,0.022597029133766256,-0.34275084975463244,0.15271122440895513
1728066107760013800,2.353013916015625,2.4236643314361572,0.2695663869380951,-0.07170560956001282,-0.6407339572906494,0.0452173575758934,-0.7664303183555603,-0.01835423707962036,0.3619329035282135,-0.0916019082069397,0.926695366077327,0.03299729013108903,-0.34014118298551743,0.1563677619146472
1728066107770044000,2.3630439453125,2.6802902221679688,0.31100401282310486,-0.26107048988342285,-0.6384406089782715,0.024391062557697296,-0.7692844867706299,-0.05775696039199829,0.3480912148952484,-0.13478344678878784,0.9268500581981538,0.04494825419087832,-0.3366561991255141,0.1599727661244963
1728066107780074800,2.37307470703125,2.6818459033966064,0.1960124671459198,-0.30548110604286194,-0.6364971995353699,0.0017589796334505081,-0.7712770104408264,-0.0590442419052124,0.24784427881240845,-0.1616300344467163,0.9268210101214349,0.05773240839324433,-0.3332093252471684,0.16322201914484827
1728066107790105900,2.38310595703125,2.5521953105926514,-0.09350761026144028,-0.33943426609039307,-0.6360568404197693,-0.02060076966881752,-0.7713671922683716,0.08622157573699951,0.06216569244861603,-0.19455987215042114,0.9263284349711616,0.07042661398522919,-0.33069092757332036,0.16613032197507066
1728066107800136000,2.393135986328125,2.259122610092163,-0.2949312627315521,-0.3885546624660492,-0.6375925540924072,-0.04149750992655754,-0.7692553400993347,0.20549410581588745,-0.06812164932489395,-0.10360842943191528,0.9253595696809085,0.08236847129187987,-0.3295265823650575,0.16833755123186064
1728066107810166800,2.403166748046875,2.3102617263793945,-0.16797438263893127,-0.44511380791664124,-0.6393389701843262,-0.061358001083135605,-0.7664730548858643,0.1499895453453064,-0.06487797945737839,-0.04552334547042847,0.9242974739761485,0.09364486177798552,-0.3286245606308944,0.17003205118995632
1728066107820196900,2.41319677734375,2.2775630950927734,0.042705364525318146,-0.5409204959869385,-0.639431357383728,-0.08246475458145142,-0.7644129395484924,-0.014194250106811523,-0.002419903874397278,-0.11286056041717529,0.9234639360549618,0.10532217034984954,-0.3266508263261544,0.17152519814405012
1728066107830228000,2.42322802734375,2.207068920135498,0.18399420380592346,-0.5281506776809692,-0.6380603313446045,-0.10267206281423569,-0.7631103992462158,-0.19700747728347778,0.1287645697593689,-0.1723448634147644,0.9228881774927247,0.11624996321091118,-0.3239301429993947,0.17272145168796363
1728066107840258800,2.4332587890625,2.4785025119781494,0.11902213096618652,-0.5174788236618042,-0.636235237121582,-0.1241302490234375,-0.7614436149597168,-0.21361833810806274,0.2922362983226776,-0.05011028051376343,0.922151997571632,0.12791830191486406,-0.3208038246294025,0.1742341897900147
1728066107850289000,2.443288818359375,2.1967544555664062,0.14450106024742126,-0.510998547077179,-0.6347747445106506,-0.14516007900238037,-0.758939802646637,-0.09282541275024414,0.24206861853599548,-0.11439692974090576,0.9211998615641197,0.13942145404230422,-0.31794928680084705,0.17567261708149426
1728066107860319700,2.45331982421875,2.286992073059082,0.1186167448759079,-0.4078005254268646,-0.6330481767654419,-0.1650599241256714,-0.7563102841377258,-0.02536863088607788,0.2360895574092865,-0.050925374031066895,0.9201963727897643,0.15034527697795969,-0.31502563739812184,0.17718308534940913
1728066107870349800,2.463349853515625,2.16127872467041,0.04036108776926994,-0.34243112802505493,-0.6318113207817078,-0.18438918888568878,-0.7528712749481201,0.02322971820831299,0.1705341786146164,0.012865841388702393,0.9188948486983007,0.16120760582421867,-0.31237231411492933,0.17907554407572465
1728066107880381000,2.473380859375,1.7794466018676758,-0.0043086460791528225,-0.25388872623443604,-0.6311348676681519,-0.20117488503456116,-0.7491311430931091,0.12570267915725708,-0.01722419261932373,-0.017119407653808594,0.9175386150606559,0.17076756086511266,-0.31027867540440346,0.18080000428525855
1728066107890411800,2.483411865234375,1.283536672592163,-0.001704500988125801,-0.10513626784086227,-0.6308592557907104,-0.2137729376554489,-0.745867133140564,0.14744549989700317,-0.18503080308437347,0.15461957454681396,0.9163423262055562,0.17809160643880323,-0.3087876735263456,0.18234668620368957
1728066107900441900,2.49344189453125,0.6690625548362732,0.05565732717514038,0.007294401992112398,-0.630548357963562,-0.2214195728302002,-0.7438966631889343,0.15137654542922974,-0.3302620053291321,0.2480623722076416,0.9155281236667007,0.18267514127264203,-0.30770353096883174,0.18373024869057453
1728066107910473000,2.503472900390625,-0.34508562088012695,0.04690202325582504,0.130716472864151,-0.6303094625473022,-0.22229844331741333,-0.7438369393348694,0.14094477891921997,-0.44187089800834656,0.27923738956451416,0.9153928149007453,0.18331425340246907,-0.30737176944505895,0.18432183107133604
1728066107920502800,2.513502685546875,-1.2079415321350098,0.03918818011879921,0.30578893423080444,-0.6304829716682434,-0.21495495736598969,-0.7458455562591553,0.11247754096984863,-0.4660906195640564,0.36568814516067505,0.9159722918201202,0.17928690949752527,-0.3081126629939753,0.18416757718986582
1728066107930534000,2.523533935546875,-2.006333589553833,0.032008349895477295,0.39057067036628723,-0.6309686303138733,-0.20065832138061523,-0.7494096755981445,0.12301874160766602,-0.48786404728889465,0.3693438172340393,0.917107791241498,0.171323608271583,-0.3097472669841857,0.1833528801286427
1728066107940565000,2.53356494140625,-2.800698757171631,0.02029869519174099,0.4314882755279541,-0.6315213441848755,-0.17985272407531738,-0.7542107105255127,0.11981779336929321,-0.5408809185028076,0.30499202013015747,0.9187744353453153,0.1595556685778586,-0.312148403350279,0.18154604582440603
1728066107950594800,2.5435947265625,-3.579961061477661,-0.18902252614498138,0.3954109847545624,-0.6329187154769897,-0.1529293656349182,-0.7589641213417053,0.10449153184890747,-0.5420475006103516,0.3143230676651001,0.9206852210744776,0.14423402150281253,-0.31577598676203966,0.17838421224519105
1728066107960626000,2.5536259765625,-3.9393503665924072,-0.17585505545139313,0.25692445039749146,-0.6349382400512695,-0.12177761644124985,-0.7629047632217407,0.10616010427474976,-0.42312902212142944,0.308269202709198,0.9226499244062997,0.1262933953599736,-0.32030857727008405,0.17369432793941889
1728066107970656000,2.563656005859375,-3.3968441486358643,-0.10167764872312546,0.2668953537940979,-0.6361290216445923,-0.09160559624433517,-0.7661255598068237,0.08597332239151001,-0.10030420869588852,0.17507636547088623,0.9244323283675979,0.10874153529259488,-0.324210568836905,0.1687834900961687
1728066107980686800,2.573686767578125,-2.151412010192871,-0.04036688804626465,0.38974830508232117,-0.6370221972465515,-0.06789296865463257,-0.767849862575531,0.010374188423156738,0.3562687933444977,0.053036630153656006,0.9254650707533737,0.09523125071148149,-0.32711785209936073,0.16564889802058547
1728066107990718000,2.583718017578125,-0.5142002701759338,-0.04720040038228035,0.5478540658950806,-0.6376686096191406,-0.05455942451953888,-0.7683762311935425,-0.027278900146484375,0.8117005228996277,-0.09548479318618774,0.9256204165048174,0.08826349599235687,-0.328666147583278,0.16557464778727587
1728066108000748000,2.593748046875,0.6947981119155884,0.0066702887415885925,0.648247241973877,-0.638154923915863,-0.051767315715551376,-0.7681657075881958,-0.06771671772003174,1.0377445220947266,-0.2542036771774292,0.9250052679708726,0.08795564123411076,-0.32890873304743407,0.16866616153237352
1728066108010779000,2.60377880859375,0.8587679266929626,-0.031982459127902985,0.5935274958610535,-0.6386070847511292,-0.0542820543050766,-0.7676160931587219,-0.09422683715820312,0.9138553738594055,-0.2559128999710083,0.9240684930992497,0.09085465575882866,-0.3285382455782926,0.17293237251498628
1728066108020810000,2.61381005859375,0.4473353326320648,-0.013992538675665855,0.6020592451095581,-0.6391862034797668,-0.055466897785663605,-0.7670491933822632,-0.13234400749206543,0.585160493850708,-0.03879791498184204,0.9231882607510266,0.09292123556045627,-0.328391593643315,0.1767717117482901
1728066108030839800,2.62383984375,-0.052411895245313644,-0.07567081600427628,0.5792543292045593,-0.6398219466209412,-0.05322766304016113,-0.766677737236023,-0.10724842548370361,0.19324229657649994,0.10823053121566772,0.9224919858099002,0.09292968187130717,-0.3286718632839189,0.1798543244253956
1728066108040871000,2.633870849609375,-0.5931001305580139,-0.17328526079654694,0.43384116888046265,-0.6410465836524963,-0.04735647141933441,-0.7660396695137024,-0.04581260681152344,-0.16126170754432678,0.03746300935745239,0.9219713338523994,0.09065118942910241,-0.3297916613129696,0.18162849122028965
1728066108050901000,2.64390087890625,-0.8679921627044678,-0.348734050989151,0.3147648572921753,-0.6431930661201477,-0.03920349106192589,-0.7646998167037964,0.009815990924835205,-0.3481714129447937,-0.05240827798843384,0.9215415556859214,0.08679433577494107,-0.33183857993015187,0.18196450197876993
1728066108060931800,2.653931884765625,-0.9415883421897888,-0.5064679980278015,0.41296839714050293,-0.646655261516571,-0.030002951622009277,-0.7621920704841614,0.04643547534942627,-0.3429523706436157,-0.08839380741119385,0.9208773170625649,0.08242230224194202,-0.3348290890383536,0.18188190522343584
1728066108070962000,2.6639619140625,-0.9730967283248901,-0.46483537554740906,0.5804604291915894,-0.6506643295288086,-0.01925692893564701,-0.7591213583946228,0.05139058828353882,-0.17282071709632874,-0.1375156044960022,0.9199433235958973,0.07753205948103721,-0.33827223235173587,0.18238752836173355
1728066108080993000,2.673992919921875,-0.7415018677711487,-0.34171929955482483,0.4551145136356354,-0.6538004279136658,-0.00915608648210764,-0.7566116452217102,0.016349196434020996,0.03646930679678917,-0.12696373462677002,0.9190938216938331,0.07298705011978698,-0.34112616120437517,0.18322811534138933
1728066108091024000,2.68402392578125,-0.5292913317680359,-0.35045287013053894,0.2875968813896179,-0.656403660774231,-0.002006561728194356,-0.7544072866439819,-0.0645895004272461,0.13820649683475494,-0.11697638034820557,0.918398078589706,0.069784031852725,-0.3434043646710701,0.1837083230232128
1728066108101054000,2.694053955078125,-0.3179112374782562,-0.3619880676269531,0.28627809882164,-0.6591668725013733,0.0031523238867521286,-0.7519900798797607,-0.11060851812362671,0.19650891423225403,-0.05355185270309448,0.9176568389292146,0.06762286710922621,-0.3455895013444289,0.1841223421818452
1728066108111085000,2.7040849609375,-0.003353007370606065,-0.38029786944389343,0.3099716901779175,-0.661949098110199,0.00636413786560297,-0.7495217323303223,-0.034507811069488525,0.2633654773235321,0.007395386695861816,0.9167884647652653,0.06669721455241974,-0.34754942617049006,0.18509397822941545
1728066108121115000,2.714114990234375,0.27317893505096436,-0.4091300070285797,0.2707148492336273,-0.6648800373077393,0.007325400598347187,-0.7469142079353333,0.03365439176559448,0.2704455852508545,-0.005756020545959473,0.9157780907766742,0.06716804670756454,-0.3493298477346771,0.18656787042910944
1728066108131146000,2.72414599609375,0.44168516993522644,-0.43885064125061035,0.2249835878610611,-0.6680877804756165,0.006273190025240183,-0.7440560460090637,0.05813288688659668,0.20280271768569946,-0.0008474588394165039,0.9146665810852828,0.06879684531843432,-0.3510540752178431,0.1881840292530579
1728066108141176800,2.7341767578125,0.5171139240264893,-0.3896793723106384,0.21938535571098328,-0.6712361574172974,0.004204419441521168,-0.7412316203117371,0.04652601480484009,0.12647183239459991,0.052312612533569336,0.9135390248474631,0.07099989341806318,-0.35262332255781315,0.18990060707062678
1728066108151207000,2.74420703125,0.5577424764633179,-0.36842986941337585,0.2174423187971115,-0.6739605665206909,0.0017191333463415504,-0.7387653589248657,0.026606380939483643,0.0694020688533783,0.09936106204986572,0.9124820901581103,0.07341296523367943,-0.3538754705991233,0.19172728343797413
1728066108161238000,2.754238037109375,0.5827074646949768,-0.4092992842197418,0.19179047644138336,-0.6768766641616821,-0.0011059701209887862,-0.736095666885376,0.040630877017974854,0.034110717475414276,0.08008980751037598,0.9113653228539368,0.07604233315981056,-0.3552037883498956,0.19354906305497152
1728066108171268900,2.764268798828125,0.5169726014137268,-0.41401207447052,0.1353389322757721,-0.6799277067184448,-0.004073399119079113,-0.7332678437232971,0.06379300355911255,0.006911518517881632,0.08026796579360962,0.9102519286116796,0.07868454468389847,-0.35661579820945394,0.19512892963282868
1728066108181299000,2.774298828125,0.397779643535614,-0.4291609227657318,0.07569902390241623,-0.6830615401268005,-0.006676084827631712,-0.7303303480148315,0.04733455181121826,-0.034812577068805695,0.09657180309295654,0.9091993752241242,0.08098692077742413,-0.358156326806437,0.1962696456046845
1728066108191330000,2.784330078125,0.2995132505893707,-0.45728710293769836,0.03255980834364891,-0.6862965226173401,-0.008829638361930847,-0.7272683382034302,0.025682449340820312,-0.07211825251579285,0.10391628742218018,0.9082117295225625,0.08289344621178486,-0.35985345369095195,0.19694122829790706
1728066108201360000,2.79435986328125,0.2254382222890854,-0.4780893325805664,0.0052616107277572155,-0.6897509098052979,-0.010565058328211308,-0.7239697575569153,0.007728755474090576,-0.07189345359802246,0.08250558376312256,0.9072254342040313,0.08449824081281865,-0.36176672936045556,0.197299580962652
1728066108211391000,2.804390869140625,0.24294066429138184,-0.4603550136089325,0.033128127455711365,-0.6931931376457214,-0.012044548988342285,-0.7206513285636902,-0.00659024715423584,-0.006311789155006409,0.06737679243087769,0.9062476000298024,0.08594546601608619,-0.36371379533426557,0.19758832066225787
1728066108221422000,2.814422119140625,0.4449408948421478,-0.4091264307498932,0.07747349143028259,-0.6963467597961426,-0.014061602763831615,-0.7175677418708801,-0.027972757816314697,0.0753866583108902,0.0592731237411499,0.9052462425609035,0.08779729459258603,-0.36538713041050463,0.1982756472403847
1728066108231452000,2.824451904296875,0.6220447421073914,-0.42227819561958313,0.06503945589065552,-0.6993750333786011,-0.017304982990026474,-0.7145454287528992,-0.0317651629447937,0.09744413197040558,0.011924028396606445,0.9041535316456627,0.09048159648149014,-0.36679745448639306,0.19944730400167576
1728066108241483000,2.83448291015625,0.7530285716056824,-0.42476266622543335,0.07482577115297318,-0.7024310231208801,-0.021835537627339363,-0.7114169001579285,-0.01688361167907715,0.07273884117603302,-0.04514431953430176,0.9029865768111964,0.09394027999008116,-0.3680581185781995,0.20080807613552215
1728066108251513000,2.84451318359375,0.6463831067085266,-0.37575364112854004,0.13241104781627655,-0.7053390741348267,-0.026113808155059814,-0.7083889842033386,-0.023664891719818115,0.02414540946483612,-0.06517058610916138,0.9017847784192999,0.09736214797563832,-0.36922369048097653,0.20243229442578983
1728066108261544000,2.8545439453125,0.36403125524520874,-0.34056422114372253,0.05511625111103058,-0.7078810930252075,-0.02901923470199108,-0.7057352662086487,-0.034718453884124756,-0.06227411329746246,-0.027159571647644043,0.9007724557188207,0.09984285020726909,-0.3703562729422923,0.20365814698357868
1728066108271575000,2.864574951171875,0.1693357527256012,-0.3814058005809784,0.0013283886946737766,-0.710401713848114,-0.03057973086833954,-0.7031318545341492,-0.05272090435028076,-0.13654980063438416,0.050940752029418945,0.8999604787456055,0.10127199314879523,-0.37172309105850976,0.20405223074702206
1728066108281605000,2.874605224609375,0.1847085803747177,-0.4165760576725006,0.02715439535677433,-0.7132853865623474,-0.031669244170188904,-0.700157880783081,-0.04907435178756714,-0.1345600187778473,0.08162766695022583,0.8990957881964683,0.10242620810311276,-0.373403161686139,0.2042198852696013
1728066108291636000,2.884635986328125,0.24680763483047485,-0.4732125997543335,0.043535761535167694,-0.7164058089256287,-0.03289836272597313,-0.6969078183174133,-0.007608532905578613,-0.06375081837177277,0.021859049797058105,0.8981187648586023,0.10376553165640706,-0.3752050210441319,0.204540413392547
1728066108301665800,2.894665771484375,0.3237951099872589,-0.49041181802749634,0.14343467354774475,-0.7198526859283447,-0.034225065261125565,-0.6932826638221741,0.007297694683074951,0.05245929956436157,-0.07354778051376343,0.8969493538233508,0.10538138347344862,-0.3771650056415053,0.20523969840272335
1728066108311697000,2.90469677734375,0.2973775863647461,-0.46647700667381287,0.1655263900756836,-0.7232656478881836,-0.03518016263842583,-0.6896733045578003,-0.02554422616958618,0.11553293466567993,-0.08210092782974243,0.8956878911439449,0.1069768409315594,-0.37910327714878567,0.20634951890207381
1728066108321728000,2.91472802734375,0.2756219506263733,-0.4189230799674988,0.07890014350414276,-0.7263673543930054,-0.03622669726610184,-0.6863512992858887,-0.04131758213043213,0.09155505150556564,-0.04501765966415405,0.894566270438745,0.10846005856534179,-0.3808684505466274,0.2071879706262602
1728066108331757800,2.9247578125,0.349315345287323,-0.4372602701187134,0.06848425418138504,-0.7293111085891724,-0.03773907944560051,-0.6831406950950623,-0.06281852722167969,0.07339884340763092,0.011998116970062256,0.8935123185803712,0.11010121426307971,-0.38250147671650603,0.207861293313622
1728066108341789000,2.934788818359375,0.3826133906841278,-0.517385721206665,0.06477633863687515,-0.7325984239578247,-0.03981883078813553,-0.6794953942298889,-0.012915551662445068,0.07836250960826874,0.012793183326721191,0.8923125326556691,0.11215995563153053,-0.38428172261467763,0.2086290200019621
1728066108351818800,2.94481884765625,0.31663963198661804,-0.5080607533454895,0.06858119368553162,-0.7361833453178406,-0.04166489839553833,-0.6754984855651855,0.0444413423538208,0.06794051826000214,0.025657176971435547,0.8910306484455206,0.11412753684534588,-0.3862973857724458,0.20931719160247927
1728066108361849900,2.954849853515625,0.2669983208179474,-0.43853306770324707,0.04442472383379936,-0.7394230961799622,-0.04322110116481781,-0.6718522310256958,0.04794055223464966,0.033684346824884415,0.041435420513153076,0.8898765955062696,0.11582647348958226,-0.38814704197513433,0.2098707676309292
1728066108371881000,2.964880859375,0.170345276594162,-0.396122545003891,0.05004985257983208,-0.7422306537628174,-0.044308677315711975,-0.6686782240867615,0.018597722053527832,0.002072330564260483,0.03978729248046875,0.8888934503925937,0.11712526429927042,-0.3897981027882367,0.21025638811418207
1728066108381910800,2.974910888671875,0.1927989274263382,-0.43230903148651123,0.06229320168495178,-0.7450160980224609,-0.045033637434244156,-0.6655247211456299,0.010183274745941162,0.012181449681520462,0.07561993598937988,0.8879152966156884,0.11823050186925187,-0.3914833364628371,0.21063949334897974
1728066108391942000,2.98494189453125,0.18951104581356049,-0.41257885098457336,0.07760052382946014,-0.7479173541069031,-0.04575001448392868,-0.6622135043144226,0.053428709506988525,0.05165514349937439,0.07650488615036011,0.8868776711402112,0.11938621132106149,-0.39324317003378145,0.21108048239742816
1728066108401971700,2.9949716796875,0.1689903289079666,-0.37810102105140686,0.09065986424684525,-0.7506020069122314,-0.04622567445039749,-0.6591356992721558,0.04930800199508667,0.0823432058095932,0.05534541606903076,0.8858910251112029,0.1204008871428519,-0.3948870515432251,0.21157753453336509
1728066108412002800,3.0050029296875,0.16735349595546722,-0.35552892088890076,0.06128253787755966,-0.7530847787857056,-0.0467868372797966,-0.6562578678131104,0.009279787540435791,0.0637088194489479,0.03534722328186035,0.8849637771439007,0.12141923365458099,-0.39639430046536833,0.21205704705174092
1728066108422033700,3.01503369140625,-0.022531496360898018,-0.3357943594455719,0.055802278220653534,-0.7553776502609253,-0.046918127685785294,-0.6536078453063965,-0.017296910285949707,-0.0348995104432106,-0.013658881187438965,0.8841625618360547,0.12205475075799642,-0.39786769979448006,0.21227452411043046
1728066108432063700,3.025063720703125,-0.22355453670024872,-0.32054805755615234,0.05844093859195709,-0.7575858235359192,-0.04553299769759178,-0.6511455774307251,-0.031903982162475586,-0.11949081718921661,0.006080329418182373,0.883519239490967,0.12165965726329954,-0.39953241131425493,0.2120532565785144
1728066108442095900,3.035095947265625,-0.18170510232448578,-0.2660648226737976,0.07502710819244385,-0.7595503330230713,-0.04358001425862312,-0.6489871144294739,-0.03160279989242554,-0.10063081979751587,0.06254607439041138,0.8829854860198605,0.1208630117831702,-0.40112165728683047,0.21173196740100297
1728066108452125700,3.045125732421875,-0.06744711101055145,-0.23157307505607605,0.06583414226770401,-0.76121985912323,-0.04223424196243286,-0.6471172571182251,-0.013209521770477295,-0.04986782371997833,0.021674752235412598,0.8824738845180492,0.12044561758370675,-0.40241051766569397,0.2116569703271475
1728066108462156800,3.05515673828125,-0.04244934394955635,-0.24254024028778076,0.08806807547807693,-0.7627735137939453,-0.04128625988960266,-0.6453465223312378,0.03804200887680054,-0.025486215949058533,-0.04779922962188721,0.8819495291042234,0.12029708965421179,-0.40355340032460474,0.21175098751016894
1728066108472187600,3.065187744140625,-0.06641746312379837,-0.2850344777107239,0.07790198922157288,-0.7645443081855774,-0.04027014598250389,-0.6433120369911194,0.07229876518249512,-0.0351540632545948,-0.02538907527923584,0.8813431239018115,0.12017104136776449,-0.4048492422374353,0.2118735530550532
1728066108482217700,3.0752177734375,-0.10427349805831909,-0.29073843359947205,0.05159049108624458,-0.7664530277252197,-0.039198506623506546,-0.6411031484603882,0.07829684019088745,-0.07727184891700745,-0.005610048770904541,0.8807336605135482,0.1199554566340826,-0.40627466103917176,0.2118014324959025
1728066108492248800,3.085248779296875,-0.09209559112787247,-0.3040488362312317,0.03123701922595501,-0.768367350101471,-0.03821597248315811,-0.638867199420929,0.048716962337493896,-0.11609617620706558,-0.05678093433380127,0.8801412970457271,0.11974183847380072,-0.40771104670402053,0.2116247540400221
1728066108502279000,3.09527880859375,-0.136015385389328,-0.3166450560092926,0.03093581460416317,-0.7704252004623413,-0.03719788417220116,-0.6364443302154541,0.019479095935821533,-0.12289734184741974,-0.08608978986740112,0.8795248178333896,0.11948275755065896,-0.4092697088357209,0.211325457496235
1728066108512309800,3.105309814453125,-0.05784274637699127,-0.280435711145401,0.024706149473786354,-0.7723181843757629,-0.03624415770173073,-0.634201169013977,0.006510019302368164,-0.061000123620033264,-0.08113080263137817,0.8789461341109175,0.11924910234022663,-0.4107055661662646,0.21107933754233527
1728066108522340900,3.1153408203125,0.04584449902176857,-0.31156063079833984,-0.011229481548070908,-0.7742121815681458,-0.03614560887217522,-0.6318932175636292,0.012859582901000977,0.024228479713201523,-0.06776797771453857,0.8783194183979579,0.11953640599014584,-0.41202480937770375,0.21095414790721706
1728066108532370700,3.12537060546875,0.10049808770418167,-0.30048587918281555,-0.017882855609059334,-0.7761390805244446,-0.03670071065425873,-0.6294928789138794,0.042603254318237305,0.07196375727653503,-0.047280192375183105,0.8776591924516104,0.12020021688495265,-0.41328618911170384,0.2108574443068817
1728066108542401800,3.13540185546875,0.1745547354221344,-0.30044910311698914,-0.02749100886285305,-0.7780551910400391,-0.03769659623503685,-0.6270638704299927,0.07172578573226929,0.10471317917108536,-0.03864651918411255,0.8769658721603598,0.1211514172073288,-0.41447604547507255,0.21086227108726371
1728066108552431900,3.145431884765625,0.2230096161365509,-0.2772955894470215,-0.05639216676354408,-0.7798589468002319,-0.039280232042074203,-0.6247215867042542,0.07607775926589966,0.10406903922557831,-0.0222509503364563,0.8762825850994429,0.12242881272918855,-0.4155121995573492,0.21092550328558188
1728066108562462700,3.155462646484375,0.18991665542125702,-0.23957592248916626,-0.05577830970287323,-0.7814961075782776,-0.041074320673942566,-0.6225566267967224,0.05760383605957031,0.07101204991340637,-0.024736404418945312,0.8756585153149198,0.12377055819897456,-0.41641630488039716,0.21095135305114257
1728066108572493800,3.165493896484375,0.09516344964504242,-0.14141377806663513,0.013871612027287483,-0.7827167510986328,-0.04208977520465851,-0.6209532618522644,0.04095643758773804,0.052679359912872314,-0.01126408576965332,0.8751796642906918,0.12463006087625922,-0.4171219289730328,0.21103854974004593
1728066108582524000,3.17552392578125,0.032068632543087006,-0.026122067123651505,0.06056375056505203,-0.7832567095756531,-0.04212898388504982,-0.6202693581581116,0.0327073335647583,0.047820497304201126,0.027618050575256348,0.8749249456848919,0.12488639207037797,-0.41745503698497943,0.21128437978370868
1728066108592554800,3.1855546875,-0.023172184824943542,0.0002676229923963547,0.1034718006849289,-0.7833489179611206,-0.04153670370578766,-0.6201930046081543,0.05875462293624878,0.018083922564983368,0.0570521354675293,0.8748087358620896,0.12477044650229031,-0.417535424231538,0.21167527393447969
1728066108602584800,3.195584716796875,-0.11422539502382278,-0.001463165506720543,0.12912124395370483,-0.7834199070930481,-0.04011716693639755,-0.6201967000961304,0.11604619026184082,-0.04212772101163864,0.09813255071640015,0.8747219240220945,0.1241860259866645,-0.4177074265004811,0.2120375425520515
1728066108612616000,3.205615966796875,-0.11153167486190796,0.032474614679813385,0.1567012071609497,-0.7834478616714478,-0.038238976150751114,-0.6202799677848816,0.15380913019180298,-0.07981829345226288,0.15702319145202637,0.8746530356096123,0.12335235508320086,-0.4179045641482533,0.212419367682505
1728066108622646800,3.215646728515625,-0.10607192665338516,0.1454022377729416,0.17648503184318542,-0.7829686403274536,-0.03628803417086601,-0.6210020184516907,0.12301057577133179,-0.09240461140871048,0.15721112489700317,0.8747220095554089,0.12245670095933031,-0.41773599196709055,0.21298512908898912
1728066108632676900,3.2256767578125,-0.11711079627275467,0.23082983493804932,0.20192354917526245,-0.7818331122398376,-0.034077245742082596,-0.6225558519363403,0.06105363368988037,-0.0953325629234314,0.11796301603317261,0.8749936097058476,0.12134481317569172,-0.4171300762277112,0.21369188787051713
1728066108642707700,3.235707763671875,-0.1302551031112671,0.24554938077926636,0.2075348198413849,-0.780405580997467,-0.031649671494960785,-0.6244721412658691,0.044153690338134766,-0.0931825041770935,0.12334305047988892,0.8753455871304797,0.12009697069588694,-0.416341974993411,0.21449078768152596
1728066108652737500,3.245737548828125,-0.10100313276052475,0.2241431176662445,0.20137625932693481,-0.7789735198020935,-0.02926425263285637,-0.6263735890388489,0.08083808422088623,-0.08754178881645203,0.13166844844818115,0.8756911261811525,0.11887518529034094,-0.41555011797080965,0.21529489345844302
1728066108662769000,3.255768798828125,-0.023236701264977455,0.16344168782234192,0.1833735704421997,-0.7778512239456177,-0.027333442121744156,-0.6278538703918457,0.1031990647315979,-0.06624872982501984,0.1062016487121582,0.8759097692688824,0.11797940034232256,-0.41491436675421706,0.2161231220229774
1728066108672799700,3.2657998046875,-0.03761657327413559,0.17856812477111816,0.21374158561229706,-0.7769333720207214,-0.025700191035866737,-0.6290581822395325,0.09175264835357666,-0.044139303267002106,0.04368525743484497,0.8760267597481702,0.11733141998356793,-0.41437212851738153,0.21704009926168533
1728066108682829600,3.27582958984375,-0.07382197678089142,0.23336638510227203,0.2432989627122879,-0.7757508754730225,-0.023922109976410866,-0.6305857300758362,0.042108237743377686,-0.03180300071835518,-0.026610195636749268,0.8762356110117387,0.11654688146812839,-0.4136713007709526,0.21795438302350362
1728066108692861000,3.28586083984375,-0.03539949283003807,0.23833930492401123,0.24490056931972504,-0.7744415998458862,-0.02240796945989132,-0.6322485208511353,0.002163708209991455,-0.027213627472519875,-0.028090834617614746,0.8764759482780126,0.1158892614830779,-0.41285037173720684,0.218893264414362
1728066108702890800,3.295890869140625,-0.08347726613283157,0.2083321362733841,0.2802758514881134,-0.7730903029441833,-0.019976763054728508,-0.6339814066886902,0.021594882011413574,-0.04967962205410004,-0.012136697769165039,0.8766776892224694,0.11483641599303258,-0.41209452067324925,0.2200615104276169
1728066108712921600,3.305921630859375,0.01279473677277565,0.213677316904068,0.29293200373649597,-0.771796464920044,-0.01741521991789341,-0.6356311440467834,0.08649367094039917,-0.044245559722185135,0.020808815956115723,0.8768187986059587,0.11379216993851417,-0.4113827623062477,0.22136927418660107
1728066108722953000,3.315952880859375,0.08096473664045334,0.22650256752967834,0.2781517207622528,-0.7704625129699707,-0.01555409375578165,-0.6372954845428467,0.1210637092590332,-0.02865063026547432,0.04653632640838623,0.8769171260979819,0.11319926967092775,-0.41053400436489046,0.22285445345420804
1728066108732982500,3.325982421875,0.02589389495551586,0.3157159686088562,0.32618823647499084,-0.7688029408454895,-0.013560104183852673,-0.6393419504165649,0.09750771522521973,-0.04163094982504845,0.03585690259933472,0.8770909922461564,0.11252026908021774,-0.4094730776628352,0.2244603304267471
1728066108743013600,3.336013671875,-0.03572313115000725,0.40765467286109924,0.3467598259449005,-0.7665041089057922,-0.010891119949519634,-0.6421470642089844,0.05124831199645996,-0.039646003395318985,0.06536489725112915,0.8774559378234645,0.11138031120748058,-0.40806970274353105,0.22615194173480596
1728066108753043700,3.346043701171875,-0.09789089858531952,0.44832944869995117,0.3636554479598999,-0.7637693285942078,-0.007717394270002842,-0.6454432606697083,0.03554350137710571,-0.05826162174344063,0.07420003414154053,0.8779593539041437,0.10987284285943,-0.4064558155794812,0.22783581749951648
1728066108763074600,3.356074462890625,-0.19942523539066315,0.46146735548973083,0.39457473158836365,-0.7608321905136108,-0.0037953821010887623,-0.6489376425743103,0.06538224220275879,-0.08960367739200592,0.06609773635864258,0.8785306639169781,0.10789752603694128,-0.4048324485094973,0.22946182903517587
1728066108773105700,3.366105712890625,-0.23274365067481995,0.5398099422454834,0.44018909335136414,-0.7576408386230469,0.0008156278054229915,-0.652671217918396,0.1092643141746521,-0.08557821065187454,0.06587928533554077,0.8791581061341576,0.10551965213152903,-0.4031500757371362,0.231120560412082
1728066108783135700,3.3761357421875,-0.3255699872970581,0.6405216455459595,0.47629863023757935,-0.7537224888801575,0.006132176611572504,-0.6571642756462097,0.1063072681427002,-0.07597166299819946,0.06715273857116699,0.8799601083461326,0.10268271894516658,-0.40109115857560473,0.23292157588947435
1728066108793166600,3.38616650390625,-0.3950364291667938,0.7056978940963745,0.508072555065155,-0.7492493391036987,0.012304981239140034,-0.6621737480163574,0.09100037813186646,-0.07390472292900085,0.07559549808502197,0.8809148137481974,0.0992654017922595,-0.39882263600963597,0.2346829022007659
1728066108803196700,3.39619677734375,-0.3368165194988251,0.7354078888893127,0.5092208981513977,-0.744315505027771,0.01862100511789322,-0.6675685048103333,0.09488612413406372,-0.051595259457826614,0.14051473140716553,0.8819427911090013,0.09574035472595824,-0.3962947418262382,0.23656134856970415
1728066108813227800,3.406227783203125,-0.35294803977012634,0.7744491696357727,0.5321081280708313,-0.7391710877418518,0.02477528527379036,-0.6730619668960571,0.12811756134033203,-0.040568143129348755,0.10549604892730713,0.8829665314996206,0.09231337673824092,-0.39363341834573995,0.23853987149244746
1728066108823258600,3.416258544921875,-0.39944708347320557,0.862379252910614,0.5497840046882629,-0.7334293127059937,0.031355120241642,-0.6790422797203064,0.1125490665435791,-0.053266748785972595,0.08788633346557617,0.8840999670204402,0.08858761539153713,-0.3906802808705592,0.2406004914159402
1728066108833288700,3.426288818359375,-0.48412421345710754,0.9111875295639038,0.5368331074714661,-0.7271932363510132,0.03834277763962746,-0.6853611469268799,0.06801348924636841,-0.08299000561237335,0.09136700630187988,0.8853548284873544,0.08450962484701315,-0.3875274977928091,0.2425438054316778
1728066108843319600,3.436319580078125,-0.5617809295654297,0.9350249171257019,0.5280092358589172,-0.7205777168273926,0.04588964581489563,-0.6918540000915527,0.04970967769622803,-0.12149695307016373,0.05980449914932251,0.8867112493174488,0.07998811032276748,-0.3842849132418116,0.24427495693467044
1728066108853349600,3.446349609375,-0.5372795462608337,0.9756870865821838,0.5041071176528931,-0.7136432528495789,0.05350678041577339,-0.6984628438949585,0.04691046476364136,-0.12371248006820679,0.07799476385116577,0.8881258000148078,0.07533875642424163,-0.3809102916490436,0.24589433888923723
1728066108863380700,3.456380615234375,-0.5591217279434204,0.9679942727088928,0.4720380902290344,-0.7066137790679932,0.06078888475894928,-0.7049834728240967,0.062280893325805664,-0.08067110180854797,0.052059948444366455,0.8895453077839001,0.07081210518274145,-0.3774836636533431,0.24738823796219422
1728066108873411600,3.46641162109375,-0.44516363739967346,0.8915030360221863,0.48107340931892395,-0.6995935440063477,0.06791482120752335,-0.7113062143325806,0.07936948537826538,0.0012685209512710571,0.011248230934143066,0.8909098660563946,0.06638030789277467,-0.3740862913186044,0.2488631234558087
1728066108883441700,3.476441650390625,-0.28877881169319153,0.8290180563926697,0.467098206281662,-0.6932005882263184,0.07376129925251007,-0.7169604897499084,0.09107345342636108,0.05972258001565933,0.03226810693740845,0.8919987726266098,0.06287053196701003,-0.37090034089430507,0.2506362982007572
1728066108893472800,3.48647265625,-0.29394495487213135,0.8421688675880432,0.41718578338623047,-0.6868629455566406,0.07891683280467987,-0.7224898338317871,0.06511300802230835,0.03880471736192703,0.01284933090209961,0.893079824862677,0.059689237505604564,-0.36768502959067456,0.25229656868441447
1728066108903502600,3.496502685546875,-0.3135596811771393,0.8411076068878174,0.45902910828590393,-0.6803604960441589,0.08400696516036987,-0.7280470132827759,-0.03858792781829834,0.03163938969373703,0.01703321933746338,0.8941599543670797,0.0565242662969839,-0.36439195154510223,0.2539716293853274
1728066108913533700,3.50653369140625,-0.16338342428207397,0.848678469657898,0.4140280783176422,-0.6737534999847412,0.08888045698404312,-0.7335915565490723,-0.09116965532302856,0.04275710880756378,0.028223514556884766,0.8951941109259219,0.05351167636516879,-0.36102733250413954,0.25577998870871627
1728066108923564800,3.516564697265625,-0.14422358572483063,0.8685957193374634,0.3416244387626648,-0.6671232581138611,0.09264877438545227,-0.7391635775566101,-0.08637106418609619,0.04344435781240463,0.06640362739562988,0.8962792597349223,0.0509969886213693,-0.35751575522460793,0.2574206289868917
1728066108933594600,3.5265947265625,-0.057841215282678604,0.8632630109786987,0.2651893198490143,-0.6603756546974182,0.09540162980556488,-0.7448506951332092,-0.08988380432128906,0.00492490828037262,0.0919729471206665,0.8974619114449847,0.04888601966955802,-0.3538146358490979,0.2588195785319874
1728066108943625700,3.536625732421875,0.0584568977355957,0.8653344511985779,0.2546711564064026,-0.6536574959754944,0.09708086401224136,-0.7505379915237427,-0.05604410171508789,-0.0034071654081344604,0.12137234210968018,0.8986513308604132,0.04731589087307376,-0.3499888922676449,0.26018231818208815
1728066108953655800,3.54665576171875,0.11850238591432571,0.8308608531951904,0.28100156784057617,-0.6469502449035645,0.0980583131313324,-0.7562010884284973,-0.0015178918838500977,-0.027181237936019897,0.12228995561599731,0.899762680865368,0.04619527497285307,-0.3460714741606938,0.26177812158682384
1728066108963686700,3.556686767578125,0.041984714567661285,0.822898268699646,0.2633488178253174,-0.6404931545257568,0.09917004406452179,-0.7615338563919067,0.04704827070236206,-0.06297620385885239,0.09829539060592651,0.9007892370264872,0.04503660514944733,-0.34235181041742013,0.2633358709367581
1728066108973717800,3.5667177734375,-0.08077582716941833,0.9072611331939697,0.3305446207523346,-0.633551836013794,0.10124176740646362,-0.7670477032661438,0.03392714262008667,-0.05575531721115112,0.033557772636413574,0.901884461451393,0.04327403044281795,-0.33853138793280213,0.264817566160711
1728066108983747800,3.576747802734375,-0.29286253452301025,0.9521697163581848,0.35661351680755615,-0.6260170340538025,0.10479716956615448,-0.772735595703125,-0.06297838687896729,-0.08602885901927948,0.000518798828125,0.9030165278198378,0.040666218240901726,-0.3346318504824692,0.2663250726697099
1728066108993778700,3.58677880859375,-0.6205505728721619,0.960519552230835,0.3038499057292938,-0.618198573589325,0.11045176535844803,-0.7782229781150818,-0.1179160475730896,-0.20307262241840363,-0.023794174194335938,0.9042623639821512,0.036741507865618174,-0.330966112478243,0.26724744006059586
1728066109003808800,3.596808837890625,-0.7381661534309387,0.8793869018554688,0.278959721326828,-0.6106375455856323,0.11773544549942017,-0.7831093072891235,-0.08589571714401245,-0.24976974725723267,0.019651055335998535,0.9055220925292669,0.03183525108820313,-0.32776799369381693,0.2675528023327977
1728066109013839600,3.606839599609375,-0.6467868089675903,0.7670620083808899,0.28391242027282715,-0.60380619764328,0.12497184425592422,-0.7872738838195801,0.043991684913635254,-0.17494437098503113,0.09537935256958008,0.9065909981644396,0.02708906805555761,-0.32500652352979104,0.2678242493943457
1728066109023870700,3.61687060546875,-0.5064060091972351,0.6547873616218567,0.2799514830112457,-0.597835898399353,0.13125577569007874,-0.7907997965812683,0.15803176164627075,-0.060516029596328735,0.09850853681564331,0.9074318499369565,0.02304798345579205,-0.32259712794192746,0.26826761029517926
1728066109033900800,3.62690087890625,-0.3089061975479126,0.6214278936386108,0.2747569978237152,-0.5924341678619385,0.13619165122509003,-0.7940236926078796,0.16981148719787598,0.05298680067062378,0.036897897720336914,0.9081229421238334,0.01986931428208956,-0.3203019930952473,0.2689324601204843
1728066109043931600,3.636931640625,-0.18335840106010437,0.594002902507782,0.2586800158023834,-0.5871807336807251,0.13962110877037048,-0.7973235249519348,0.09868580102920532,0.09603562951087952,-0.053277671337127686,0.9087574724658352,0.0175660677030615,-0.3178516644738215,0.2698549762688689
1728066109053961700,3.646961669921875,-0.35571932792663574,0.5026570558547974,0.24924446642398834,-0.582399308681488,0.14320756494998932,-0.8001891374588013,0.03590571880340576,0.035091400146484375,-0.14323121309280396,0.9093170205924015,0.015215124459092205,-0.31571176634053044,0.2706239031120224
1728066109063992800,3.656992919921875,-0.5841042995452881,0.3450245261192322,0.2714591920375824,-0.5785837769508362,0.14851923286914825,-0.8019868731498718,-0.008910179138183594,-0.031011298298835754,-0.09286481142044067,0.9096657321436382,0.01207462079864441,-0.3144213253562307,0.2711122945678069
1728066109074023700,3.667023681640625,-0.7488275170326233,0.24222692847251892,0.26626870036125183,-0.575861930847168,0.1555660218000412,-0.8026096820831299,0.005244195461273193,-0.0346096009016037,-0.08316302299499512,0.9097802028890125,0.008155799202258996,-0.314051971306956,0.2713022158601768
1728066109084053800,3.6770537109375,-0.6808476448059082,0.22349239885807037,0.2223835438489914,-0.5736404061317444,0.1628962755203247,-0.8027462363243103,0.004670679569244385,0.0301731675863266,-0.11116361618041992,0.9098208215054925,0.004114588609154511,-0.3140222261200685,0.2712918753995285
1728066109094084900,3.6870849609375,-0.4947529137134552,0.18948116898536682,0.16655170917510986,-0.5716392993927002,0.16874468326568604,-0.8029656410217285,-0.05708390474319458,0.09088361263275146,-0.09321355819702148,0.9098898797240806,0.0008459798518427946,-0.313873320268154,0.2712625963982288
1728066109104114700,3.69711474609375,-0.4076283872127533,0.10296598821878433,0.10182303935289383,-0.5701902508735657,0.17308035492897034,-0.8030730485916138,-0.0717623233795166,0.09017954766750336,-0.12781989574432373,0.909944033618758,-0.0015912839782534932,-0.3137848624077387,0.2711800544539745
1728066109114145800,3.707145751953125,-0.30063873529434204,0.004770975559949875,0.04115995392203331,-0.5696726441383362,0.17643345892429352,-0.8027106523513794,-0.039427757263183594,0.07010279595851898,-0.1125878095626831,0.9099198415016299,-0.0034396057497664764,-0.31405865333675115,0.2709269918897961
1728066109124176600,3.7171767578125,-0.20038458704948425,-0.06065915897488594,-0.004695948213338852,-0.5698321461677551,0.17848695814609528,-0.8021432161331177,-0.03606384992599487,0.06034359335899353,-0.08884793519973755,0.9098566650175577,-0.004545892748501995,-0.3144959749445484,0.27061512878641464
1728066109134206700,3.727206787109375,-0.14939910173416138,-0.1047310158610344,0.018829617649316788,-0.5705481171607971,0.17987936735153198,-0.8013228178024292,-0.06409543752670288,0.058829113841056824,-0.13762670755386353,0.9097019381594355,-0.005203700987301648,-0.31513729204206764,0.2703769779032367
1728066109144237800,3.73723779296875,-0.0994749441742897,-0.17686060070991516,0.03200826793909073,-0.5715895891189575,0.1810893416404724,-0.8003075122833252,-0.09851545095443726,0.09132581949234009,-0.1891791820526123,0.9094410114444302,-0.005654562424557871,-0.3159339701474897,0.27031654316496556
1728066109154268000,3.747267822265625,-0.0952705442905426,-0.2074517458677292,0.005540710408240557,-0.5732192397117615,0.1819142997264862,-0.7989537119865417,-0.1223069429397583,0.1340341866016388,-0.24679213762283325,0.9090910620384093,-0.005819468910655517,-0.3170004560850237,0.27024163524992084
1728066109164298800,3.757298828125,-0.13566377758979797,-0.1826886087656021,0.061772823333740234,-0.5747114419937134,0.1830541342496872,-0.7976201772689819,-0.1599230170249939,0.1304071694612503,-0.2608056664466858,0.9087340161298402,-0.006150074724651933,-0.31804414323885394,0.27020866807690813
1728066109174329900,3.767329833984375,-0.21813301742076874,-0.15657663345336914,0.08636178821325302,-0.575899064540863,0.18495327234268188,-0.7963243722915649,-0.16842472553253174,0.08647008240222931,-0.20158511400222778,0.9083534079546527,-0.0068715875131371545,-0.31904636341501125,0.27028925258783293
1728066109184359700,3.777359619140625,-0.3224570155143738,-0.18525701761245728,0.025331726297736168,-0.5771659016609192,0.18741868436336517,-0.7948294281959534,-0.13383269309997559,-0.0019938796758651733,-0.09062284231185913,0.9079890688720929,-0.007947126025006445,-0.3201907749758688,0.270130951357111
1728066109194390800,3.787390869140625,-0.3385336101055145,-0.16358773410320282,0.0044797067530453205,-0.5785572528839111,0.19022414088249207,-0.7931496500968933,-0.08921319246292114,-0.045525044202804565,0.01054161787033081,0.9076718142125452,-0.009289669483269298,-0.3214636552583613,0.2696419888045159
1728066109204420900,3.7974208984375,-0.28414228558540344,-0.11669132858514786,0.011378094553947449,-0.5796908140182495,0.19279491901397705,-0.7916998863220215,-0.043798625469207764,0.0010222196578979492,0.051709651947021484,0.907412521331318,-0.010553692716003238,-0.3225502610342757,0.269170164228712
1728066109214451700,3.80745166015625,-0.15989302098751068,-0.07907625287771225,-0.01467534527182579,-0.5804538130760193,0.19451290369033813,-0.7907199859619141,-0.006597578525543213,0.061376988887786865,0.010019361972808838,0.9072483132690129,-0.01141324969683863,-0.32327967151336984,0.26881306425411844
1728066109224482800,3.81748291015625,-0.0468069426715374,-0.11340999603271484,-0.08403071761131287,-0.5812122821807861,0.1951715052127838,-0.7900002598762512,-0.023005306720733643,0.07614502310752869,0.013846755027770996,0.9071643560894609,-0.011753877374176847,-0.3238235777885108,0.2684272043810151
1728066109234513000,3.827512939453125,0.13775119185447693,-0.11633632332086563,-0.09235842525959015,-0.5823230743408203,0.19420790672302246,-0.7894194722175598,-0.022382795810699463,0.09082627296447754,-0.11490786075592041,0.9071007528917056,-0.011201900364096361,-0.3242911850830207,0.2681007200936604
1728066109244543700,3.837543701171875,0.06788315623998642,-0.1120409145951271,-0.06618141382932663,-0.5834184288978577,0.1929626315832138,-0.7889159917831421,-0.05436849594116211,0.09645083546638489,-0.2879272699356079,0.9070034812585712,-0.010444741483104895,-0.32470436318190316,0.2679603514799719
1728066109254573800,3.84757373046875,0.03310726583003998,-0.0745701864361763,-0.10015375912189484,-0.5843185186386108,0.19212830066680908,-0.7884532809257507,-0.13147127628326416,0.07168088853359222,-0.2652881145477295,0.9069630541595509,-0.009981538984190751,-0.32507495740383224,0.2676652395686348
1728066109264605000,3.85760498046875,-0.01592099666595459,-0.058095868676900864,-0.11239125579595566,-0.5850763916969299,0.1913909763097763,-0.7880704998970032,-0.19087886810302734,0.015701308846473694,-0.23057568073272705,0.9069989269439902,-0.009656964440561949,-0.32537898632195367,0.26718576646967546
1728066109274635800,3.8676357421875,-0.17010650038719177,-0.03126005083322525,-0.06308628618717194,-0.5855724811553955,0.1915954351425171,-0.7876522541046143,-0.173964262008667,-0.026174917817115784,-0.20078152418136597,0.9070465672176015,-0.009875305431166962,-0.3256936488691946,0.2666320281848932
1728066109284665900,3.877665771484375,-0.19306135177612305,-0.07081491500139236,-0.06711778044700623,-0.5861055254936218,0.192816361784935,-0.7869575619697571,-0.10287463665008545,-0.0032869279384613037,-0.06500160694122314,0.90703159996974,-0.010614825951336062,-0.32620322433126775,0.26603108111613893
1728066109294696700,3.88769677734375,-0.041012369096279144,-0.10449068993330002,-0.09505700320005417,-0.5869758725166321,0.1933317631483078,-0.7861820459365845,-0.028044939041137695,0.0499848872423172,0.03917282819747925,0.9069830286655053,-0.010931498537401677,-0.32678657650496656,0.2654674462643448
1728066109304726800,3.897726806640625,0.1334497034549713,-0.15235330164432526,-0.12214881181716919,-0.5881924033164978,0.1923057734966278,-0.7855241894721985,0.0031703710556030273,0.09468153119087219,-0.0029279589653015137,0.9069171477101569,-0.010356421620177537,-0.32730818782580157,0.2650727202695873
1728066109314758000,3.9077578125,0.21192649006843567,-0.13233180344104767,-0.13932405412197113,-0.5895956754684448,0.19007785618305206,-0.785014271736145,-0.014911830425262451,0.10426418483257294,-0.04390418529510498,0.9068605599854682,-0.009107999180242576,-0.32773450323970416,0.26478518644694743
1728066109324788700,3.917788818359375,0.07316780090332031,-0.09841618686914444,-0.12658695876598358,-0.590767502784729,0.18815287947654724,-0.784596860408783,-0.07791846990585327,0.07942524552345276,-0.09433984756469727,0.9068498977368865,-0.008075429143526014,-0.32807978209209204,0.2644272631309596
1728066109334818800,3.92781884765625,-0.04537862166762352,-0.06872624903917313,-0.018068745732307434,-0.5914307236671448,0.18778298795223236,-0.7841857671737671,-0.1546630859375,0.05641868710517883,-0.1319977045059204,0.9068223715243164,-0.007885713973679088,-0.3283975391979306,0.2641327650398216
1728066109344850000,3.937849853515625,-0.005291922017931938,-0.07648351043462753,-0.12567056715488434,-0.5922747850418091,0.18761852383613586,-0.7835878133773804,-0.18607604503631592,0.04603929817676544,-0.13186317682266235,0.9067549541214335,-0.0077838542867409806,-0.32885483683962047,0.26379790425672867
1728066109354879700,3.947879638671875,0.014162136241793633,-0.07894676923751831,-0.15967273712158203,-0.5931302905082703,0.18668945133686066,-0.783162534236908,-0.1630191206932068,0.017732545733451843,-0.12603235244750977,0.9068276275465341,-0.007411692525639373,-0.32918656996936624,0.26314439671367157
1728066109364910800,3.957910888671875,-0.009116020984947681,-0.15374217927455902,-0.1382758468389511,-0.594343900680542,0.18580904603004456,-0.7824515104293823,-0.12399417161941528,0.010113820433616638,-0.054355740547180176,0.9068306218340604,-0.007016868288116735,-0.3297347596875818,0.262457648178657
1728066109374942000,3.96794189453125,0.05254394933581352,-0.19030052423477173,-0.1351141333580017,-0.595961332321167,0.184926837682724,-0.7814295291900635,-0.012971162796020508,0.067361980676651,0.04725301265716553,0.9067129782052782,-0.006511194167672662,-0.3305190317053759,0.26189001016154134
1728066109384971500,3.977971435546875,0.1465042680501938,-0.19838827848434448,-0.17520615458488464,-0.5977907776832581,0.18322792649269104,-0.7804318070411682,0.02746295928955078,0.10993918776512146,0.05801975727081299,0.9065909574741273,-0.005546031819682322,-0.33129040504447027,0.2613597633730535
1728066109395003000,3.9880029296875,0.17403316497802734,-0.17660664021968842,-0.1760604977607727,-0.5995984077453613,0.18092788755893707,-0.7795812487602234,-0.005015909671783447,0.09147202968597412,0.03376215696334839,0.9065104179890233,-0.004283499197813289,-0.33195035840891823,0.2608248576062797
1728066109405033700,3.99803369140625,0.15951226651668549,-0.13999058306217194,-0.161465585231781,-0.6011314988136292,0.17859868705272675,-0.7789374589920044,-0.054431915283203125,0.050328925251960754,0.037604451179504395,0.9064688278740592,-0.00302900089829596,-0.33244865781511956,0.2603519253631702
1728066109415063600,4.0080634765625,0.10189159214496613,-0.12269739806652069,-0.17720593512058258,-0.602601945400238,0.17671281099319458,-0.7782310247421265,-0.08357053995132446,0.016204044222831726,0.04379504919052124,0.9064336304117228,-0.002038624632434909,-0.3329869815476561,0.25979552008811774
1728066109425095000,4.018094970703125,0.09843720495700836,-0.04862502962350845,-0.1678188145160675,-0.6038147211074829,0.17500756680965424,-0.7776761651039124,-0.08563846349716187,0.010981813073158264,0.041271746158599854,0.9064631798704014,-0.0012120834265776587,-0.33340734934193617,0.2591576750759828
1728066109435124700,4.028124755859375,0.13310177624225616,-0.08203316479921341,-0.20424500107765198,-0.6048641204833984,0.17293047904968262,-0.7773252725601196,-0.05956465005874634,0.024075761437416077,0.06641829013824463,0.906560910422234,-0.0002412412774653879,-0.3336724614491243,0.25847664185555513
1728066109445154800,4.03815478515625,0.16525784134864807,-0.18356271088123322,-0.23167476058006287,-0.6066424250602722,0.17046868801116943,-0.7764827013015747,0.006209015846252441,0.043459534645080566,0.10871237516403198,0.9065552237302313,0.0010022097824697145,-0.33430171458330427,0.25768011300613414
1728066109455186000,4.04818603515625,0.1782415509223938,-0.23221904039382935,-0.20446045696735382,-0.6088130474090576,0.16853336989879608,-0.7752053141593933,0.05882519483566284,0.07545466721057892,0.059247732162475586,0.9063780656540578,0.002111690801113077,-0.33525047747849623,0.25706354225876216
1728066109465216000,4.058216064453125,0.0998210459947586,-0.25626686215400696,-0.1604493260383606,-0.6108883023262024,0.16754689812660217,-0.7737851738929749,0.05850481986999512,0.08292612433433533,-0.003161787986755371,0.9061020147714826,0.00280357774506614,-0.33630275013491207,0.2566549881763269
1728066109475246800,4.068246826171875,0.009872250258922577,-0.281203031539917,-0.13041871786117554,-0.6132278442382812,0.1672227531671524,-0.7720026969909668,0.006797730922698975,0.047468408942222595,-0.011124074459075928,0.905735365038897,0.003192459198544455,-0.3376217601352618,0.2562124486564327
1728066109485277000,4.07827685546875,-0.04964007809758186,-0.2429153174161911,-0.05414126440882683,-0.6157430410385132,0.16737382113933563,-0.7699652910232544,-0.04581713676452637,0.0021513402462005615,-0.01586228609085083,0.9052904346910395,0.0033803768914359464,-0.3391252191172327,0.25579675313623645
1728066109495308000,4.08830810546875,-0.055116601288318634,-0.2472306489944458,-0.03291640058159828,-0.6184199452400208,0.1678680032491684,-0.7677090167999268,-0.08543747663497925,-0.02329099178314209,-0.030111968517303467,0.904758604284389,0.003456233566219498,-0.34078371763926874,0.25547306042453377
1728066109505339000,4.0983388671875,0.002718733623623848,-0.23124846816062927,-0.013149354606866837,-0.6212077140808105,0.16811057925224304,-0.7654017806053162,-0.08190208673477173,-0.023335173726081848,-0.024683058261871338,0.9041816126953082,0.0037191339591547863,-0.34246938530610327,0.2552580270451411
