time,seconds_elapsed,rotationRateX,rotationRateY,rotationRateZ,gravityX,gravityY,gravityZ,accelerationX,accelerationY,accelerationZ,quaternionW,quaternionX,quaternionY,quaternionZ
1729876607520430800,0.062430908203125,0.1612376719713211,-0.2322912961244583,0.015534206293523312,0.011501006782054901,-0.1850377768278122,-0.9826641082763672,-0.017650291323661804,-0.002187669277191162,-0.07219117879867554,0.995656594121607,0.0929224889634395,0.005775589124527696,2.2167275746118667e-17
1729876607530461000,0.0724609375,0.17093877494335175,-0.26005634665489197,0.01856301724910736,0.008914493955671787,-0.1867569237947464,-0.9823657274246216,-0.019610898569226265,-0.0027573704719543457,-0.07236754894256592,0.9955816737714815,0.09379298121572772,0.004474708102382154,-0.000024622838128073172
1729876607540491800,0.08249169921875,0.1812475323677063,-0.3091743588447571,0.017246883362531662,0.006099238991737366,-0.1885155886411667,-0.9820512533187866,-0.001170644536614418,-0.0012123137712478638,-0.060001909732818604,0.9955026989457676,0.09468381917096456,0.00305707364288838,-0.00006647780836111877
1729876607550521900,0.09252197265625,0.18751874566078186,-0.3459089398384094,0.01819843053817749,0.003046127501875162,-0.19025734066963196,-0.9817295074462891,0.014669332653284073,-0.008824214339256287,-0.04820817708969116,0.9954219444071658,0.09556641283525902,0.001515331483100325,-0.00015350089637787548
1729876607560553000,0.102552978515625,0.19675585627555847,-0.3581741154193878,0.04202466830611229,-0.00020374631276354194,-0.19206294417381287,-0.9813826084136963,0.0024010182823985815,-0.01679949462413788,-0.03665328025817871,0.9953347632598941,0.09648155604405463,-0.0001210164480365228,-0.00019256244292891074
1729876607570582800,0.112582763671875,0.19423463940620422,-0.3515303432941437,0.040368981659412384,-0.0034967714454978704,-0.19388270378112793,-0.9810184836387634,-0.007718426175415516,-0.02169358730316162,-0.0369715690612793,0.9952432814252478,0.09740439041203779,-0.0017725200493367318,-0.00016121428066734117
1729876607580614000,0.12261376953125,0.19451002776622772,-0.3536498546600342,0.018537983298301697,-0.006836904678493738,-0.19566334784030914,-0.9806472659111023,-0.014861085452139378,-0.0313723087310791,-0.02777552604675293,0.9951499853718625,0.09830778595550735,-0.003454602948080585,-0.00019729556057026322
1729876607590644000,0.13264404296875,0.20475627481937408,-0.3661419451236725,0.00986939575523138,-0.010313902050256729,-0.1974678337574005,-0.980255126953125,-0.033265192061662674,-0.04082880914211273,-0.01953125,0.9950514242951101,0.0992233570051848,-0.005212662451870463,-0.00030150186164263254
1729876607600674800,0.1426748046875,0.22405733168125153,-0.3481951355934143,0.0014745797961950302,-0.013844001106917858,-0.19957809150218964,-0.9797841310501099,-0.03129148483276367,-0.03353056311607361,-0.03285014629364014,0.9949331656272231,0.10029417962569985,-0.007001015669673503,-0.0004341444039766689
1729876607610704600,0.15270458984375,0.24276897311210632,-0.3099236488342285,-0.021558035165071487,-0.017049217596650124,-0.2018503099679947,-0.979267954826355,-0.02143344096839428,-0.01972268521785736,-0.046382009983062744,0.9948033485832739,0.10144683786091648,-0.008634150004034707,-0.0006375024178132602
1729876607620736000,0.162736083984375,0.2498074322938919,-0.29176387190818787,-0.04006807133555412,-0.019922450184822083,-0.20428715646266937,-0.9787082672119141,-0.03087405115365982,-0.013593226671218872,-0.04361534118652344,0.9946624171207553,0.10268219951831059,-0.010111209494275993,-0.0009350668280084409
1729876607630765600,0.172765625,0.228097602725029,-0.2946435511112213,-0.020442703738808632,-0.022747257724404335,-0.20665664970874786,-0.9781490564346313,-0.03853202611207962,-0.02072995901107788,-0.03477507829666138,0.9945215372296097,0.10388336703538889,-0.011563454960855738,-0.0012174825952917356
1729876607640795600,0.182795654296875,0.18568116426467896,-0.3069034814834595,-0.004901028238236904,-0.02565116435289383,-0.20868989825248718,-0.9776453971862793,-0.017134470865130424,-0.026631265878677368,-0.017364919185638428,0.9943946001079355,0.10491425187657791,-0.013049757541428104,-0.0014395205911163964
1729876607650826800,0.19282666015625,0.13619324564933777,-0.35870620608329773,0.01197355892509222,-0.02888134866952896,-0.21029235422611237,-0.9772118330001831,0.013592053204774857,-0.025028809905052185,0.007286965847015381,0.9942853919732432,0.10572708669935661,-0.014692164956741988,-0.0015845587197616995
1729876607660856800,0.20285693359375,0.10968421399593353,-0.4284193217754364,0.03763711079955101,-0.03280281275510788,-0.2114667445421219,-0.9768345952033997,0.038219697773456573,-0.027363941073417664,0.028577208518981934,0.9941904061885194,0.10632327313115592,-0.016675489701855405,-0.001666663038066795
1729876607670887700,0.2128876953125,0.1064777672290802,-0.43854227662086487,0.046755507588386536,-0.03719295561313629,-0.2125115543603897,-0.9764504432678223,0.04724850878119469,-0.032971978187561035,0.03231292963027954,0.9940937336989832,0.10685515190042358,-0.018887580819123367,-0.0016802934056992097
1729876607680917800,0.222917724609375,0.12795795500278473,-0.40596574544906616,0.045363474637269974,-0.04140111804008484,-0.2135985642671585,-0.9760438799858093,0.028309084475040436,-0.036157429218292236,0.014480769634246826,0.993991554478171,0.10741012218356326,-0.02100331796642974,-0.0016438042158053072
1729876607690948600,0.232948486328125,0.19454070925712585,-0.39625105261802673,0.0033963164314627647,-0.04538615792989731,-0.2151302695274353,-0.9755301475524902,-0.009316585958003998,-0.024036109447479248,0.00990825891494751,0.9938621830787164,0.10818957092632987,-0.023020525744151237,-0.0017206005360646806
1729876607700978700,0.242978759765625,0.2531702518463135,-0.3858989477157593,-0.010748264379799366,-0.04920000582933426,-0.21733365952968597,-0.9748566150665283,-0.035089537501335144,-0.01569870114326477,-0.009197890758514404,0.9936923327173915,0.10930778726121781,-0.024969891581158584,-0.0019430152300738963
1729876607711009800,0.253009765625,0.29674118757247925,-0.35293248295783997,-0.0067087821662425995,-0.05281760171055794,-0.2200545370578766,-0.974056601524353,-0.03078528866171837,-0.004677027463912964,-0.023685038089752197,0.9934906761658436,0.1106898463370334,-0.026822503462161848,-0.002160149695099989
1729876607721040000,0.263039794921875,0.30792146921157837,-0.2937549948692322,0.0028540967032313347,-0.05594590678811073,-0.22302713990211487,-0.9732055068016052,-0.014961671084165573,0.006367474794387817,-0.0228729248046875,0.9932760620908578,0.11220205238054635,-0.02842442303178078,-0.0023203354649717362
1729876607731070700,0.27307080078125,0.30622875690460205,-0.26352518796920776,0.010119200684130192,-0.05868218466639519,-0.2260269969701767,-0.9723519086837769,-0.02090764418244362,0.003446906805038452,-0.028060078620910645,0.9930609673865914,0.11373062715228867,-0.029822798580430222,-0.002415926394982981
1729876607741100800,0.283100830078125,0.2677123248577118,-0.24666458368301392,0.03145085275173187,-0.06118503212928772,-0.2288362830877304,-0.9715402126312256,-0.024950817227363586,-0.005828768014907837,-0.025087594985961914,0.9928566059273946,0.11516603920932067,-0.03109159054906803,-0.002405000407061355
1729876607751131600,0.293131591796875,0.21655939519405365,-0.2610855996608734,0.04623778909444809,-0.06372171640396118,-0.23117981851100922,-0.9708220362663269,-0.0032948777079582214,0.00022266805171966553,-0.01170659065246582,0.9926759594492571,0.11636710770776651,-0.03236784814682807,-0.002319619566109652
1729876607761161700,0.30316162109375,0.1645815372467041,-0.2901124954223633,0.05121283978223801,-0.06649398803710938,-0.23300012946128845,-0.9702007174491882,0.024913787841796875,0.0033704787492752075,0.022538423538208008,0.9925197518089163,0.11730336864958335,-0.0337571828372628,-0.002196676434559054
1729876607771191800,0.31319189453125,0.1318209320306778,-0.33043116331100464,0.050481535494327545,-0.06962479650974274,-0.23436088860034943,-0.9696532487869263,0.04566851258277893,-0.008284509181976318,0.03814995288848877,0.9923821158916704,0.11800520692997714,-0.03532932488163152,-0.0020998380354183984
1729876607781223000,0.323222900390625,0.15909729897975922,-0.3832460343837738,0.051029082387685776,-0.07320164144039154,-0.2357054054737091,-0.9690636992454529,0.053548336029052734,-0.016705617308616638,0.049859046936035156,0.9922337829244066,0.11869886924442805,-0.03713109411642752,-0.0020379855819248767
1729876607791252700,0.333252685546875,0.22368347644805908,-0.396267294883728,0.08777564764022827,-0.07717859745025635,-0.23750217258930206,-0.9683161377906799,0.055038101971149445,-0.02024942636489868,0.029427647590637207,0.992045558591287,0.11962864111270138,-0.039126863083524144,-0.0018919649620119756
1729876607801283800,0.343283935546875,0.32121890783309937,-0.3753212094306946,0.14092302322387695,-0.08123020827770233,-0.2400233894586563,-0.967362642288208,0.05382542312145233,-0.02210746705532074,-0.026106595993041992,0.9918060258194654,0.12094112482041386,-0.04113314402614219,-0.0014965684322605774
1729876607811314000,0.35331396484375,0.4254499673843384,-0.35202521085739136,0.13451625406742096,-0.0850924402475357,-0.24356648325920105,-0.9661442041397095,0.0426119789481163,-0.024698406457901,-0.06960707902908325,0.9914995366063337,0.12278697266141182,-0.043026163664341324,-0.0009300895422040664
1729876607821344800,0.3633447265625,0.4534149467945099,-0.3612586557865143,0.09495499730110168,-0.0887872725725174,-0.24774959683418274,-0.9647470712661743,0.014034472405910492,-0.041160449385643005,-0.09546405076980591,0.9911474593782607,0.12495879905777664,-0.04485254584344624,-0.0004949558827538696
1729876607831374800,0.373374755859375,0.4230154752731323,-0.3640219569206238,0.0854421854019165,-0.0925259068608284,-0.2519270181655884,-0.9633129239082336,-0.018451251089572906,-0.05422547459602356,-0.09248846769332886,0.9907857623892469,0.12712690238686486,-0.04671510622981843,-0.00017075994243651577
1729876607841406000,0.383406005859375,0.317889928817749,-0.3955010771751404,0.07254289835691452,-0.09637758135795593,-0.25544723868370056,-0.9620073437690735,-0.01594235748052597,-0.05152922868728638,-0.06754893064498901,0.9904562874356019,0.12895733207908192,-0.04864512330793817,0.00006142940868259824
1729876607851435800,0.393435791015625,0.20251087844371796,-0.47376126050949097,0.09941951930522919,-0.10082486271858215,-0.2578829526901245,-0.9609010219573975,-0.006413891911506653,-0.05415940284729004,-0.03406357765197754,0.9901770482679043,0.13023376747348248,-0.050878915275835886,0.00025568614777768807
1729876607861467000,0.403466796875,0.1818084716796875,-0.4903697073459625,0.21706919372081757,-0.10590159147977829,-0.2594982981681824,-0.9599195122718811,0.028341181576251984,-0.07236522436141968,-0.012309432029724121,0.9899289699690798,0.1311084530385705,-0.053392983570173684,0.0007286588375262287
1729876607871495700,0.41349560546875,0.22952991724014282,-0.47982385754585266,0.4787420928478241,-0.11138879507780075,-0.2610931098461151,-0.9588654637336731,0.07595788687467575,-0.07661455869674683,-0.013058364391326904,0.9896605716985724,0.1320323288858445,-0.05598879750329699,0.002154712625816032
1729876607881526800,0.42352685546875,0.19709980487823486,-0.3580588102340698,1.1197755336761475,-0.11750220507383347,-0.2624446451663971,-0.9577661752700806,0.10886573791503906,-0.06609246134757996,-0.03902941942214966,0.9893694217561352,0.1329636437943147,-0.05863089989600103,0.005591638557253559
1729876607891556900,0.433556884765625,0.09105433523654938,-0.942771852016449,1.3674018383026123,-0.1273813247680664,-0.26218387484550476,-0.9565739035606384,0.1713876724243164,-0.07521861791610718,-0.0439295768737793,0.9890158374935077,0.133285381750659,-0.0628335538364872,0.011608791329405146
1729876607901586400,0.44358642578125,0.11839847266674042,-1.0686638355255127,0.935541570186615,-0.14032448828220367,-0.26164793968200684,-0.9549080729484558,0.32762613892555237,-0.12432324886322021,-0.01692420244216919,0.9885193323854274,0.13351387091407044,-0.06870238198595599,0.016841792225167115
1729876607911617800,0.45361767578125,0.2858639061450958,-0.9624369144439697,0.769973635673523,-0.15248504281044006,-0.26222294569015503,-0.952883780002594,0.15744416415691376,-0.1457667052745819,-0.040890634059906006,0.9879408933468897,0.134245612999252,-0.07440590520733659,0.020364812064055632
1729876607921647600,0.463647705078125,0.44527220726013184,-0.5132687091827393,0.5379194021224976,-0.16166020929813385,-0.2645702660083771,-0.9507200121879578,-0.10663506388664246,-0.12335404753684998,-0.14481520652770996,0.9873229006920086,0.135857243004154,-0.07863080266852437,0.023525535298985246
1729876607931678500,0.473678466796875,0.49528637528419495,-0.2633763253688812,-0.43027976155281067,-0.1667739748954773,-0.26862525939941406,-0.9486975073814392,-0.170246884226799,-0.06754124164581299,-0.1882348656654358,0.9867830411478533,0.13813702113422086,-0.08105197150494457,0.02465869056164414
1729876607941708500,0.48370849609375,0.3332754373550415,-0.8236727118492126,-0.9603710174560547,-0.170376718044281,-0.2737126648426056,-0.9466008543968201,-0.214846670627594,-0.08077964186668396,-0.17726999521255493,0.9863387543731552,0.14051807806267216,-0.08339212523185148,0.020890364911267164
1729876607951739600,0.49373974609375,0.21802100539207458,-1.1857088804244995,-0.37882959842681885,-0.17805002629756927,-0.2774725556373596,-0.9440906643867493,-0.13835619390010834,-0.17000678181648254,-0.10374557971954346,0.9857830624320089,0.14222126246365463,-0.08790783998777807,0.016642771427631
1729876607961769500,0.50376953125,0.2536126971244812,-1.1235079765319824,0.3336373567581177,-0.18925252556800842,-0.27970951795578003,-0.9412471055984497,0.17806784808635712,-0.05226081609725952,-0.030829310417175293,0.9850752733766683,0.14347961050385985,-0.09375532069443639,0.015822583620590896
1729876607971800600,0.513800537109375,0.1991148293018341,-0.42985063791275024,2.062342882156372,-0.1985325664281845,-0.27913203835487366,-0.9395052790641785,0.2423710972070694,0.0786161720752716,-0.06708645820617676,0.9845273345655373,0.1438841911901806,-0.09769705034666058,0.02141214670430925
1729876607981830700,0.52383056640625,0.37105509638786316,-0.9210489988327026,1.7597168684005737,-0.21087214350700378,-0.2777908742427826,-0.9372113943099976,0.23990961909294128,0.11797016859054565,-0.09614431858062744,0.9836859141719453,0.14444388589949564,-0.10261713722153244,0.031105772384506052
1729876607991861500,0.533861572265625,0.23753271996974945,-1.3442330360412598,0.8197502493858337,-0.22529350221157074,-0.2780187427997589,-0.9337818026542664,0.6030095815658569,0.01848188042640686,-0.08017992973327637,0.9826225758634316,0.14554207509474398,-0.10920900877608375,0.0366596181105203
1729876608001891600,0.5438916015625,0.060806483030319214,-1.2741934061050415,0.4069770872592926,-0.23927421867847443,-0.2779313325881958,-0.930323600769043,0.18873710930347443,-0.17955780029296875,-0.018208444118499756,0.9816668092559492,0.14613016398131032,-0.11612135875627681,0.038627397290745755
1729876608011922700,0.553922607421875,0.10070063918828964,-1.1220943927764893,0.6032912135124207,-0.2516646683216095,-0.2774434983730316,-0.9271946549415588,-0.057920873165130615,-0.12009385228157043,-0.018728137016296387,0.9808123160442437,0.14643082216761766,-0.12231382944358299,0.04005595682953255
1729876608021952500,0.563952392578125,0.24553637206554413,-1.064146637916565,0.9994707703590393,-0.2639680802822113,-0.2769736051559448,-0.9239082932472229,0.038000673055648804,-0.07967022061347961,-0.0909537672996521,0.9798348078879793,0.1470066463201363,-0.12819872576266847,0.04333453616031499
1729876608031982600,0.573982666015625,0.4623856544494629,-1.0690746307373047,1.1356983184814453,-0.2768069803714752,-0.27720123529434204,-0.9200746417045593,0.16413608193397522,-0.018346399068832397,-0.1089627742767334,0.9786319987313945,0.14822416268240013,-0.13413525813089958,0.04813273531348848
1729876608042013700,0.584013671875,0.6915916204452515,-1.0197852849960327,1.0400900840759277,-0.2895016670227051,-0.27946364879608154,-0.9154719710350037,0.1320309340953827,0.025206297636032104,-0.10338789224624634,0.9771998567703671,0.1505925479800845,-0.1399496794195841,0.053070485120123585
1729876608052043800,0.594043701171875,0.8391744494438171,-0.8983065485954285,1.0271393060684204,-0.3011407256126404,-0.28349801898002625,-0.9104631543159485,0.06903931498527527,-0.03447997570037842,-0.11231815814971924,0.9756391742848408,0.15391391852211245,-0.14518587411482006,0.05796319231869433
1729876608062074600,0.60407470703125,0.8388504981994629,-0.9015799164772034,0.9537850022315979,-0.31204503774642944,-0.28816938400268555,-0.9053100347518921,0.08746618032455444,-0.099068284034729,-0.07949215173721313,0.9740227652406142,0.15758961990838774,-0.15003494944018364,0.06272659587433876
1729876608072104700,0.614104736328125,0.7922627925872803,-0.9709020256996155,0.98762047290802,-0.32334083318710327,-0.29250121116638184,-0.8999409675598145,0.08583778142929077,-0.12102735042572021,-0.03380531072616577,0.9723361262385279,0.1611518411757641,-0.1551115855005266,0.06732665571052517
1729876608082135600,0.624135498046875,0.7432175278663635,-1.0007673501968384,1.0032060146331787,-0.335183709859848,-0.2960872948169708,-0.8944183588027954,0.08202514052391052,-0.11452686786651611,-0.029333412647247314,0.9705814485959283,0.16443176986156854,-0.16047746527938103,0.07197760213141735
1729876608092165600,0.63416552734375,0.7456974387168884,-0.9740142822265625,0.9883823990821838,-0.34699520468711853,-0.2993202209472656,-0.8888204097747803,0.04993709921836853,-0.10432064533233643,-0.02988070249557495,0.9687832669904312,0.1675965967427743,-0.16583478059198173,0.07661040662458485
1729876608102196700,0.64419677734375,0.7520166039466858,-0.9126325845718384,0.9526838064193726,-0.35826900601387024,-0.3025444746017456,-0.8832384347915649,0.012504816055297852,-0.09148335456848145,-0.05246096849441528,0.9669711485524921,0.17078382936093361,-0.17092004745380787,0.08115371114133357
1729876608112226800,0.654226806640625,0.7884216904640198,-0.8959846496582031,0.9230665564537048,-0.369082510471344,-0.3059249520301819,-0.8776035904884338,-0.008831948041915894,-0.058882296085357666,-0.04486644268035889,0.9651311559057624,0.17407461995591975,-0.175773266475577,0.08557820616522806
1729876608122257700,0.664257568359375,0.8094382882118225,-0.8914278745651245,0.8981244564056396,-0.3796786665916443,-0.3095238506793976,-0.8718022108078003,-0.009908735752105713,-0.016648143529891968,-0.05838876962661743,0.9632334457959758,0.17751750892635668,-0.18051713081939935,0.08990211140061433
1729876608132287700,0.674287841796875,0.8841266632080078,-0.8645097017288208,0.8952711224555969,-0.39013880491256714,-0.31343257427215576,-0.8657665252685547,-0.012800037860870361,0.0293443500995636,-0.05586421489715576,0.9612542624367721,0.18117969927181798,-0.1851773278545303,0.09419874286532462
1729876608142318800,0.68431884765625,0.9687566757202148,-0.7979092001914978,0.8797624707221985,-0.4001235067844391,-0.31794700026512146,-0.8595410585403442,-0.020149320363998413,0.04692023992538452,-0.09123402833938599,0.9591924427507241,0.1852183622438823,-0.1895352675049063,0.09859146769240233
1729876608152348700,0.6943486328125,1.0211617946624756,-0.7518279552459717,0.8414075970649719,-0.4095016121864319,-0.32303255796432495,-0.8532047867774963,-0.041075170040130615,0.0597572922706604,-0.07706248760223389,0.9570805674770562,0.18957820364652164,-0.19353998020194704,0.10295201322654321
1729876608162378500,0.70437841796875,1.087212324142456,-0.7303803563117981,0.8428958058357239,-0.4185122549533844,-0.3285396993160248,-0.84670490026474,-0.05754673480987549,0.08302566409111023,-0.044164180755615234,0.9549043888913754,0.19419668610429974,-0.19732007130728407,0.10728466486499616
1729876608172409600,0.71440966796875,1.1423158645629883,-0.6884861588478088,0.8686197996139526,-0.427348256111145,-0.33436596393585205,-0.8399838209152222,-0.05923923850059509,0.08158877491950989,-0.04696369171142578,0.9526248071462127,0.1990778763500957,-0.20093801084600965,0.11179339024320245
1729876608182439700,0.724439697265625,1.173639178276062,-0.6281232833862305,0.862914502620697,-0.4357950985431671,-0.34035149216651917,-0.8332127332687378,-0.07514545321464539,0.061970055103302,-0.044945716857910156,0.9502886417403775,0.20410897734248026,-0.20428695363842628,0.11643765323149532
1729876608192470500,0.734470458984375,1.1436491012573242,-0.5713561773300171,0.8418606519699097,-0.4436485171318054,-0.34627875685691833,-0.826599657535553,-0.10125812888145447,0.030238598585128784,-0.032485365867614746,0.9479656789373019,0.20911982328447873,-0.20728982221508765,0.12108187598871341
1729876608202500600,0.74450048828125,1.0652060508728027,-0.5641156435012817,0.8179843425750732,-0.45120298862457275,-0.3517223298549652,-0.8201873302459717,-0.10420167446136475,0.0015940368175506592,-0.006320178508758545,0.9456868530547403,0.2138684617083493,-0.21015854642676463,0.1255786794170067
1729876608212531500,0.754531494140625,0.9947225451469421,-0.5732555985450745,0.8212655782699585,-0.4587327241897583,-0.3564118444919586,-0.813962459564209,-0.0872420072555542,0.006924420595169067,0.02544933557510376,0.943451531450641,0.21822828516946174,-0.21306147787015003,0.12992443969027734
1729876608222561500,0.7645615234375,0.9876381754875183,-0.5516859292984009,0.8289980888366699,-0.46629106998443604,-0.36065474152565,-0.8077751994132996,-0.054857611656188965,0.02995091676712036,0.039678335189819336,0.9412009417869441,0.22240451001068506,-0.2159829593122307,0.13426964886149198
1729876608232592600,0.774592529296875,0.9989813566207886,-0.5071570873260498,0.8296481966972351,-0.47352904081344604,-0.3647632896900177,-0.8016968965530396,-0.03606876730918884,0.06572142243385315,0.0456850528717041,0.9389487308837818,0.22653563969341095,-0.2187078901835693,0.13864937887050935
1729876608242622700,0.784622802734375,1.0585533380508423,-0.45854493975639343,0.8424044251441956,-0.48046875,-0.369018018245697,-0.7955976128578186,-0.030075132846832275,0.10293513536453247,0.05994093418121338,0.9366454419486986,0.2307989553226669,-0.22120813015222196,0.1431582942003954
1729876608252653600,0.794653564453125,1.09944748878479,-0.40755072236061096,0.8436867594718933,-0.4870178997516632,-0.3735215663909912,-0.7894905209541321,-0.023419111967086792,0.11525118350982666,0.054291605949401855,0.9342881450759073,0.23524469614500584,-0.22341594555226896,0.14782092075275183
1729876608262683600,0.80468359375,1.1218410730361938,-0.3510635793209076,0.8527985215187073,-0.49318796396255493,-0.3781391680240631,-0.7834388017654419,-0.02634325623512268,0.12131839990615845,0.056159257888793945,0.9319001052128268,0.23978394321707472,-0.22535363599432093,0.15258282403004597
1729876608272714500,0.814714599609375,1.0638725757598877,-0.2961428165435791,0.8104145526885986,-0.498879075050354,-0.3826170265674591,-0.7776399254798889,-0.020438551902770996,0.11499303579330444,0.04521816968917847,0.9295509036681402,0.24423072536545365,-0.2270052733431446,0.15733722825772278
1729876608282744600,0.82474462890625,0.946230411529541,-0.2984187602996826,0.7653371095657349,-0.5041837692260742,-0.386501282453537,-0.7722793817520142,-0.020520150661468506,0.12849032878875732,0.06556868553161621,0.9273441494637795,0.24825998907479999,-0.22853290092248943,0.16177894015765282
1729876608292774700,0.834774658203125,0.8637036085128784,-0.3065222203731537,0.7354817390441895,-0.5094304084777832,-0.38968709111213684,-0.7672187685966492,-0.003081798553466797,0.16771739721298218,0.09221583604812622,0.9252494541973341,0.25184904728681007,-0.23013619588225054,0.16590024063109254
1729876608302805800,0.8448056640625,0.7925633192062378,-0.2884024977684021,0.7472624778747559,-0.5146203637123108,-0.3922717571258545,-0.7624229788780212,0.012026309967041016,0.19212210178375244,0.08033996820449829,0.9232254101595504,0.25509761757501986,-0.23176216518492382,0.16990143851808573
1729876608312835600,0.854835693359375,0.7499277591705322,-0.22951894998550415,0.7572570443153381,-0.5196002125740051,-0.39422109723091125,-0.7580273151397705,0.012047111988067627,0.1847330629825592,0.08664065599441528,0.921280818429772,0.2579982360273675,-0.233287946836292,0.1739407432633503
1729876608322866700,0.86486669921875,0.7084817290306091,-0.1871526837348938,0.7077805995941162,-0.5240218043327332,-0.39597830176353455,-0.7540573477745056,-0.006495773792266846,0.1530430018901825,0.07719278335571289,0.9194399594941449,0.26071966309987415,-0.2345135277416135,0.17792974254884
1729876608332896800,0.874896728515625,0.5904474854469299,-0.20796342194080353,0.686128556728363,-0.5282407999038696,-0.3972059190273285,-0.7504593133926392,-0.02408158779144287,0.14116334915161133,0.09382790327072144,0.9177378337999398,0.26305767361043897,-0.23573502066967894,0.1816234947494832
1729876608342927600,0.884927734375,0.5602258443832397,-0.2163238227367401,0.6969702839851379,-0.5326063632965088,-0.39778977632522583,-0.747056782245636,-0.01988387107849121,0.12596961855888367,0.14113032817840576,0.9160975918200063,0.26504305562397984,-0.23711557420043583,0.18518568301443547
1729876608352957700,0.894957763671875,0.5444109439849854,-0.16316527128219604,0.6969862580299377,-0.5368108749389648,-0.39821657538414,-0.7438129782676697,-0.027520179748535156,0.09259819984436035,0.12471818923950195,0.9144754877375816,0.2669455725403634,-0.23839793908075832,0.1887889178909123
1729876608362988800,0.90498876953125,0.5071113109588623,-0.11253368109464645,0.7530354261398315,-0.5407132506370544,-0.398191899061203,-0.7409942150115967,-0.03786957263946533,0.09985196590423584,0.12389838695526123,0.9129209749171796,0.26859816913471096,-0.23949509642336733,0.1925423445908984
1729876608373018600,0.9150185546875,0.5430274605751038,-0.09973292797803879,0.8119171261787415,-0.5446107387542725,-0.3978149890899658,-0.7383375763893127,-0.007574319839477539,0.09077754616737366,0.12070763111114502,0.9113242848438892,0.2701525467521058,-0.2405177722750599,0.19661365411834517
1729876608383049700,0.9250498046875,0.5596659183502197,-0.0732891857624054,0.8265450596809387,-0.548545241355896,-0.3974418342113495,-0.73562091588974,0.020072340965270996,0.035182803869247437,0.10985803604125977,0.9096387148619123,0.27179948404470494,-0.24148413991890083,0.20091763640831034
1729876608393079800,0.935079833984375,0.5216125249862671,-0.008884360082447529,0.7884557247161865,-0.5520837903022766,-0.3969554007053375,-0.7332325577735901,0.013143360614776611,-0.015047281980514526,0.14502155780792236,0.9080221514991541,0.2733266756124621,-0.24223183761248018,0.20521239884947112
1729876608403110700,0.945110595703125,0.4044386148452759,0.03618287667632103,0.7417657375335693,-0.5549936890602112,-0.3962152898311615,-0.7314338684082031,-0.015028953552246094,-0.046121835708618164,0.1776619553565979,0.9066014937117499,0.274540454057796,-0.24271507209233034,0.2092623959218449
1729876608413140500,0.955140380859375,0.2661939263343811,0.04797828570008278,0.7327298521995544,-0.5576196312904358,-0.39452996850013733,-0.7303467988967896,-0.02938598394393921,-0.014726132154464722,0.1794588565826416,0.905414481198428,0.27510333830073913,-0.24319691566439428,0.21306835749189698
1729876608423170600,0.965170654296875,0.20942886173725128,0.06944122910499573,0.8107820749282837,-0.5603503584861755,-0.39186009764671326,-0.7296938896179199,-0.007856428623199463,0.009077996015548706,0.1790652871131897,0.9043149188453466,0.2751500776323919,-0.2438144838721257,0.21693657243241343
1729876608433201700,0.97520166015625,0.14763499796390533,0.13632811605930328,0.8112446665763855,-0.5627719163894653,-0.3886309564113617,-0.72955721616745,0.014569461345672607,0.005055427551269531,0.1561930775642395,0.9032953675683647,0.27487664937930617,-0.24426259151745375,0.220988916335182
1729876608443231500,0.9852314453125,0.08122747391462326,0.1731756627559662,0.8261207938194275,-0.5647804737091064,-0.38483670353889465,-0.7300162315368652,0.01366347074508667,0.03068011999130249,0.16956102848052979,0.9024228783255771,0.27420622833377906,-0.24454613956720272,0.22503571607289372
1729876608453262600,0.9952626953125,0.060367997735738754,0.20891928672790527,0.8895935416221619,-0.5666815638542175,-0.3804885149002075,-0.7308218479156494,0.031738877296447754,0.03950023651123047,0.1661856770515442,0.9015838808394103,0.2732553677397109,-0.24478682713369732,0.2292540948790978
1729876608463292700,1.005292724609375,0.04118750989437103,0.2614273428916931,0.936725914478302,-0.5684424638748169,-0.37567147612571716,-0.7319453954696655,0.04794996976852417,0.0071258544921875,0.14664888381958008,0.900735573447407,0.2721015495516355,-0.2449245946686136,0.23376914712011754
1729876608473323500,1.015323486328125,-0.010585406795144081,0.31455978751182556,0.9418966770172119,-0.5698598623275757,-0.3704323470592499,-0.7335118651390076,0.04498797655105591,-0.019506126642227173,0.15718746185302734,0.8999445736820196,0.2706923861397803,-0.2448871193844583,0.23844444621203287
1729876608483353600,1.025353515625,-0.14274869859218597,0.3610789179801941,0.8735328316688538,-0.570719838142395,-0.36465319991111755,-0.7357356548309326,0.042735159397125244,-0.017976313829421997,0.12977874279022217,0.8993605677296976,0.26882189027790854,-0.2446772581225367,0.24293720995469917
1729876608493384700,1.035384765625,-0.24615098536014557,0.34486186504364014,0.7704170942306519,-0.5710607171058655,-0.3584860563278198,-0.7384967803955078,0.06475883722305298,0.024272680282592773,0.11532789468765259,0.8990577144796704,0.26648084711783077,-0.24441680625473836,0.24686779344304915
1729876608503414500,1.04541455078125,-0.27448275685310364,0.3062138259410858,0.7425374984741211,-0.5713380575180054,-0.3522056043148041,-0.7412989139556885,0.1051972508430481,0.07956144213676453,0.10390883684158325,0.8988671095764961,0.26396069700501096,-0.24428528282068526,0.2503744347690434
1729876608513445600,1.055445556640625,-0.275578111410141,0.32092246413230896,0.7513672113418579,-0.5716480612754822,-0.3459019064903259,-0.7440230846405029,0.13628429174423218,0.09523040056228638,0.10384070873260498,0.8986597772196765,0.2614306289502941,-0.24421811654794304,0.25381509435820276
1729876608523475700,1.065475830078125,-0.3147198557853699,0.36618971824645996,0.7381259799003601,-0.5716633200645447,-0.3394359350204468,-0.7469834685325623,0.1185230016708374,0.08395794034004211,0.12981128692626953,0.898501603299529,0.25876270074171676,-0.24402896663302956,0.2572675509483172
1729876608533506600,1.075506591796875,-0.4047831594944,0.4163157343864441,0.6727946400642395,-0.5710856318473816,-0.3326978087425232,-0.7504487633705139,0.07692974805831909,0.05822262167930603,0.1654878854751587,0.8985244851255116,0.2557770171058514,-0.24362621233059453,0.2605343770668036
1729876608543536600,1.08553662109375,-0.4723062217235565,0.45050084590911865,0.5832237601280212,-0.5698891878128052,-0.3257698714733124,-0.754387378692627,0.042850613594055176,0.021875739097595215,0.17755943536758423,0.8987898668292525,0.25245146370586713,-0.24305261315306173,0.26338282214676506
1729876608553566700,1.095566650390625,-0.5063414573669434,0.49453410506248474,0.4970385432243347,-0.5680462121963501,-0.3189966678619385,-0.7586597800254822,0.03411060571670532,-0.0008123815059661865,0.15396928787231445,0.8992635840332746,0.24897052857830998,-0.24224735909532868,0.2658100890077062
1729876608563597600,1.10559765625,-0.5795434713363647,0.5162577629089355,0.4149649739265442,-0.5656037330627441,-0.31225115060806274,-0.7632769346237183,0.042044103145599365,0.011820733547210693,0.11425966024398804,0.8999443024457141,0.2452822180582727,-0.24124296016511404,0.2678410210522413
1729876608573627600,1.115627685546875,-0.6916694641113281,0.45819687843322754,0.3321758210659027,-0.5630104541778564,-0.3053366541862488,-0.7679770588874817,0.055152177810668945,0.062248796224594116,0.04500049352645874,0.9007946048599738,0.24134983756673054,-0.24033670862550738,0.26936503842533566
1729876608583658800,1.12565869140625,-0.9781161546707153,0.29663434624671936,0.18001103401184082,-0.5608083605766296,-0.29749560356140137,-0.7726514935493469,0.07196253538131714,0.1470743715763092,-0.1101914644241333,0.9019005851295276,0.23678137448542713,-0.2400184087275151,0.2700020233432023
1729876608593688800,1.135688720703125,-1.083660364151001,0.10878853499889374,0.09632492065429688,-0.5596804022789001,-0.28851255774497986,-0.7768644094467163,0.09157121181488037,0.2208855152130127,-0.21294260025024414,0.9032035003364406,0.23155721786574732,-0.240726063951499,0.2695470791264757
1729876608603719700,1.1457197265625,-0.8298145532608032,0.06733083724975586,0.14005963504314423,-0.5593883991241455,-0.2803382873535156,-0.7800609469413757,0.10734671354293823,0.18379583954811096,-0.147841215133667,0.9042576284057936,0.22693640347420813,-0.24180447255579746,0.2689769411773292
1729876608613749800,1.155749755859375,-0.5529049634933472,0.14162904024124146,0.14242663979530334,-0.5590105056762695,-0.2742055058479309,-0.7825078964233398,0.06708240509033203,0.09444162249565125,-0.1161125898361206,0.9049446828517134,0.2235509934406694,-0.24242732708699774,0.26894053525717915
1729876608623780600,1.165780517578125,-0.4812166392803192,0.15294906497001648,0.14171238243579865,-0.5581283569335938,-0.2693941295146942,-0.784805417060852,-0.018364012241363525,0.07505810260772705,-0.09266644716262817,0.9055304825904706,0.22083049255109793,-0.24255140019453364,0.2691044904337238
1729876608633810700,1.175810791015625,-0.23262439668178558,0.12767300009727478,0.2321152538061142,-0.5575802326202393,-0.26543503999710083,-0.7865421772003174,-0.04570651054382324,0.09394142031669617,0.016171753406524658,0.9058479279968265,0.21874369958374398,-0.2426522432479968,0.26964928993781206
1729876608643841800,1.185841796875,0.1021067202091217,0.20086200535297394,0.25959402322769165,-0.5569952726364136,-0.26354679465293884,-0.7875908613204956,-0.0247003436088562,0.06393122673034668,-0.013998985290527344,0.905764961590792,0.217946949519039,-0.2422884290841543,0.2708974130810719
1729876608653871600,1.19587158203125,0.20242878794670105,0.2766891121864319,0.2066224068403244,-0.5556430220603943,-0.2635878324508667,-0.7885317206382751,-0.03374296426773071,0.015968143939971924,-0.025188863277435303,0.9055584117753259,0.21810065939301587,-0.2411767817300039,0.2724514618234756
1729876608663902700,1.20590283203125,0.13062338531017303,0.19130514562129974,0.17620058357715607,-0.5542553067207336,-0.26382210850715637,-0.7894295454025269,-0.04205822944641113,-0.013445466756820679,0.003205239772796631,0.9054081679549738,0.21828522810197015,-0.24007662360664442,0.2737716707753119
1729876608673932500,1.2159326171875,0.23208874464035034,0.13172516226768494,0.19448132812976837,-0.5535331964492798,-0.2641415596008301,-0.7898292541503906,-0.03904193639755249,-0.07359659671783447,-0.007640719413757324,0.9051550542554202,0.21862121264329384,-0.2393535622953496,0.27497112109072025
1729876608683962600,1.225962646484375,0.304943710565567,0.2703634202480316,0.19472819566726685,-0.5525442957878113,-0.2652626037597656,-0.7901459336280823,-0.066275954246521,-0.17899712920188904,-0.051223576068878174,0.9048050048953936,0.21938883736434772,-0.23831823651283887,0.27640697602486425
1729876608693993500,1.235993408203125,0.047947611659765244,0.3953453004360199,0.20264923572540283,-0.5503777265548706,-0.26581770181655884,-0.7914703488349915,-0.13408583402633667,-0.23995020985603333,0.02413642406463623,0.9047136871978791,0.21961781656724405,-0.23671258249022442,0.2778998530397268
1729876608704023600,1.2460234375,-0.44664761424064636,0.360887736082077,0.3055897355079651,-0.5479412078857422,-0.26286938786506653,-0.7941411137580872,-0.1621417999267578,-0.23749688267707825,0.1588110327720642,0.9050434022349568,0.2178800193553932,-0.23549465764579064,0.27922577774268853
1729876608714054700,1.2560546875,-0.8538771867752075,0.34009963274002075,0.38377615809440613,-0.5461333990097046,-0.25570929050445557,-0.7977161407470703,-0.10706484317779541,-0.2696967124938965,0.1645832657814026,0.9056658757285077,0.21400827216285165,-0.23524963463728157,0.28040573560856735
1729876608724084700,1.266084716796875,-1.1747394800186157,0.35699865221977234,0.36304664611816406,-0.5442474484443665,-0.24539481103420258,-0.8022319078445435,-0.07283324003219604,-0.2982149124145508,0.11222958564758301,0.906636951064328,0.20839525255900368,-0.23548982975783064,0.28129210964313195
1729876608734115600,1.276115478515625,-1.1694085597991943,0.2670605182647705,0.26601728796958923,-0.5424680113792419,-0.23404088616371155,-0.8068167567253113,-0.05852991342544556,-0.23173373937606812,0.06089097261428833,0.9077870165237636,0.20215084947551293,-0.2360649456366091,0.28165753192677967
1729876608744145700,1.286145751953125,-0.9970836043357849,0.1924039125442505,0.15185636281967163,-0.5410749912261963,-0.22410368919372559,-0.8105648756027222,-0.03062617778778076,-0.11084209382534027,-0.03561115264892578,0.9088633694783318,0.19662347281864884,-0.23676309853680422,0.2815135847879991
1729876608754176500,1.296176513671875,-0.7086603045463562,0.14390482008457184,0.1849525421857834,-0.5400962829589844,-0.21622700989246368,-0.8133522868156433,0.0074271559715271,0.027231529355049133,-0.048479318618774414,0.9096697859292643,0.1922791059070454,-0.23738702010040133,0.28138434339142476
1729876608764206600,1.30620654296875,-0.4254203736782074,0.21628111600875854,0.2502758800983429,-0.5391539335250854,-0.2104925811290741,-0.8154789209365845,0.04817187786102295,0.10796867311000824,-0.11445266008377075,0.9100995999316482,0.18923252932152243,-0.2375954347809948,0.2818831787130776
1729876608774237700,1.31623779296875,-0.368598610162735,0.2820036709308624,0.27154281735420227,-0.5375329852104187,-0.20563524961471558,-0.8177850842475891,0.025112271308898926,0.11864480376243591,-0.09202009439468384,0.9104399944018694,0.1866269786756274,-0.2372295120909319,0.28282754098596247
1729876608784267800,1.326267822265625,-0.3347199857234955,0.3715319037437439,0.2709345519542694,-0.5354369282722473,-0.20134738087654114,-0.8202234506607056,-0.02018141746520996,0.08509056270122528,0.011339843273162842,0.9107569839726422,0.1842747780199086,-0.23649753072609406,0.2839600437877104
1729876608794298600,1.336298583984375,-0.5572270750999451,0.49058103561401367,0.25528794527053833,-0.53243488073349,-0.19644708931446075,-0.8233599662780762,-0.04303508996963501,-0.016580969095230103,0.08628422021865845,0.911275213004882,0.18141874945595013,-0.23538744407320364,0.28505710609671553
1729876608804328700,1.34632861328125,-0.9590978622436523,0.5510379076004028,0.25084924697875977,-0.5284945964813232,-0.18875430524349213,-0.8276867270469666,-0.05039340257644653,-0.10119332373142242,0.20138978958129883,0.9122290857127658,0.1768524177972972,-0.23426451921494407,0.28579987068300017
1729876608814358800,1.35635888671875,-1.2120760679244995,0.5102862119674683,0.17466261982917786,-0.5245048403739929,-0.17853397130966187,-0.832478404045105,-0.017319560050964355,-0.150888130068779,0.22360700368881226,0.91348039642857,0.17085749858988442,-0.23359905948137236,0.28599424499891535
1729876608824389600,1.3663896484375,-1.3769994974136353,0.37011685967445374,0.0004849489778280258,-0.5208501815795898,-0.16698607802391052,-0.837156355381012,0.02498525381088257,-0.12547925114631653,0.21719181537628174,0.9149978301459887,0.16403333513117058,-0.23348424687195748,0.28523170736646875
1729876608834419700,1.376419677734375,-0.9841188192367554,0.30487021803855896,-0.13220305740833282,-0.5180712938308716,-0.1572837233543396,-0.8407520055770874,0.05708795785903931,-0.014057338237762451,0.24024242162704468,0.9164312057759552,0.1581727840304348,-0.23367789043194978,0.2837778823840902
1729876608844450800,1.386450927734375,-0.5103415250778198,0.3549984097480774,-0.18894702196121216,-0.5150231719017029,-0.1519433557987213,-0.8436020016670227,0.0918663740158081,0.09061817824840546,0.10327613353729248,0.9176417325339262,0.15451186341678377,-0.23307739699775093,0.2823733978654233
1729876608854480600,1.396480712890625,-0.14367887377738953,0.4459701180458069,-0.07763701677322388,-0.5114401578903198,-0.1499297320842743,-0.8461382985115051,0.09485989809036255,0.18066082894802094,0.1449359655380249,0.9185562066019828,0.1526230026520661,-0.23159677089986735,0.28164441305779375
1729876608864511700,1.40651171875,0.16547909379005432,0.49684977531433105,0.08996183425188065,-0.507408618927002,-0.15006442368030548,-0.8485382795333862,0.10176897048950195,0.20937524735927582,0.153592050075531,0.9190818528463671,0.15203421094658992,-0.22938280202275674,0.28205981393620255
1729876608874542300,1.416542236328125,0.25949615240097046,0.5098035931587219,0.16512051224708557,-0.503308117389679,-0.15134118497371674,-0.850750744342804,0.09667658805847168,0.16522657871246338,0.09641730785369873,0.9192876758551787,0.1522284989004572,-0.2268283665605022,0.2833472275645514
1729876608884573200,1.4265732421875,0.11835719645023346,0.4521445631980896,0.017222382128238678,-0.49929603934288025,-0.15246593952178955,-0.8529112935066223,0.08344820141792297,0.1026153713464737,0.057562172412872314,0.9195370164227824,0.15231108930353282,-0.22437846822429758,0.2844422423316912
1729876608894603300,1.436603271484375,-0.07330437749624252,0.2810668349266052,-0.29301854968070984,-0.4959356486797333,-0.1533815562725067,-0.8547057509422302,0.072214275598526,0.07266245782375336,0.04412841796875,0.9201235488207486,0.15206532684894383,-0.2225381994162969,0.2841224897621981
1729876608904634000,1.446634033203125,-0.3462608754634857,0.047693271189928055,-0.42759767174720764,-0.4938788115978241,-0.15349127352237701,-0.8558762669563293,0.07575741410255432,0.09421075880527496,0.01603257656097412,0.921013476605675,0.1512876912079544,-0.22175189960034705,0.28226304334997226
1729876608914664000,1.456663818359375,-0.5595387816429138,-0.11735400557518005,-0.3221317231655121,-0.49367690086364746,-0.1514444202184677,-0.8563572764396667,0.10630196332931519,0.12999044358730316,0.009082555770874023,0.9218600453929027,0.14964707763769744,-0.22232212317600525,0.27991570637892593
1729876608924695300,1.4666953125,-0.6908106803894043,-0.12396077066659927,0.058967165648937225,-0.4945452809333801,-0.1468105912208557,-0.8566631078720093,0.09754204750061035,0.14423175156116486,-0.05070078372955322,0.9223920569458491,0.14709954110717763,-0.22367426135682295,0.27843235893657636
1729876608934725000,1.47672509765625,-0.8172644972801208,-0.0616646483540535,0.4829232394695282,-0.49570226669311523,-0.13877123594284058,-0.8573341369628906,0.04671233892440796,0.08504492044448853,-0.1374320387840271,0.922459019449415,0.14333383631865163,-0.22536267934889787,0.2788126829335887
1729876608944756000,1.486755859375,-0.8576439023017883,0.0495864599943161,0.511955976486206,-0.4964792728424072,-0.1289781779050827,-0.85841304063797,-0.04557397961616516,-0.026463210582733154,-0.21867430210113525,0.9223004506533591,0.13889273738463795,-0.2269411415678645,0.28030062730132116
1729876608954786000,1.4967861328125,-1.0493100881576538,0.1641567200422287,0.16227518022060394,-0.49599552154541016,-0.11910578608512878,-0.8601175546646118,-0.18848326802253723,-0.10747208446264267,-0.2466786503791809,0.9225726226180245,0.1339813302203055,-0.22801362564142993,0.28092450720848056
1729876608964816100,1.506816162109375,-1.2473636865615845,0.02453351765871048,-0.1595851331949234,-0.4949824810028076,-0.10919629037380219,-0.8620142340660095,-0.26421859860420227,-0.11374998837709427,-0.1284794807434082,0.9234800851472396,0.12849068686482792,-0.22909173756601114,0.2796279195291638
1729876608974847000,1.516846923828125,-1.3686070442199707,-0.19774802029132843,-0.2635783851146698,-0.4954680800437927,-0.09892725944519043,-0.8629744052886963,-0.20475777983665466,-0.038478247821331024,-0.07306075096130371,0.9245329184938759,0.12276261508040952,-0.23117557291167914,0.27699487680676904
1729876608984877000,1.526876953125,-1.259940266609192,-0.444698691368103,-0.17300640046596527,-0.4980682134628296,-0.08849538862705231,-0.8626103401184082,-0.0783478319644928,0.10148051381111145,-0.11714118719100952,0.9252660284817529,0.117283857218048,-0.23439140271050354,0.27420406047514134
1729876608994908200,1.536908203125,-0.7840250134468079,-0.48354029655456543,-0.09710579365491867,-0.5021442174911499,-0.08009299635887146,-0.8610669374465942,0.03403502702713013,0.2249750792980194,-0.2175920605659485,0.9254744516808472,0.11324155398279581,-0.23799764576888058,0.272085330217025
1729876609004938200,1.546938232421875,-0.18703028559684753,-0.31683146953582764,-0.0772298201918602,-0.5055217742919922,-0.07636643946170807,-0.8594276309013367,0.04797172546386719,0.2978629171848297,-0.3337180018424988,0.9253931433669764,0.11164244760538017,-0.2404623502366946,0.2708529413728055
1729876609014969000,1.556968994140625,0.26620325446128845,-0.24139611423015594,0.0265602245926857,-0.5078582763671875,-0.0769767314195633,-0.8579944968223572,-0.017089903354644775,0.31467801332473755,-0.28299665451049805,0.9250721188417635,0.11229797294077838,-0.24164419388235728,0.27062665365900235
1729876609024999200,1.566999267578125,0.4875105917453766,-0.2234269678592682,0.15207341313362122,-0.5099365711212158,-0.0798509493470192,-0.8564978241920471,-0.058453381061553955,0.27028053998947144,-0.2677239179611206,0.9244383589567139,0.1143111563798457,-0.24224792616493937,0.2714084826239428
1729876609035030000,1.577030029296875,0.42631208896636963,-0.13079795241355896,0.14972637593746185,-0.5116294026374817,-0.08311565220355988,-0.8551766872406006,-0.10098046064376831,0.18603608012199402,-0.27638453245162964,0.9237251150511264,0.11656843037890581,-0.24253550519033887,0.27261724438728663
1729876609045060000,1.58706005859375,0.24785347282886505,-0.11831562221050262,0.08925183117389679,-0.5127418041229248,-0.08540647476911545,-0.8542842268943787,-0.12983638048171997,0.0912352204322815,-0.20279884338378906,0.9232182315017492,0.11815400649510012,-0.24268809842776473,0.2735144291659683
1729876609055091200,1.59709130859375,0.013467597775161266,-0.13065430521965027,0.018882598727941513,-0.5138116478919983,-0.08620240539312363,-0.8535611629486084,-0.06904357671737671,0.017522484064102173,-0.13609325885772705,0.9229213886998608,0.11883503821789675,-0.24310006146827323,0.2738551240869105
1729876609065121300,1.607121337890625,-0.12541411817073822,-0.18242909014225006,-0.05118037760257721,-0.5151666402816772,-0.08574763685464859,-0.8527899384498596,0.026992201805114746,-0.01854630559682846,-0.05646604299545288,0.9227859017039218,0.11878314382235128,-0.2439172176452547,0.2736075517055676
1729876609075151000,1.617151123046875,-0.15405482053756714,-0.21818815171718597,-0.11207541823387146,-0.5167915225028992,-0.08489208668470383,-0.8518919348716736,0.0881568193435669,-0.03586608171463013,0.04331350326538086,0.9227478139536069,0.11845943790625937,-0.24499262607537967,0.2729149180797656
1729876609085182200,1.62718212890625,-0.1455346941947937,-0.2100675404071808,-0.1295047402381897,-0.5185529589653015,-0.08430904895067215,-0.850878894329071,0.10465824604034424,-0.051997825503349304,0.11595457792282104,0.9227319535830599,0.11824721674911885,-0.24612631345869643,0.2720390151375992
1729876609095212300,1.63721240234375,-0.20464542508125305,-0.1539592742919922,-0.13741779327392578,-0.5200225114822388,-0.08354633301496506,-0.8500568270683289,0.092104971408844,-0.0668138861656189,0.15511059761047363,0.9227864191906097,0.11787311467892912,-0.2471386685874982,0.2710969656907397
1729876609105243100,1.6472431640625,-0.3374035954475403,-0.021861359477043152,-0.20947574079036713,-0.5206512212753296,-0.08212624490261078,-0.8498103022575378,0.06815177202224731,-0.08262301981449127,0.19879412651062012,0.9230619156219189,0.11695613010960056,-0.24782272991663562,0.26992934260128415
1729876609115273200,1.657273193359375,-0.4827067255973816,0.06974206119775772,-0.2494596391916275,-0.5201982855796814,-0.07987971603870392,-0.8503016829490662,0.04337632656097412,-0.10116592794656754,0.24710655212402344,0.9236597451036515,0.11531575121875214,-0.24809559989064373,0.26833470103075
1729876609125304300,1.66730419921875,-0.5232007503509521,0.05650689825415611,-0.16982366144657135,-0.5194238424301147,-0.07659517973661423,-0.8510769605636597,0.06712275743484497,-0.11543679982423782,0.26484960317611694,0.9243277241429539,0.11309980013192258,-0.24833433743414868,0.2667520456720422
1729876609135334100,1.677334228515625,-0.4978884756565094,0.014234274625778198,-0.1932818442583084,-0.5190021991729736,-0.07313349097967148,-0.8516385555267334,0.11917608976364136,-0.11256608366966248,0.21441632509231567,0.9248845530774367,0.11090428399886562,-0.24875883930608714,0.2653449979039356
1729876609145365200,1.687365234375,-0.3825097680091858,-0.12995390594005585,-0.29616960883140564,-0.5192822217941284,-0.07059746235609055,-0.8516818881034851,0.11605340242385864,-0.039922066032886505,0.1341831088066101,0.9253934750693541,0.10920672487530254,-0.24946534338697937,0.2636055927578141
1729876609155395000,1.69739501953125,-0.13089589774608612,-0.11955159902572632,-0.37617871165275574,-0.5202094316482544,-0.07013537734746933,-0.8511540293693542,0.1081763505935669,0.06242956221103668,-0.029918909072875977,0.9258055714014664,0.10860516139826716,-0.25025568133833853,0.2616507093138893
1729876609165426200,1.70742626953125,0.031271763145923615,-0.09828406572341919,-0.38005971908569336,-0.5208151936531067,-0.07180450111627579,-0.8506442904472351,0.10020661354064941,0.11684832721948624,-0.15661883354187012,0.9262025676570472,0.10903671955215444,-0.2505770389193571,0.2597518094171023
1729876609175456000,1.7174560546875,0.16000044345855713,-0.15219417214393616,-0.27105146646499634,-0.5216270685195923,-0.07432271540164948,-0.8499301671981812,0.07321703433990479,0.11681832373142242,-0.04884296655654907,0.926424147362881,0.11004470496143615,-0.2508486983356478,0.25827007990425704
1729876609185487000,1.727487060546875,0.2023196667432785,-0.19635950028896332,-0.1662241369485855,-0.5230283141136169,-0.07709986716508865,-0.8488209247589111,0.05697911977767944,0.0625276118516922,0.011082947254180908,0.9263625760424348,0.11145379499193804,-0.25133162440293166,0.2574156472839504
1729876609195517200,1.73751708984375,-0.05062616616487503,-0.1005072221159935,-0.14009559154510498,-0.524206280708313,-0.07871375232934952,-0.8479456901550293,0.003377974033355713,-0.030325666069984436,0.05253559350967407,0.9263103235654979,0.11228950324575164,-0.2518297271452507,0.25675304797956466
1729876609205547000,1.747547119140625,-0.5591274499893188,0.00650093425065279,-0.10503321886062622,-0.5244661569595337,-0.07682741433382034,-0.8479580283164978,-0.055535733699798584,-0.12284921854734421,0.13534212112426758,0.9265815003691997,0.11111581016205259,-0.252337585788019,0.25578491563953415
1729876609215578000,1.757578125,-1.063421368598938,0.012257888913154602,-0.06551723927259445,-0.524272620677948,-0.07032104581594467,-0.8486419916152954,-0.06453359127044678,-0.21271434426307678,0.2135406732559204,0.927155878897151,0.10740682778357961,-0.25326425586716084,0.25436811195928544
1729876609225608200,1.767608154296875,-1.4574263095855713,-0.014079708606004715,-0.07602820545434952,-0.524250328540802,-0.059856660664081573,-0.8494579195976257,-0.0499836802482605,-0.2908819913864136,0.233506441116333,0.9279022010871247,0.10158838851797176,-0.2548545478224538,0.25244108462638853
1729876609235639000,1.77763916015625,-1.7208960056304932,0.03102891333401203,-0.18451711535453796,-0.5241398811340332,-0.04690679907798767,-0.8503394722938538,-0.03575092554092407,-0.3294818699359894,0.17670971155166626,0.9288472398069834,0.0943137872318457,-0.2567784750779934,0.249825073654708
1729876609245669000,1.787669189453125,-1.9681744575500488,0.041945479810237885,-0.35311731696128845,-0.5236955881118774,-0.03259057179093361,-0.8512818813323975,-0.032166898250579834,-0.29573291540145874,0.09894728660583496,0.9300692910104705,0.08601761442329575,-0.2587663703469842,0.24619526705586373
1729876609255700200,1.7977001953125,-2.089113473892212,-0.04376330226659775,-0.42799556255340576,-0.5235992670059204,-0.01722807250916958,-0.8517904877662659,-0.011740148067474365,-0.19135969877243042,0.07763588428497314,0.9313898728965513,0.07700029915424218,-0.26110478531469156,0.2416779241582743
1729876609265730000,1.80772998046875,-1.9889262914657593,-0.15855108201503754,-0.43274956941604614,-0.5244215726852417,-0.001979983877390623,-0.8514564633369446,0.050956547260284424,-0.07350536435842514,0.034973978996276855,0.9325269904349642,0.06809880974484821,-0.26388315171712495,0.23690025572477783
1729876609275761200,1.81776123046875,-1.9079946279525757,-0.29927465319633484,-0.24632643163204193,-0.5263662934303284,0.012670444324612617,-0.850163459777832,0.08674532175064087,0.03756137564778328,-0.013499200344085693,0.9332590553395239,0.0597867538800093,-0.26710261410967606,0.23261379152620734
1729876609285791200,1.827791259765625,-1.742575764656067,-0.3089989423751831,-0.03613032028079033,-0.529049813747406,0.027605712413787842,-0.848141610622406,0.11456000804901123,0.12246435135602951,-0.05848979949951172,0.9335104666114148,0.05172714363936807,-0.2706538252859817,0.22940997153937884
1729876609295822000,1.837822021484375,-1.4782344102859497,-0.2821284532546997,0.047351788729429245,-0.53154057264328,0.041361063718795776,-0.846022367477417,0.07489079236984253,0.11537709832191467,-0.10765188932418823,0.9334775088526376,0.044511505854392064,-0.27387504457748524,0.22722414324336743
1729876609305852200,1.84785205078125,-1.3787366151809692,-0.23940305411815643,0.010178855620324612,-0.533751368522644,0.05347659811377525,-0.8439489006996155,-0.0009319186210632324,0.0364738292992115,-0.08097785711288452,0.9333677718311898,0.038171839386876794,-0.27671007802988723,0.2253863089226555
1729876609315883300,1.85788330078125,-1.6178016662597656,-0.20239043235778809,-0.05731656774878502,-0.5356128215789795,0.06585067510604858,-0.8418922424316406,-0.04034543037414551,-0.03989560157060623,-0.0214957594871521,0.9333516019295224,0.03152531493760957,-0.2793922380922959,0.22316131400479106
1729876609325913000,1.8679130859375,-1.9801956415176392,-0.3048020899295807,-0.02140117436647415,-0.5375376343727112,0.08084138482809067,-0.8393556475639343,-0.035689353942871094,-0.09661908447742462,0.1108705997467041,0.9333370782293154,0.023378255495903055,-0.2824457984232145,0.22036257941407883
1729876609335943200,1.877943115234375,-2.297069787979126,-0.22753046452999115,0.05965985357761383,-0.5399991273880005,0.09898337721824646,-0.8358249068260193,0.010168135166168213,-0.1326901614665985,0.1800937056541443,0.9330822731114975,0.013642407143293464,-0.28618428154892156,0.21741647539022194
1729876609345974300,1.887974365234375,-2.342740058898926,-0.19944307208061218,0.013557075522840023,-0.5417493581771851,0.11890596896409988,-0.8320870995521545,0.02810800075531006,-0.12507064640522003,0.19417822360992432,0.932832372548616,0.002786592589595256,-0.289738970498017,0.21416659363790155
1729876609356004400,1.89800439453125,-1.8469302654266357,-0.08199606835842133,-0.12523622810840607,-0.5430396795272827,0.13631513714790344,-0.828568696975708,-0.038991570472717285,-0.03913204371929169,-0.012083709239959717,0.9326494242762048,-0.006915288313161485,-0.29269069164026995,0.21083018014048105
1729876609366035200,1.90803515625,-1.2615200281143188,-0.004836409352719784,-0.24029862880706787,-0.5436774492263794,0.14805737137794495,-0.8261318206787109,-0.0974816083908081,0.09892125427722931,-0.2623233199119568,0.9327039151736082,-0.013791493540463202,-0.29452313165709065,0.20767572791971467
1729876609376065300,1.918065185546875,-0.8150593638420105,0.08454860001802444,-0.19939246773719788,-0.5436255931854248,0.15539003908634186,-0.8248183131217957,-0.10362178087234497,0.2623191773891449,-0.31476908922195435,0.9329262524299858,-0.018347399106360178,-0.29538827135541246,0.20508008768553052
1729876609386096000,1.92809619140625,-0.40392425656318665,0.05451623722910881,-0.014114766381680965,-0.543256938457489,0.15975047647953033,-0.8242279291152954,-0.04226863384246826,0.3427518308162689,-0.1924041509628296,0.9330760400706635,-0.021056591216918445,-0.2957070208593675,0.20367401645612987
1729876609396126000,1.9381259765625,-0.05026417598128319,0.11967314034700394,0.03925791010260582,-0.54250568151474,0.16169433295726776,-0.8243436813354492,0.02773517370223999,0.2631102502346039,-0.08286762237548828,0.9331553632902734,-0.022206259223818872,-0.29552503067027197,0.20345238947485905
1729876609406157300,1.9481572265625,0.06346984952688217,0.18654532730579376,-0.053250450640916824,-0.5412396192550659,0.161437526345253,-0.8252257704734802,0.019099116325378418,0.09066806733608246,-0.0171051025390625,0.9333863491181505,-0.0222186220394622,-0.2947769419453347,0.20347657949218123
1729876609416187100,1.958187255859375,-0.13778389990329742,0.23043474555015564,-0.10182544589042664,-0.5396166443824768,0.16116304695606232,-0.8263415098190308,-0.022257745265960693,-0.017120227217674255,0.06456178426742554,0.9337869739666823,-0.02241915117906421,-0.29381391722729194,0.2030088127029269
1729876609426218000,1.968218017578125,-0.22206349670886993,0.21495230495929718,-0.02952221781015396,-0.5378366112709045,0.1624414324760437,-0.8272511959075928,-0.038243770599365234,-0.032421424984931946,0.07647299766540527,0.9341706287728517,-0.023483243931122815,-0.29295553181945716,0.20236300212849476
1729876609436248000,1.978248046875,-0.10511557757854462,0.24829694628715515,0.015307304449379444,-0.5359886884689331,0.16383685171604156,-0.828174889087677,-0.02931898832321167,0.00910612940788269,-0.052592933177948,0.9344757151247326,-0.024494703608851403,-0.29208314285584364,0.20209561610991794
1729876609446279200,1.988279052734375,0.09413547813892365,0.38720402121543884,-0.12411770224571228,-0.5334597229957581,0.16369736194610596,-0.8298336267471313,-0.05446141958236694,0.1102893203496933,-0.11425811052322388,0.9349801007373427,-0.02480777810556463,-0.2906333654040822,0.20181407019768663
1729876609456309000,1.99830908203125,0.5568701028823853,0.5404188632965088,-0.2753623425960541,-0.5299372673034668,0.16021622717380524,-0.8327648639678955,-0.11700493097305298,0.22589203715324402,-0.09773135185241699,0.9358957812915402,-0.023637547749578845,-0.2881993083938642,0.20120046541321593
1729876609466339000,2.008339111328125,1.3719102144241333,0.6671290397644043,-0.3200903832912445,-0.5253094434738159,0.15048107504844666,-0.8374994993209839,-0.11531555652618408,0.2713327407836914,-0.12362110614776611,0.9371783368695276,-0.019254836058796493,-0.28439319575107225,0.2011135484201111
1729876609476370200,2.0183701171875,1.8788386583328247,0.7333144545555115,-0.3479902148246765,-0.5198904275894165,0.1348136067390442,-0.8435278534889221,-0.05979102849960327,0.27912670373916626,-0.07447141408920288,0.9386337584623647,-0.011725996524884605,-0.2794612177164056,0.2018182894938863
1729876609486400000,2.02839990234375,1.9870980978012085,0.7316411733627319,-0.3618607521057129,-0.5140512585639954,0.11635612696409225,-0.8498308658599854,-0.01698511838912964,0.3222728967666626,0.03794121742248535,0.9401005721835162,-0.002777976696001768,-0.27400153700847574,0.20279625870022586
1729876609496431000,2.03843115234375,2.2919564247131348,0.6831066608428955,-0.29654404520988464,-0.5083649754524231,0.0965944305062294,-0.855707049369812,0.028811752796173096,0.31191372871398926,0.07177156209945679,0.9413776841252899,0.0069144694547390645,-0.2685119472207423,0.20411136977720845
1729876609506461200,2.048461181640625,2.524888038635254,0.5977169871330261,-0.2926318645477295,-0.5030608177185059,0.07416743040084839,-0.8610627055168152,0.08721297979354858,0.17474907636642456,-0.08273911476135254,0.9423791716815232,0.01813864879247845,-0.26294415958032674,0.20604069820371188
1729876609516492000,2.058491943359375,2.278559923171997,0.5411632061004639,-0.39834657311439514,-0.49837976694107056,0.05147307366132736,-0.8654294013977051,0.08736899495124817,0.02877277508378029,-0.051379621028900146,0.9431785345755951,0.029458456233178915,-0.2577159037596314,0.20767488287605884
1729876609526522000,2.068522216796875,1.9909881353378296,0.530019223690033,-0.576214075088501,-0.4939625859260559,0.03061232529580593,-0.8689441084861755,0.06618240475654602,-0.06523463875055313,0.09147828817367554,0.9439968186503315,0.03956184905400372,-0.25290871062451153,0.2081874603050161
1729876609536553200,2.07855322265625,1.6026159524917603,0.45596471428871155,-0.7258373498916626,-0.4897512197494507,0.011550070717930794,-0.8717857003211975,0.052068084478378296,-0.1296226978302002,0.13957750797271729,0.9449091201720325,0.04845110659095699,-0.24851483935474725,0.20746015870790135
1729876609546583300,2.088583251953125,1.3375085592269897,0.38261687755584717,-0.7818585634231567,-0.4861206114292145,-0.0048215072602033615,-0.8738784193992615,0.05444943904876709,-0.08714333921670914,0.15390777587890625,0.9458342355378302,0.055811620205600494,-0.24483841114413188,0.20575932983732084
1729876609556614100,2.0986142578125,1.2877535820007324,0.30732691287994385,-0.7168651819229126,-0.48299235105514526,-0.02000916376709938,-0.8753959536552429,0.05624973773956299,0.004872320219874382,0.08972090482711792,0.9466425832945742,0.06260679218566591,-0.2416245510190308,0.20387693709966662
1729876609566644200,2.108644287109375,1.257124423980713,0.26937389373779297,-0.6178469657897949,-0.4803112745285034,-0.03436194360256195,-0.8764247298240662,0.04397088289260864,0.0590352863073349,0.019109725952148438,0.9472416856554388,0.06914222265848378,-0.23876133328865132,0.20235028327228793
1729876609576674300,2.11867431640625,1.1079282760620117,0.23906658589839935,-0.586605966091156,-0.47785115242004395,-0.04776519909501076,-0.8771412372589111,0.020529955625534058,0.03357439488172531,0.0019124150276184082,0.9477186339843965,0.07528198911643133,-0.2361397874696533,0.200997655225308
1729876609586705200,2.128705078125,0.8409915566444397,0.15673117339611053,-0.4575696885585785,-0.47578680515289307,-0.05891187861561775,-0.8775854706764221,0.0027795732021331787,-0.0699792429804802,0.027976155281066895,0.948104519377627,0.08035945041824134,-0.2339863492540821,0.19972626244574318
1729876609596735200,2.1387353515625,0.4262188971042633,0.10067323595285416,-0.3399178981781006,-0.47443196177482605,-0.06649307161569595,-0.8777773380279541,0.044118791818618774,-0.2428637444972992,0.0261385440826416,0.9483769985934523,0.08377776722263806,-0.23257821359793499,0.1986702421671406
1729876609606766300,2.148766357421875,-0.2918680012226105,0.044203199446201324,-0.27937012910842896,-0.4735637605190277,-0.06871764361858368,-0.8780747652053833,0.06128650903701782,-0.3957294821739197,0.0585252046585083,0.9487341483920797,0.08447234482570852,-0.2320065615523703,0.19733482872773256
1729876609616796200,2.158796142578125,-1.110841155052185,0.011423148214817047,-0.21804845333099365,-0.4731573760509491,-0.06365189701318741,-0.8786754608154297,0.05729430913925171,-0.46326470375061035,0.1493968963623047,0.9493026728783447,0.08136414327072825,-0.23246969363436318,0.1953512672741294
1729876609626827300,2.1688271484375,-1.897485613822937,-0.09362252801656723,-0.20405299961566925,-0.4733498692512512,-0.05141283944249153,-0.8793728351593018,0.06218650937080383,-0.502191424369812,0.20992404222488403,0.9500498545224212,0.07449730660733482,-0.23401650610317193,0.19259211848449606
1729876609636857000,2.178857177734375,-2.706462860107422,-0.18877167999744415,-0.2848224341869354,-0.4745342433452606,-0.03217041492462158,-0.8796489834785461,0.05908316373825073,-0.49029064178466797,0.23755919933319092,0.9509047798086298,0.06391186941417985,-0.23683491049004685,0.1886921763138349
1729876609646888200,2.18888818359375,-3.2744357585906982,-0.29526060819625854,-0.532355785369873,-0.47656428813934326,-0.007526075467467308,-0.8791074156761169,0.049653857946395874,-0.3722195327281952,0.15236186981201172,0.9518547439162077,0.05024919460610583,-0.2406684634331743,0.18310208074198775
1729876609656918000,2.19891796875,-3.4907641410827637,-0.27735909819602966,-0.7339760065078735,-0.4791645407676697,0.019290683791041374,-0.8775131106376648,0.02408638596534729,-0.12242496758699417,0.032588183879852295,0.9528127936821812,0.0350756485457048,-0.24497582747158084,0.17579639998085156
1729876609666949000,2.20894921875,-3.3975014686584473,-0.4414505362510681,-0.4612448513507843,-0.4823927581310272,0.046639055013656616,-0.8747125864028931,0.023072659969329834,0.19797447323799133,0.031527161598205566,0.953414848360188,0.019611388389391863,-0.24951776338344894,0.16839409007594827
1729876609676979000,2.21897900390625,-2.9033164978027344,-0.4677164852619171,0.016740083694458008,-0.4865688681602478,0.073465496301651,-0.8705478310585022,0.10993614792823792,0.37389153242111206,0.020007729530334473,0.9531898646076213,0.005070042014077206,-0.25436268499842907,0.163410214322604
1729876609687010000,2.229010009765625,-2.2783374786376953,-0.5252598524093628,-0.034054651856422424,-0.49093136191368103,0.0961320698261261,-0.865878164768219,0.10984307527542114,0.31760984659194946,-0.091519296169281,0.9525096755191851,-0.006923865979460092,-0.25886864772688684,0.16020088476716962
1729876609697040100,2.2390400390625,-1.9402382373809814,-0.5579847693443298,-0.3259376287460327,-0.4957400858402252,0.11322718113660812,-0.8610582947731018,-0.015505701303482056,0.12155966460704803,-0.0894269347190857,0.9518391779524594,-0.016189208243864068,-0.2630756061288969,0.15662443371110663
1729876609707070200,2.2490703125,-1.934953212738037,-0.5968866944313049,-0.311908096075058,-0.501172661781311,0.12812508642673492,-0.8558095097541809,-0.042955756187438965,-0.033307090401649475,0.0038961172103881836,0.9511301795484854,-0.024482462585728247,-0.26738706680797897,0.15250002223241935
1729876609717101000,2.25910107421875,-1.9837356805801392,-0.6016124486923218,-0.13553066551685333,-0.5065839886665344,0.14375978708267212,-0.8501210808753967,0.038490116596221924,-0.12306898832321167,0.07120567560195923,0.9502078774678702,-0.0330684924569647,-0.27174610396929355,0.14888144053778182
1729876609727131100,2.269131103515625,-1.8756297826766968,-0.604613184928894,-0.07083530724048615,-0.5118963718414307,0.15985098481178284,-0.8440436720848083,0.050272226333618164,-0.1529693901538849,0.09662240743637085,0.9490747015371737,-0.041777007397090775,-0.27610295754023545,0.1458730767745763
1729876609737162200,2.279162353515625,-1.6730133295059204,-0.6352645754814148,-0.08949767053127289,-0.5172414183616638,0.17427434027194977,-0.8379079699516296,-0.015915870666503906,-0.11804583668708801,0.06581324338912964,0.9478681336309256,-0.04958441782247415,-0.2803344658218468,0.14317783174791718
1729876609747192000,2.289192138671875,-1.5649915933609009,-0.5846404433250427,-0.04661891609430313,-0.5225460529327393,0.18752053380012512,-0.8317341208457947,-0.08049654960632324,-0.01086968183517456,0.025917530059814453,0.9466079298882303,-0.05676528653648724,-0.2844479486647589,0.14071395645282078
1729876609757223200,2.29922314453125,-1.357096791267395,-0.46295127272605896,-0.00800760556012392,-0.5269351005554199,0.1995493769645691,-0.8261473178863525,-0.12313508987426758,0.10677069425582886,0.013250589370727539,0.9454359267922339,-0.06330285484189202,-0.2879567397339541,0.1386524127965912
1729876609767253200,2.309253173828125,-1.1472491025924683,-0.37462931871414185,0.024430759251117706,-0.5303757190704346,0.20993565022945404,-0.821357786655426,-0.15442347526550293,0.15259778499603271,-0.006629884243011475,0.9444066083496894,-0.06895471153825275,-0.29080293708172855,0.1370224717039659
1729876609777284000,2.3192841796875,-1.081223726272583,-0.29167506098747253,0.02890380471944809,-0.5330509543418884,0.2191411405801773,-0.8172110319137573,-0.14352375268936157,0.12662290036678314,-0.026554226875305176,0.9435049155798131,-0.0739848086493769,-0.2931223797193404,0.13566189082455865
1729876609787314200,2.329314208984375,-1.2117080688476562,-0.23283784091472626,0.03913247585296631,-0.5351190567016602,0.228646382689476,-0.8132456541061401,-0.09949398040771484,0.06928135454654694,0.009305834770202637,0.942658445872662,-0.07925334227531805,-0.2951204638808712,0.13423114729045318
1729876609797345300,2.33934521484375,-1.2447017431259155,-0.19025442004203796,0.04866712540388107,-0.536708414554596,0.2390027791261673,-0.8092105984687805,-0.027256488800048828,0.03379371762275696,0.07868081331253052,0.9418062666692643,-0.08505312853156648,-0.29691862462184065,0.13268895496749247
1729876609807375000,2.349375,-1.1849536895751953,-0.22597411274909973,-0.025106698274612427,-0.5382843613624573,0.24884748458862305,-0.8051862716674805,0.027221739292144775,0.0313647985458374,0.04728215932846069,0.9409691621944564,-0.09064086975562063,-0.2986488056275509,0.13103509897490487
1729876609817405200,2.3594052734375,-1.1494839191436768,-0.2735089063644409,0.023288797587156296,-0.5404276251792908,0.25839072465896606,-0.8007322549819946,0.04511207342147827,0.09202724695205688,0.07932722568511963,0.9400229121059394,-0.0960755804803582,-0.30067148669026256,0.12931759590983594
1729876609827436300,2.369436279296875,-0.6648638248443604,-0.1946493238210678,0.022571075707674026,-0.5422078967094421,0.2659330666065216,-0.797050952911377,0.06703394651412964,0.15429386496543884,0.019585132598876953,0.9391963876299775,-0.10030409752887925,-0.3023468547010517,0.12820138182367313
1729876609837466000,2.379466064453125,-0.31915488839149475,-0.13322778046131134,-0.06674708425998688,-0.5435460209846497,0.2695152759552002,-0.7949334383010864,0.027219116687774658,0.15263426303863525,-0.12004458904266357,0.9387322364640668,-0.10235328478235592,-0.30340910741135996,0.1274691834908873
1729876609847497200,2.389497314453125,-0.2450081706047058,-0.07237161695957184,-0.043144289404153824,-0.5445753931999207,0.2714805603027344,-0.7935590147972107,-0.029017746448516846,0.14625918865203857,-0.04275995492935181,0.9384563764883692,-0.10354744742846374,-0.3041355051236944,0.12680374111267856
1729876609857527300,2.39952734375,-0.13324089348316193,0.05207123979926109,-0.02260572277009487,-0.5447326302528381,0.2727813124656677,-0.7930049300193787,-0.02646493911743164,0.06188955903053284,0.014577746391296387,0.9383634357034722,-0.10435798509450955,-0.3043139126872162,0.126398907676653
1729876609867559000,2.409558837890625,-0.1905931830406189,0.13042719662189484,-0.05335910990834236,-0.5440767407417297,0.2738123834133148,-0.7930998206138611,-0.031622111797332764,-0.06182217597961426,0.008706510066986084,0.9384502027123817,-0.10509047694073646,-0.3039836916719196,0.1259409920785004
1729876609877589000,2.419589111328125,-0.24531368911266327,0.15600499510765076,-0.06447913497686386,-0.5430939793586731,0.2752503752708435,-0.7932755947113037,-0.026150405406951904,-0.10334497690200806,0.07676857709884644,0.9385949469678428,-0.10614566753820229,-0.3034720899503862,0.1252088699742726
1729876609887620000,2.4296201171875,-0.03522670269012451,0.11744198948144913,-0.00048604002222418785,-0.5420931577682495,0.2763283848762512,-0.7935853004455566,0.014215290546417236,-0.07321876287460327,0.09009408950805664,0.938739259921838,-0.10692381355632187,-0.3029433035131176,0.12474480886178928
1729876609897650000,2.43964990234375,0.3844113051891327,0.12578541040420532,0.015602116473019123,-0.5411496162414551,0.2750796377658844,-0.794662356376648,0.051189959049224854,0.016408860683441162,0.03280627727508545,0.938994030401942,-0.10623865299383753,-0.30229485692441266,0.12498511909999796
1729876609907681000,2.449680908203125,0.8596287369728088,0.257961243391037,-0.07138524949550629,-0.5397170782089233,0.27002108097076416,-0.7973669767379761,0.02361905574798584,0.1673261821269989,0.008930087089538574,0.9396143660872489,-0.10340476120813295,-0.30103814806289025,0.12573139212011866
1729876609917711000,2.459711181640625,1.543006420135498,0.4297281801700592,-0.16550694406032562,-0.5372828245162964,0.25995486974716187,-0.8023407459259033,-0.05465143918991089,0.3313841223716736,0.04410099983215332,0.9407983927844478,-0.09790470592841359,-0.2987378497743615,0.12676278344448885
1729876609927741000,2.469740966796875,2.5331599712371826,0.6310029029846191,-0.17614121735095978,-0.5334188342094421,0.24266155064105988,-0.8102960586547852,-0.10427647829055786,0.4513233006000519,-0.007651269435882568,0.9426481137355928,-0.08843619781693816,-0.29501016103570016,0.12869577197048185
1729876609937772000,2.47977197265625,3.567687749862671,0.7518457174301147,-0.041399650275707245,-0.5279819965362549,0.21691463887691498,-0.8210865259170532,-0.09511071443557739,0.4922984838485718,-0.03335988521575928,0.9450014289674064,-0.07419094916410225,-0.28974549187946913,0.13234637641947655
1729876609947802000,2.489802001953125,4.063752174377441,0.7042540311813354,0.1572631150484085,-0.5216761231422424,0.1852549910545349,-0.832787275314331,-0.03737539052963257,0.45491212606430054,-0.037986040115356445,0.9472947892628835,-0.05648950094779406,-0.28357592795571424,0.13793583532589482
1729876609957833000,2.4998330078125,4.1685357093811035,0.509059488773346,0.22115261852741241,-0.5162162184715271,0.15148723125457764,-0.8429545760154724,0.0412711501121521,0.3084125518798828,-0.09712415933609009,0.9489842121104833,-0.03750450856615432,-0.2776978808456743,0.1445903443697454
1729876609967863000,2.509863037109375,3.874128818511963,0.18553008139133453,0.18682660162448883,-0.512925386428833,0.1182357519865036,-0.8502516150474548,0.11570858955383301,0.05719442665576935,-0.14575058221817017,0.9498939395847661,-0.018816352811090467,-0.27298375196836494,0.1510871491530244
1729876609977894100,2.51989404296875,3.4136760234832764,-0.12454603612422943,0.1513517051935196,-0.5125718116760254,0.08797598630189896,-0.8541254997253418,0.18389743566513062,-0.1836334764957428,-0.0966801643371582,0.9499756575466104,-0.0017078381537977071,-0.27006356340877813,0.1568726604149186
1729876609987924200,2.52992431640625,2.622056722640991,-0.273316353559494,0.07512909173965454,-0.5143019556999207,0.062407515943050385,-0.8553354740142822,0.21391743421554565,-0.34126201272010803,-0.06600546836853027,0.94951341204225,0.012837891768735944,-0.26863999844090103,0.16153033401983033
1729876609997955000,2.539955078125,1.7531243562698364,-0.206599622964859,-0.014846869744360447,-0.5164017677307129,0.043977927416563034,-0.8552164435386658,0.1561722755432129,-0.3716300129890442,0.09091895818710327,0.94895977759149,0.023313403026259182,-0.26804526751109986,0.16457088291161598
1729876610007985200,2.549985107421875,1.3751205205917358,-0.06975042819976807,-0.08741401135921478,-0.5176777243614197,0.030662409961223602,-0.8550260663032532,0.0563129186630249,-0.27567291259765625,0.17991626262664795,0.9485976733513779,0.030745788310703757,-0.2674727251078173,0.1663593484521889
1729876610018016000,2.56001611328125,1.5103092193603516,0.04202883690595627,-0.1990571767091751,-0.5177149772644043,0.017657751217484474,-0.8553709387779236,-0.03434807062149048,-0.08012735843658447,0.07572311162948608,0.9484732244274298,0.03773496269638671,-0.26625289705671057,0.16758306794518005
1729876610028046000,2.570046142578125,1.6845154762268066,0.04268008470535278,-0.20379680395126343,-0.517386794090271,0.002845246810466051,-0.8557469248771667,-0.075295090675354,0.12311592698097229,-0.030559837818145752,0.9483711349687285,0.045584811113292364,-0.2646669024114814,0.16871751639275656
1729876610038076200,2.580076171875,1.8461380004882812,0.060025785118341446,-0.12749218940734863,-0.516898512840271,-0.013236508704721928,-0.8559443354606628,-0.02665013074874878,0.1946786493062973,-0.08137249946594238,0.948141169769227,0.05419096530220353,-0.26285198506824353,0.1702951987619597
1729876610048107300,2.590107177734375,1.772049903869629,-0.02000817097723484,-0.1225174069404602,-0.5166983604431152,-0.02949732542037964,-0.8556591868400574,0.023732662200927734,0.10519605875015259,-0.04715752601623535,0.9477327976539033,0.06299637144721346,-0.2611548581200584,0.17213949320306046
1729876610058136800,2.60013671875,1.4691195487976074,-0.1258789300918579,-0.1335495412349701,-0.5170539617538452,-0.04471578076481819,-0.8547840118408203,0.029871344566345215,-0.04196952283382416,0.025484085083007812,0.94722608086678,0.07124440193017065,-0.2598696471369167,0.17365115941716533
1729876610068168200,2.610168212890625,0.9327341318130493,0.04876503348350525,-0.1857008934020996,-0.5173625946044922,-0.054903220385313034,-0.8540032505989075,0.017652571201324463,-0.10688585042953491,0.09275758266448975,0.9468925225341501,0.07669186807032193,-0.2590689744236683,0.17434487042846064
1729876610078198000,2.620197998046875,1.3700611591339111,0.0034172600135207176,-0.13275964558124542,-0.5170167684555054,-0.06587597727775574,-0.8534365892410278,-0.051434218883514404,-0.1579858362674713,0.1538669466972351,0.9465995543456662,0.0824949535524991,-0.25782993426325196,0.17512200967271108
1729876610088228900,2.630228759765625,0.6195371747016907,0.004717308096587658,-0.11417851597070694,-0.5168799757957458,-0.07539848238229752,-0.8527309894561768,-0.038784146308898926,-0.25391682982444763,-0.04996365308761597,0.9462700274792242,0.08758048856561329,-0.2568348796181479,0.17589335703110018
1729876610098259000,2.640259033203125,0.2454647421836853,0.11774639040231705,-0.07050720602273941,-0.5163538455963135,-0.07912175357341766,-0.8527123928070068,-0.022922217845916748,-0.15879341959953308,0.1425226330757141,0.9462521372526933,0.08945174053824885,-0.2562073278739049,0.1759630598631295
1729876610108290000,2.6502900390625,0.2254461646080017,0.11794884502887726,-0.04998435080051422,-0.5152169466018677,-0.08142463862895966,-0.8531831502914429,-0.035640597343444824,-0.0339776948094368,0.07397788763046265,0.9463577545254194,0.09052956891728159,-0.25536801589535685,0.17606371167288598
1729876610118319900,2.66031982421875,0.5244954824447632,0.041197873651981354,-0.0471653938293457,-0.5144685506820679,-0.08464360982179642,-0.8533214926719666,-0.03974592685699463,0.14528191089630127,-0.022716045379638672,0.94635371490782,0.09215585945206362,-0.2546498702550761,0.17628218172491802
1729876610128351000,2.67035107421875,0.907609224319458,-0.02233971655368805,0.10836108028888702,-0.5144354701042175,-0.09086921066045761,-0.85270094871521,-0.04136592149734497,0.24324335157871246,-0.060415446758270264,0.9459933518182018,0.0956377803650951,-0.25397428329792154,0.17733330107668174
1729876610138381000,2.680381103515625,0.6657427549362183,-0.07669723033905029,0.32239028811454773,-0.5150738954544067,-0.09676839411258698,-0.8516659140586853,-0.018236100673675537,0.17901313304901123,-0.0349002480506897,0.9453329815747211,0.09930205348907294,-0.2535865900134113,0.17938373661497953
1729876610148411100,2.6904111328125,0.2964756488800049,-0.035486623644828796,0.4343644976615906,-0.5159192085266113,-0.09878415614366531,-0.8509224653244019,-0.015986919403076172,-0.023209989070892334,0.12425321340560913,0.9446779033532112,0.10108707589253531,-0.2536142088791956,0.18178259073967348
1729876610158442000,2.70044189453125,-0.17129845917224884,-0.04284333810210228,0.4729156196117401,-0.5166597962379456,-0.09717807173728943,-0.8506580591201782,-0.03222942352294922,-0.3457846939563751,0.13993418216705322,0.9441691413456609,0.10096014204398608,-0.2539252524481065,0.1840479276801362
1729876610168472000,2.71047216796875,-1.106279730796814,-0.07921881973743439,0.40523669123649597,-0.5176213979721069,-0.0896182432770729,-0.8509033918380737,-0.021456360816955566,-0.5996671319007874,0.144680917263031,0.9439775746461342,0.09754343186423137,-0.2550168073249338,0.18535912547872846
1729876610178503000,2.7205029296875,-2.2558531761169434,-0.07329728454351425,0.25782620906829834,-0.5185563564300537,-0.07351191341876984,-0.8518775105476379,-0.033308327198028564,-0.6480763554573059,0.24498975276947021,0.9443531393085065,0.08922253093440675,-0.25710033344029615,0.18475908153615134
1729876610188533000,2.730532958984375,-3.1438186168670654,-0.11362025141716003,0.037662144750356674,-0.519421398639679,-0.04936003312468529,-0.8530914187431335,-0.058123767375946045,-0.47870099544525146,0.24724125862121582,0.9452323754461017,0.0761596422724806,-0.2601038121115867,0.18188331598110719
1729876610198564000,2.740564208984375,-3.3447275161743164,-0.1277930736541748,-0.047842372208833694,-0.5204967260360718,-0.021284690126776695,-0.8535983562469482,-0.05651438236236572,-0.1162886694073677,0.05551797151565552,0.9462183804003733,0.06067933433775921,-0.2636642541406942,0.17739817066601585
1729876610208594200,2.75059423828125,-2.7400460243225098,-0.10725913196802139,0.19370074570178986,-0.5214551091194153,0.005418251734226942,-0.8532615303993225,-0.024931609630584717,0.3283676207065582,-0.1509193778038025,0.9468458966559531,0.04605904827544417,-0.2669228447067925,0.1735330927479078
1729876610218625000,2.760625,-1.755925178527832,-0.1836380511522293,0.44285091757774353,-0.5226046442985535,0.026485199108719826,-0.8521636724472046,0.02670919895172119,0.6733590364456177,-0.2877136468887329,0.9468291816641329,0.035002219784450894,-0.2696164111001625,0.17203597860590308
1729876610228655000,2.770655029296875,-0.8396715521812439,-0.29854321479797363,0.4911699891090393,-0.52451491355896,0.03984961286187172,-0.8504681587219238,0.01625990867614746,0.7653260231018066,-0.33668088912963867,0.9462915385058599,0.028525178342708266,-0.2719415936964388,0.1725294789947241
1729876610238686200,2.780686279296875,-0.5582217574119568,-0.28081563115119934,0.4944502115249634,-0.5268272161483765,0.047966379672288895,-0.8486179113388062,-0.02842491865158081,0.6039804816246033,-0.27984583377838135,0.9455453643701923,0.025034160817991764,-0.2739787375819951,0.17393365686165355
1729876610248716000,2.790716064453125,-0.8312705159187317,-0.25735631585121155,0.49091193079948425,-0.5288150906562805,0.05632669851183891,-0.8468658924102783,-0.04995083808898926,0.28376105427742004,-0.1237913966178894,0.9448258362544568,0.021383712944409595,-0.2758800041973706,0.17531982713091843
1729876610258747100,2.8007470703125,-1.2996587753295898,-0.31174206733703613,0.39154964685440063,-0.531004011631012,0.0677206888794899,-0.8446589112281799,-0.03561592102050781,-0.06825486570596695,-0.0033788084983825684,0.9441239690848818,0.015989344801688853,-0.27823531856663936,0.17595273965778244
1729876610268777200,2.810777099609375,-1.6991536617279053,-0.2802402973175049,0.12859445810317993,-0.5333054661750793,0.08186989277601242,-0.8419516086578369,-0.006519913673400879,-0.29738515615463257,-0.03684777021408081,0.9435648191969479,0.008759153196793308,-0.28097591761765345,0.1751031790551958
1729876610278807000,2.82080712890625,-2.0060455799102783,-0.4651680588722229,0.035138264298439026,-0.53641277551651,0.09799636155366898,-0.8382470011711121,0.005132198333740234,-0.3147933781147003,-0.01386481523513794,0.9430193013306586,0.00013364997291131513,-0.28438791607548786,0.17273665057146356
1729876610288838100,2.830838134765625,-2.0491251945495605,-0.598199188709259,0.11276621371507645,-0.5407823920249939,0.1154514029622078,-0.8332018852233887,0.0672563910484314,-0.16650743782520294,0.015117168426513672,0.9421531907449405,-0.009144139240905605,-0.2886441530681147,0.1701421012099923
1729876610298868000,2.840867919921875,-1.7696110010147095,-0.62652587890625,0.17376220226287842,-0.5458040833473206,0.1323593556880951,-0.8273928761482239,0.05558490753173828,0.012537986040115356,0.04846221208572388,0.9409844562215604,-0.01795970736739486,-0.29322520763368276,0.16806150281641843
1729876610308899000,2.850899169921875,-1.4093830585479736,-0.5889984965324402,0.21908174455165863,-0.5505253076553345,0.14649814367294312,-0.8218638300895691,-0.013149619102478027,0.11984388530254364,0.03187060356140137,0.939755125076845,-0.025190905953476804,-0.29737770154120935,0.16670982992696878
1729876610318929000,2.860928955078125,-1.136644721031189,-0.5078125596046448,0.31379225850105286,-0.5546829104423523,0.15835176408290863,-0.8168546557426453,-0.0913589596748352,0.14288713037967682,0.08542460203170776,0.9385235887561743,-0.03107838193975094,-0.3010096477008197,0.1661345092977694
1729876610328960000,2.8709599609375,-0.9765772819519043,-0.3239276707172394,0.4098690152168274,-0.5575286746025085,0.16900724172592163,-0.8127719759941101,-0.12194520235061646,0.09829609096050262,0.09801983833312988,0.9373998949580312,-0.03623762994956207,-0.3038105205395105,0.16633548527823463
1729876610338990000,2.880989990234375,-0.8671874403953552,-0.2165205329656601,0.4070444703102112,-0.5588852167129517,0.17882995307445526,-0.8097327351570129,-0.12457126379013062,0.03323657810688019,0.062021613121032715,0.9364839525156081,-0.04098902287654777,-0.3057016842473443,0.16692551657787494
1729876610349021000,2.89102099609375,-0.8401837348937988,-0.24465037882328033,0.41223734617233276,-0.5599983930587769,0.1879488229751587,-0.8068934082984924,-0.09606850147247314,-0.016226530075073242,0.010644018650054932,0.9356045966412769,-0.045375451461307614,-0.307399358289058,0.16760258579073492
1729876610359051000,2.901051025390625,-0.9615341424942017,-0.18691012263298035,0.35619139671325684,-0.5610040426254272,0.19736731052398682,-0.8039406538009644,-0.019928574562072754,-0.040339261293411255,-0.01571565866470337,0.934716471914457,-0.049972940179645604,-0.30908314585667146,0.16815257483045137
1729876610369081900,2.911081787109375,-1.131227731704712,-0.28946158289909363,0.4403374195098877,-0.5621892213821411,0.20841538906097412,-0.8003164529800415,0.014703810214996338,-0.041453853249549866,0.089607834815979,0.9337232295512187,-0.055543140564145166,-0.31105746283842817,0.16828328395087752
1729876610379112000,2.92111181640625,-0.6099648475646973,-0.17914944887161255,0.531621515750885,-0.5629935264587402,0.2179592102766037,-0.7972025871276855,0.05594402551651001,-0.06437963247299194,0.05544239282608032,0.9327041539927083,-0.060078856514732326,-0.3127126877886408,0.1693049404567117
1729876610389142000,2.93114208984375,-0.6117682456970215,-0.0938134714961052,0.5418648719787598,-0.562955379486084,0.22582989931106567,-0.7950358986854553,0.005490779876708984,-0.08753961324691772,-0.016273915767669678,0.9318191684945195,-0.06361069313653986,-0.3137446680458181,0.170971145242145
1729876610399173000,2.941173095703125,-0.5901591181755066,0.08594350516796112,0.5412262082099915,-0.56173175573349,0.23371867835521698,-0.793620228767395,-0.054067254066467285,-0.02767936885356903,0.08658897876739502,0.9311569076617944,-0.06731007474301709,-0.3141006954965863,0.17250230694699867
1729876610409203000,2.951202880859375,-0.37684646248817444,0.2220858484506607,0.5375233888626099,-0.5591718554496765,0.24065759778022766,-0.7933540940284729,-0.05670344829559326,0.002369016408920288,0.1550942063331604,0.9307657702972749,-0.07058157895966398,-0.31359397272652195,0.17421852564723464
1729876610419234000,2.961234130859375,-0.23638151586055756,0.3137473165988922,0.4726588726043701,-0.5558061599731445,0.2458391785621643,-0.7941300868988037,-0.024439871311187744,0.012156307697296143,0.11993575096130371,0.9306373575346116,-0.07299379092077077,-0.312420965926243,0.1760087926157607
1729876610429264100,2.97126416015625,-0.10746201872825623,0.4140792787075043,0.4764815866947174,-0.5517287850379944,0.24984629452228546,-0.795721173286438,-0.01135110855102539,0.0627451241016388,0.142034649848938,0.9307263953745217,-0.07487099137383996,-0.31069882458785375,0.17778869639778752
1729876610439295000,2.981294921875,0.009529048576951027,0.45050013065338135,0.4938323497772217,-0.5469890236854553,0.2528839111328125,-0.7980305552482605,0.020713388919830322,0.09265127778053284,0.12272226810455322,0.9309474867100904,-0.07621469899558868,-0.308506159035175,0.17986696737601957
1729876610449325000,2.991324951171875,-0.007993752136826515,0.45799824595451355,0.42815959453582764,-0.5421426296234131,0.25537827610969543,-0.8005393743515015,0.040311574935913086,0.08965331315994263,0.09022748470306396,0.9312361141245384,-0.0773266160564097,-0.30618771690236846,0.18184857833496185
1729876610459356200,3.001356201171875,0.05222991108894348,0.4663078486919403,0.41696205735206604,-0.5373523235321045,0.2575621008872986,-0.8030655384063721,0.03333920240402222,0.08147281408309937,0.12484288215637207,0.9315628363677512,-0.0783422124749477,-0.3038580669066391,0.18363956360502262
1729876610469386000,3.011385986328125,0.1990310698747635,0.44483333826065063,0.43064963817596436,-0.5325710773468018,0.2588430345058441,-0.8058339357376099,0.03687405586242676,0.07250139117240906,0.11216938495635986,0.9319091334096111,-0.07882877298224301,-0.30144497077981863,0.18564007573795685
1729876610479417000,3.0214169921875,0.41990458965301514,0.4690076410770416,0.3927350342273712,-0.5278067588806152,0.2585698068141937,-0.8090498447418213,0.02614349126815796,0.09306886792182922,0.06574845314025879,0.9323270207595801,-0.0784490075024297,-0.29886589390586416,0.18785940315504385
1729876610489447200,3.031447265625,0.639067530632019,0.5430723428726196,0.36507198214530945,-0.5227577090263367,0.25622043013572693,-0.8130654692649841,-0.00942307710647583,0.14781692624092102,0.05857938528060913,0.9329257861705242,-0.07699525242371287,-0.29586987858589303,0.19021656608214713
1729876610499477200,3.041477294921875,0.9424188733100891,0.637554407119751,0.3412973880767822,-0.517017126083374,0.25176501274108887,-0.818112313747406,-0.028240501880645752,0.19550049304962158,0.06509101390838623,0.9337485083997362,-0.07447651819806886,-0.29222782411608045,0.19279535434650175
1729876610509508000,3.051508056640625,1.4346702098846436,0.6700143218040466,0.30684036016464233,-0.5108156800270081,0.24367518723011017,-0.8244329690933228,-0.04834270477294922,0.1939314901828766,0.036041855812072754,0.9348179224565603,-0.07003908020454906,-0.2878854583365131,0.1957855305967369
1729876610519538200,3.0615380859375,1.9304330348968506,0.6747565865516663,0.3044637441635132,-0.504501223564148,0.23121795058250427,-0.8318754434585571,-0.039352595806121826,0.16064289212226868,-0.01671159267425537,0.9360407360627471,-0.0632277075351435,-0.28295674908607926,0.19941304485770328
1729876610529569000,3.071569091796875,2.289691925048828,0.6016680598258972,0.2729545533657074,-0.4984097480773926,0.21490177512168884,-0.8398839235305786,0.0034908652305603027,0.1656370311975479,-0.03375804424285889,0.9372836034648023,-0.05433047721313643,-0.2776801214657979,0.20357173440115403
1729876610539598800,3.081598876953125,2.5997955799102783,0.40306735038757324,0.2576406002044678,-0.49356889724731445,0.19558051228523254,-0.8474302291870117,0.04773753881454468,0.2134312242269516,-0.05022907257080078,0.9383145863827693,-0.04375464545922652,-0.2727093827248885,0.2080406300492236
1729876610549630200,3.091630126953125,2.819779872894287,0.1859448254108429,0.3074406385421753,-0.490541011095047,0.1737637221813202,-0.8539178371429443,0.11105489730834961,0.23210467398166656,-0.09778809547424316,0.9389248616824839,-0.031638003878646764,-0.26840289650499993,0.21302360094413206
1729876610559660000,3.101659912109375,2.9652152061462402,0.07441431283950806,0.3103719651699066,-0.4890224039554596,0.1505073755979538,-0.8591883778572083,0.15538892149925232,0.17827361822128296,-0.10393112897872925,0.93910576358683,-0.018592333849958755,-0.2646887674123391,0.2183451976017508
1729876610569691000,3.11169091796875,3.149460792541504,0.1061917319893837,0.24580815434455872,-0.48782724142074585,0.1252201348543167,-0.8639123439788818,0.12854373455047607,0.07343392074108124,-0.07309937477111816,0.9390956157829321,-0.004534259411807084,-0.2608127136239939,0.2237312995497126
1729876610579721000,3.121720947265625,2.9175188541412354,0.10427772253751755,0.19533087313175201,-0.486665815114975,0.09985662996768951,-0.867862343788147,0.05459791421890259,0.020229913294315338,-0.017742455005645752,0.9389469341568466,0.009394179341654856,-0.2568668389783429,0.2287136464855396
1729876610589752000,3.131751953125,2.8253211975097656,0.15754248201847076,0.18537570536136627,-0.485384076833725,0.07583383470773697,-0.8710060715675354,0.009386122226715088,0.03051980584859848,0.0030251145362854004,0.9386628789186966,0.02247097825051264,-0.25296645644475324,0.23327042129179865
1729876610599782000,3.141781982421875,2.651467800140381,0.16650588810443878,0.1573707014322281,-0.4838466942310333,0.052666835486888885,-0.8735665678977966,-0.00242045521736145,-0.008843708783388138,-0.0796194076538086,0.9382642715107519,0.03497930866697309,-0.2489842516468147,0.23757829440998285
1729876610609812000,3.15181201171875,2.2220358848571777,0.11726728826761246,0.13145655393600464,-0.4825543761253357,0.03184879571199417,-0.8752867579460144,-0.018437504768371582,-0.05723953619599342,-0.05502629280090332,0.9377708786625423,0.04616729869551174,-0.24540823059605948,0.24130709273330614
1729876610619843000,3.161843017578125,1.7748867273330688,0.13015085458755493,0.1570149064064026,-0.4814876616001129,0.015068480744957924,-0.8763233423233032,-0.03227582573890686,-0.09598596394062042,0.028758645057678223,0.9372273136125108,0.05520786503083371,-0.24246737093077722,0.24447231554356638
1729876610629873200,3.171873046875,1.493494987487793,0.19219878315925598,0.08935490250587463,-0.480102002620697,0.0014854328474029899,-0.8772114515304565,-0.050186723470687866,-0.12796564400196075,0.024474024772644043,0.9367751716290105,0.06245506902582813,-0.239778340441988,0.24709935993552226
1729876610639904000,3.181904052734375,1.3034120798110962,0.21767617762088776,-0.01802268996834755,-0.4782632887363434,-0.010665479116141796,-0.8781517744064331,-0.09873262047767639,-0.10453850030899048,-0.015769124031066895,0.9365250551748765,0.06872285368069182,-0.2370681270395495,0.24899144164945203
1729876610649934000,3.19193408203125,1.3957873582839966,0.3103158473968506,-0.04351846128702164,-0.47607558965682983,-0.022305993363261223,-0.8791214227676392,-0.10272082686424255,-0.016634546220302582,-0.037184059619903564,0.9363960480546385,0.07456590707819521,-0.2342631311835137,0.25044582755263894
1729876610659965000,3.20196484375,1.5115333795547485,0.3373679518699646,-0.060003429651260376,-0.473060667514801,-0.035782940685749054,-0.880302906036377,-0.06581878662109375,0.0630197674036026,-0.08826398849487305,0.9362701295399708,0.08124044715935737,-0.23075646624395754,0.252090593337473
1729876610669995000,3.2119951171875,1.1863365173339844,0.277955561876297,-0.013379467651247978,-0.47036102414131165,-0.04771101102232933,-0.881183385848999,-0.04442480206489563,0.18348360061645508,-0.0346490740776062,0.9361146529127127,0.08713505805262611,-0.2276308010679342,0.25353729854763096
1729876610680026000,3.222026123046875,1.4759498834609985,0.41360580921173096,0.0327688530087471,-0.4673860967159271,-0.05929780378937721,-0.8820623755455017,-0.006033152341842651,0.21078693866729736,0.021497249603271484,0.9358790021046925,0.09287911685118334,-0.22437085519005495,0.2552680589169491
1729876610690056200,3.23205615234375,1.3541066646575928,0.3764948546886444,-0.04384177178144455,-0.4638376235961914,-0.07199487835168839,-0.8829900622367859,-0.03114229440689087,0.12254712730646133,-0.06163579225540161,0.9356311430072629,0.09909951023941822,-0.22064511151366253,0.2570786613951489
1729876610700087000,3.242087158203125,1.2469682693481445,0.2739226818084717,-0.07681889832019806,-0.4608796238899231,-0.08382545411586761,-0.8834949135780334,-0.07372736930847168,0.12357448041439056,0.05681955814361572,0.9354206247278849,0.10484352940186055,-0.21739451377004054,0.25833252852742805
1729876610710117000,3.2521171875,1.0358543395996094,0.2612326443195343,0.014651901088654995,-0.45851871371269226,-0.09413417428731918,-0.8836851119995117,-0.048408836126327515,0.05700942128896713,0.02109050750732422,0.9351271429451774,0.10991642530357598,-0.2146528137966052,0.2595761278937907
1729876610720147200,3.262147216796875,0.7468385100364685,0.23032614588737488,-0.003980639856308699,-0.4564001262187958,-0.10197538882493973,-0.8839117288589478,-0.0270746648311615,-0.04832380264997482,-0.004302322864532471,0.934864160850213,0.11377097035099776,-0.21236831429248815,0.26073903395000014
1729876610730178000,3.272177978515625,0.3866387903690338,0.26731452345848083,-0.07344147562980652,-0.4541721045970917,-0.10718045383691788,-0.8844433426856995,-0.0819455087184906,-0.12060286104679108,0.05618107318878174,0.9348463682306346,0.1161498634647797,-0.21044604317455898,0.26131188086006807
1729876610740208000,3.2822080078125,0.10287684202194214,0.26439782977104187,-0.06505198031663895,-0.4516427516937256,-0.10968118906021118,-0.8854314684867859,-0.1052115261554718,-0.12026887387037277,0.08954834938049316,0.9350970246121331,0.11700455617316878,-0.20879226683247487,0.2613603403660169
1729876610750239200,3.2922392578125,-0.24874749779701233,0.17397631704807281,0.020275432616472244,-0.4497026801109314,-0.1090819388628006,-0.8864923119544983,-0.05568373203277588,-0.07719747722148895,0.07728826999664307,0.9353939414446828,0.11637875542449708,-0.20786973750498292,0.26131276007772336
1729876610760269000,3.30226904296875,-0.335105299949646,0.10592696815729141,0.04984237626194954,-0.44860243797302246,-0.10601235181093216,-0.8874216675758362,0.011880576610565186,-0.043417081236839294,0.04817306995391846,0.9356591441550214,0.11464843084745895,-0.20771349477902354,0.2612525255181117
1729876610770300200,3.312300048828125,-0.2652791440486908,0.17968401312828064,-0.01419812347739935,-0.44732940196990967,-0.10344554483890533,-0.88836669921875,-0.006863772869110107,-0.06348572671413422,0.046173155307769775,0.9359437110439812,0.11313142482318211,-0.20740763132970239,0.2611373296421821
1729876610780330000,3.322330078125,-0.30863380432128906,0.24908918142318726,-0.033697254955768585,-0.44536256790161133,-0.10092558711767197,-0.8896438479423523,-0.06266358494758606,-0.010387390851974487,0.07825779914855957,0.936378875047582,0.111478702104754,-0.20676210767694458,0.26079975371860653
1729876610790361000,3.332361083984375,-0.09203186631202698,0.24953530728816986,0.07078361511230469,-0.44308120012283325,-0.09900004416704178,-0.8909983038902283,-0.048480719327926636,0.09149261564016342,0.08818775415420532,0.9367437954589616,0.11014698349458849,-0.20583604853117884,0.2607875545764237
1729876610800391000,3.342390869140625,-0.012813739478588104,0.09644509851932526,0.1868351250886917,-0.44159290194511414,-0.09811475872993469,-0.8918347358703613,0.03055158257484436,0.08126894384622574,0.018940508365631104,0.9367741207232702,0.10961786978966281,-0.20510132674438292,0.26147955419032426
1729876610810422000,3.352422119140625,-0.2647387683391571,-0.013098066672682762,0.2752789556980133,-0.4414708614349365,-0.09606646746397018,-0.8921180963516235,0.07448172569274902,-0.05395805090665817,0.03587120771408081,0.9365760441639055,0.10878877153014262,-0.20519736091134935,0.2624581713262313
1729876610820452000,3.3624521484375,-0.9196670651435852,0.0037208599969744682,0.3433224558830261,-0.44188743829727173,-0.08956291526556015,-0.8925883769989014,0.04082536697387695,-0.3084016740322113,0.08167529106140137,0.9364536376188694,0.10580154154873865,-0.20618403859232004,0.26334134167844225
1729876610830483000,3.37248291015625,-1.8336589336395264,0.08644828200340271,0.3371833562850952,-0.44179636240005493,-0.0757022574543953,-0.893915593624115,-0.038687705993652344,-0.5331082940101624,0.16561365127563477,0.9367526425024509,0.09891907660720606,-0.20798367826052638,0.2635378847433326
1729876610840513000,3.382512939453125,-2.4633100032806396,0.2066979855298996,0.33162933588027954,-0.4406905770301819,-0.05470841005444527,-0.8959904313087463,-0.10302591323852539,-0.6130926012992859,0.20502668619155884,0.9374882176390394,0.0881552778681673,-0.2103174830931953,0.262889843382358
1729876610850543000,3.392543212890625,-3.002565860748291,0.19851207733154297,0.436127245426178,-0.43893715739250183,-0.028605826199054718,-0.8980622887611389,-0.08018216490745544,-0.5578811168670654,0.1301027536392212,0.9383345805144502,0.0746932467539641,-0.21304876633737052,0.261838376375217
1729876610860574000,3.402573974609375,-3.4245214462280273,0.21434563398361206,0.6571613550186157,-0.4372016191482544,0.0031348683405667543,-0.8993580341339111,0.02048400044441223,-0.36498191952705383,0.1788685917854309,0.9389134263192047,0.05852813424485459,-0.21655352476621076,0.2609991469923295
1729876610870603500,3.412603515625,-3.252342462539673,0.1686549037694931,0.5984410643577576,-0.435380756855011,0.03643174096941948,-0.8995089530944824,0.1107042133808136,-0.15500791370868683,0.17796659469604492,0.9391121877077758,0.04168018137891702,-0.22024599314335386,0.26042806380239303
1729876610880634600,3.422634521484375,-2.6795547008514404,0.2527939975261688,0.43368247151374817,-0.433234304189682,0.06543921679258347,-0.8989025354385376,0.06178954243659973,0.05084790289402008,0.1334758996963501,0.9391978808407137,0.026846693982513624,-0.22322184811242587,0.25953536983168657
1729876610890664700,3.432664794921875,-2.084447145462036,0.2675410211086273,0.5113056302070618,-0.43056145310401917,0.08897317945957184,-0.8981651067733765,0.02345690131187439,0.3236854076385498,0.12578052282333374,0.9391380411740903,0.01473788746381411,-0.22516712184571785,0.2590409244030968
1729876610900695600,3.442695556640625,-1.1804699897766113,0.11469552665948868,0.4659929871559143,-0.4282139837741852,0.10606256127357483,-0.8974316120147705,0.10045516490936279,0.5158092379570007,0.08310061693191528,0.9387878327986559,0.00611092113855422,-0.22637765302585977,0.2596022126991358
1729876610910725600,3.4527255859375,-0.5833402872085571,0.051225632429122925,0.3156716525554657,-0.4271691143512726,0.11510233581066132,-0.8968154788017273,0.09248277544975281,0.39560920000076294,0.018458545207977295,0.938394379948443,0.0017061042316715738,-0.2271329014422254,0.26042975803138535
1729876610920756500,3.462756591796875,-0.6583330631256104,0.164956733584404,0.32847562432289124,-0.4259125292301178,0.1218402311205864,-0.8965229988098145,0.03670656681060791,0.16961777210235596,0.018837451934814453,0.9380932232803503,-0.0016003635294480506,-0.2274553665992334,0.26123290596395543
1729876610930786600,3.47278662109375,-0.6320499181747437,0.12367618829011917,0.32021716237068176,-0.4242401123046875,0.12920257449150085,-0.8962851166725159,-0.004531919956207275,-0.03891642391681671,0.12324434518814087,0.9377991247514239,-0.005268114269786647,-0.22766134590042214,0.2620596527359349
1729876610940817700,3.482817626953125,-0.7457271814346313,0.23593854904174805,0.09575340896844864,-0.4222823679447174,0.1361306607723236,-0.8961841464042664,-0.0005997419357299805,-0.22838544845581055,0.03130078315734863,0.9377158753352263,-0.008914559396337377,-0.22765864677630343,0.2622610939517902
1729876610950847700,3.49284765625,-0.8025634288787842,0.03303257003426552,0.09576433151960373,-0.420873761177063,0.1435839831829071,-0.8956834673881531,0.0585232675075531,-0.18971140682697296,-0.012519657611846924,0.9377383930426786,-0.01292427099751731,-0.22801583812554047,0.26170289852423523
1729876610960877600,3.502877685546875,-0.566017210483551,-0.031851090490818024,0.16917197406291962,-0.4207720458507538,0.15041500329971313,-0.8946095108985901,0.1297411322593689,-0.02559824287891388,0.05478107929229736,0.9374858324354883,-0.016333529463259232,-0.22897261376480965,0.26158170583928164
1729876610970908700,3.51290869140625,-0.38870567083358765,-0.016519058495759964,0.0721554085612297,-0.4207893908023834,0.15513105690479279,-0.8937956094741821,0.08785784244537354,0.056950733065605164,-0.012606918811798096,0.9372528446561526,-0.018640977528374427,-0.22968391141064656,0.2616387809692126
1729876610980938800,3.522938720703125,-0.29508012533187866,-0.012507272884249687,0.03942249342799187,-0.4207870662212372,0.15833650529384613,-0.8932344317436218,0.0032149851322174072,0.09547805786132812,-0.0061032772064208984,0.9371460739061437,-0.020258919285258196,-0.23015722898408242,0.26148511459960727
1729876610990969600,3.532969482421875,-0.2278805673122406,-0.10747016221284866,0.02986014634370804,-0.42127281427383423,0.16087806224822998,-0.8925511240959167,0.018303394317626953,0.08173656463623047,0.022357642650604248,0.936997809203425,-0.021472158552494097,-0.23078862863563032,0.26136323608508216
1729876611000999700,3.542999755859375,-0.14481498301029205,-0.19230569899082184,-0.025593522936105728,-0.42260393500328064,0.16248546540737152,-0.8916301727294922,0.06393077969551086,0.001073390245437622,-0.017488479614257812,0.9368072776094284,-0.022122787112846466,-0.23172286221200686,0.26116517491084895
1729876611011030800,3.55303076171875,-0.09664911776781082,-0.29739493131637573,-0.012713411822915077,-0.4247923195362091,0.16352461278438568,-0.8903994560241699,0.06338784098625183,-0.050258755683898926,-0.04671907424926758,0.9365336443946901,-0.022370322374239374,-0.23302325056767906,0.26096858364748826
1729876611021060600,3.563060546875,0.005389099009335041,-0.3778170645236969,-0.09114936739206314,-0.42798107862472534,0.1637149155139923,-0.8888360857963562,0.052187561988830566,-0.05798688530921936,-0.04272818565368652,0.9361818922336834,-0.02206557272234845,-0.23472335562789093,0.2607327458719372
1729876611031091700,3.573091796875,0.07797162234783173,-0.3999876081943512,-0.1177745833992958,-0.43160390853881836,0.1628076136112213,-0.8872495293617249,0.029534757137298584,-0.04261423647403717,-0.10875260829925537,0.9358840143018858,-0.02121123173177033,-0.23648531915775298,0.26028064849279675
1729876611041121800,3.583121826171875,0.1829393059015274,-0.4185485243797302,-0.06917215883731842,-0.4353989064693451,0.1612902730703354,-0.885671079158783,0.03255155682563782,-0.01881907880306244,-0.10018402338027954,0.9355268428885988,-0.019975153340955384,-0.23825501109619912,0.2600484459795215
1729876611051152600,3.593152587890625,0.26571956276893616,-0.34786364436149597,-0.07296689599752426,-0.43897563219070435,0.15888278186321259,-0.8843396902084351,0.03564003109931946,-0.03333356976509094,-0.07331717014312744,0.9351698664030571,-0.01826940537375975,-0.2397840536382501,0.2600522886976021
1729876611061182700,3.6031826171875,0.16475538909435272,-0.3016500771045685,-0.08997943997383118,-0.44189369678497314,0.15658649802207947,-0.8832953572273254,-0.0018624663352966309,-0.07306000590324402,0.02196723222732544,0.9349115018214513,-0.016732412383455367,-0.24098205726358374,0.25997756054929627
1729876611071212500,3.613212646484375,0.21937961876392365,-0.27325162291526794,-0.13217562437057495,-0.44456976652145386,0.15455983579158783,-0.882308840751648,0.001713871955871582,-0.10773071646690369,0.15100091695785522,0.9347336254866495,-0.015423525966552392,-0.24209023245946495,0.2596677639454147
1729876611081243600,3.62324365234375,0.3455263674259186,-0.43309882283210754,-0.11371912062168121,-0.4480440318584442,0.15147727727890015,-0.881085216999054,0.04989638924598694,-0.1051516979932785,0.10117805004119873,0.934464751629215,-0.013450586864582014,-0.243467577894468,0.2594576938729898
1729876611091273500,3.6332734375,0.3063761591911316,-0.49096181988716125,-0.040806032717227936,-0.4521753489971161,0.14799322187900543,-0.8795654773712158,0.1093866229057312,-0.02906632423400879,-0.04595637321472168,0.934048463073592,-0.01111792019226765,-0.24514005834987906,0.25949220580093885
1729876611101304600,3.6433046875,0.2856234908103943,-0.45893919467926025,0.05046528950333595,-0.4564739465713501,0.14558765292167664,-0.877744734287262,0.05573230981826782,0.021206066012382507,-0.05133241415023804,0.9334364088658691,-0.009181717264454044,-0.24706949628062727,0.2599401260750784
1729876611111334700,3.653334716796875,0.2841755449771881,-0.37333357334136963,-0.004156941082328558,-0.4600243866443634,0.14309102296829224,-0.8763005137443542,-0.010953456163406372,-0.06765168905258179,-0.10897475481033325,0.9329057064098861,-0.007287926196646345,-0.24858929423744577,0.26045596631745066
1729876611121365500,3.663365478515625,0.14444531500339508,-0.3617349863052368,-0.1221645399928093,-0.4633677899837494,0.14100365340709686,-0.8748761415481567,-0.056117743253707886,-0.1288272589445114,-0.10225093364715576,0.9325300820275366,-0.0057676481644515845,-0.25005733351544146,0.2604335610859117
1729876611131395600,3.6733955078125,0.134456068277359,-0.31987088918685913,-0.11207621544599533,-0.4665970802307129,0.1392819583415985,-0.8734344244003296,-0.017961084842681885,-0.06808456778526306,-0.11948549747467041,0.9322588165446501,-0.004548927820688166,-0.25151958384690615,0.2600203269121846
1729876611141426700,3.6834267578125,0.2040412724018097,-0.21488907933235168,-0.13361158967018127,-0.4690670371055603,0.1372300386428833,-0.8724356889724731,0.015331625938415527,0.0014264583587646484,-0.09980857372283936,0.9320794992516859,-0.003253029118739809,-0.2525303208181361,0.25970321433178584
1729876611151456500,3.69345654296875,0.3151281177997589,-0.215276300907135,-0.10479540377855301,-0.4710858464241028,0.1344425529241562,-0.8717817068099976,-0.002135038375854492,0.0016657263040542603,0.02232491970062256,0.93198258216862,-0.0016499814437574045,-0.2531924664800208,0.2594213106643412
1729876611161487600,3.703487548828125,0.40882959961891174,-0.12457836419343948,-0.12489960342645645,-0.47279873490333557,0.13067983090877533,-0.871426522731781,0.003682464361190796,-0.05043397843837738,0.034619271755218506,0.9318808661801525,0.0004739831705602814,-0.25354785175318895,0.25944455061796984
1729876611171517700,3.713517578125,0.27111566066741943,0.02600741758942604,-0.222059965133667,-0.47344163060188293,0.1268499493598938,-0.8716433048248291,-0.029793262481689453,-0.11961741745471954,0.024551689624786377,0.932052623533447,0.0023548375821397195,-0.2533234978276353,0.259035614039368
1729876611181547500,3.723547607421875,0.24371838569641113,0.010467605665326118,-0.21756161749362946,-0.4734843969345093,0.12355802953243256,-0.8720928430557251,-0.06750074028968811,-0.1350785493850708,0.13207215070724487,0.9323709282840787,0.0037978998198201974,-0.25286193763650705,0.25832304372813575
1729876611191578600,3.73357861328125,0.2972466051578522,-0.0006015566177666187,-0.23789912462234497,-0.4737221896648407,0.12002713978290558,-0.8724567294120789,0.009824424982070923,-0.08331461250782013,0.023778200149536133,0.9326739362656913,0.005380889181416098,-0.25247310059440914,0.2575806551535702
1729876611201608700,3.743608642578125,0.23863919079303741,-0.0028207688592374325,-0.19479025900363922,-0.47389841079711914,0.1165618747472763,-0.8728308081626892,0.033804357051849365,0.01780688762664795,-0.024950504302978516,0.9329597256118237,0.006941744657823687,-0.2520642726412515,0.25690790705519334
1729876611211639600,3.7536396484375,0.23772306740283966,-0.06955612450838089,-0.05937705561518669,-0.4743795692920685,0.11397971212863922,-0.8729104399681091,0.018904656171798706,0.08342311531305313,0.03645414113998413,0.9330743433196323,0.008200785873695804,-0.2519474730217099,0.2565685491433571
1729876611221669600,3.763669677734375,0.29614031314849854,-0.017670288681983948,0.0009376863017678261,-0.4749642014503479,0.11148395389318466,-0.8729148507118225,-0.014995545148849487,0.03982209414243698,-0.06569904088973999,0.9329908142525696,0.009607275002761716,-0.2518933962570682,0.2568764288843339
1729876611231700700,3.77370068359375,-0.020999232307076454,0.13391731679439545,-0.15069204568862915,-0.4744596779346466,0.10977421700954437,-0.8734057545661926,-0.11063861846923828,-0.06218218803405762,-0.1995922327041626,0.9331664004292854,0.010336199404989465,-0.25137677881100345,0.25671623729385734
1729876611241730800,3.783730712890625,-0.2418205589056015,0.11716817319393158,-0.1596602350473404,-0.4734461307525635,0.11036849021911621,-0.8738807439804077,-0.1728246510028839,-0.10087765008211136,-0.06702196598052979,0.9335477586959826,0.009642441908529694,-0.25093159224743933,0.25579053424056153
1729876611251761700,3.79376171875,-0.2308155745267868,0.04887784644961357,-0.19646406173706055,-0.47292256355285645,0.11164342612028122,-0.8740022778511047,-0.07587507367134094,-0.09749864786863327,-0.09407627582550049,0.9338839805699549,0.008634882454992122,-0.2508471625258695,0.25467975093561057
1729876611261791700,3.803791748046875,-0.2907867729663849,0.016207782551646233,-0.1821165531873703,-0.47287043929100037,0.11292479932308197,-0.8738658428192139,-0.03274485468864441,-0.05149303376674652,-0.11520886421203613,0.9341848292729072,0.007658744130524627,-0.25101477074482353,0.25343959489421847
1729876611271822600,3.813822509765625,-0.3717421293258667,0.015871159732341766,-0.11336865276098251,-0.472965270280838,0.11518315225839615,-0.8735197186470032,-0.03904345631599426,0.023793786764144897,-0.039566218852996826,0.9343902896370622,0.006256201173806785,-0.2513981129534081,0.2523380491069664
1729876611281852700,3.823852783203125,-0.42414090037345886,0.1009431779384613,-0.10124541074037552,-0.4725840091705322,0.1180962398648262,-0.8733370900154114,-0.05523282289505005,0.03687188774347305,-0.025359809398651123,0.9346073730710762,0.0044898820136507304,-0.25161738343472295,0.2513514667451029
1729876611291882800,3.8338828125,-0.6046196222305298,0.19794413447380066,-0.09893777966499329,-0.47136643528938293,0.12212134897708893,-0.8734415173530579,-0.07555440068244934,-0.017964966595172882,-0.03808802366256714,0.9349299809850088,0.002020899486924021,-0.2515455613019006,0.250253163996902
1729876611301913900,3.843913818359375,-0.76548171043396,0.17601139843463898,-0.16466431319713593,-0.4698107838630676,0.12752120196819305,-0.8735079765319824,-0.05316901206970215,-0.0992467999458313,-0.06136751174926758,0.9353386356456467,-0.0012768364733252932,-0.2514843714530857,0.24878814468852412
1729876611311943400,3.853943359375,-1.1624571084976196,0.10708240419626236,-0.1773708015680313,-0.4687805771827698,0.1349833905696869,-0.8729400038719177,-0.0319061279296875,-0.17552611231803894,-0.05316162109375,0.9357263169998751,-0.005678291520562471,-0.251987582698968,0.24675171799050336
1729876611321974800,3.863974853515625,-1.5634002685546875,0.10968910157680511,-0.2006438970565796,-0.4681459963321686,0.14618344604969025,-0.8714756369590759,0.009863466024398804,-0.2061200886964798,-0.005706369876861572,0.9360160440536824,-0.012038446782860352,-0.2532138690261932,0.24415543123110928
1729876611332004600,3.874004638671875,-1.6946889162063599,0.06903648376464844,-0.24990572035312653,-0.46764352917671204,0.15947769582271576,-0.8694115281105042,0.014701604843139648,-0.179939866065979,0.02509695291519165,0.9362859667686064,-0.019589576353508237,-0.2547753572371544,0.24098642224858663
1729876611342035500,3.884035400390625,-1.6387436389923096,-0.05341140180826187,-0.21511338651180267,-0.4680165946483612,0.1728927344083786,-0.8666421175003052,0.014983117580413818,-0.11574868857860565,0.020588040351867676,0.9363838202122569,-0.027129634555595084,-0.25679353409495015,0.2377108659242652
1729876611352065500,3.8940654296875,-1.620347499847412,-0.06278833746910095,-0.20251449942588806,-0.46883901953697205,0.185967355966568,-0.8634849190711975,0.02052047848701477,-0.06212712824344635,-0.04650348424911499,0.9363054499829628,-0.03439526665590876,-0.2589874788164877,0.23468006824591187
1729876611362096600,3.9040966796875,-1.7660974264144897,-0.11292793601751328,-0.2338026463985443,-0.4699704647064209,0.19948641955852509,-0.8598447442054749,-0.016723930835723877,-0.04889756441116333,-0.0055117011070251465,0.9361355462537244,-0.041921791573634834,-0.2613813242268366,0.23145774549487066
1729876611372126500,3.91412646484375,-1.7517961263656616,-0.2635917067527771,-0.18518610298633575,-0.4720050096511841,0.21385245025157928,-0.8552650809288025,0.005543768405914307,-0.06456059217453003,0.08063745498657227,0.9357286506514341,-0.04981935919562344,-0.26435861334606087,0.2281326156668083
1729876611382157600,3.924157470703125,-1.545306921005249,-0.2930915355682373,-0.09559151530265808,-0.4748241603374481,0.22723659873008728,-0.8502385020256042,0.06576651334762573,-0.08508583903312683,0.03844040632247925,0.9350511256695532,-0.05699772089826988,-0.2676415570024561,0.22538545121273446
1729876611392187600,3.934187744140625,-1.5372987985610962,-0.21477040648460388,-0.015700412914156914,-0.47706055641174316,0.2400801032781601,-0.8454434871673584,0.032404184341430664,-0.03034818172454834,0.040542423725128174,0.934312389106156,-0.06387006529824883,-0.270552873141377,0.2231188885874742
1729876611402217700,3.9442177734375,-1.3209134340286255,-0.08567847311496735,-0.010696066543459892,-0.4784035384654999,0.2523685395717621,-0.8410946130752563,-0.0418449342250824,0.08631539344787598,0.06674164533615112,0.9336095421172294,-0.07050176679704324,-0.27291423999721315,0.22117993634795843
1729876611412248600,3.95424853515625,-0.892968475818634,0.09272988140583038,-0.03253345564007759,-0.4784162938594818,0.2613862156867981,-0.8383287787437439,-0.11158010363578796,0.13366371393203735,-0.031712114810943604,0.9332534015882796,-0.0755593095610847,-0.2740919614225069,0.21955083507987666
1729876611422278700,3.964278564453125,-0.6307355165481567,0.0852125734090805,0.025090157985687256,-0.4776029586791992,0.2677856385707855,-0.8367713689804077,-0.09824854135513306,0.15186145901679993,-0.018529534339904785,0.9330940158749186,-0.07923452037077056,-0.27447442263665156,0.21845225412747588
1729876611432309500,3.9743095703125,-0.4166278541088104,0.07837091386318207,0.0591282844543457,-0.47679173946380615,0.27238863706588745,-0.8357476592063904,0.017105430364608765,0.1257588267326355,0.010460734367370605,0.9329519895699925,-0.08184074705791586,-0.2746420838555835,0.21788660119125583
1729876611442339600,3.984339599609375,-0.11815780401229858,0.0064663658849895,-0.027625247836112976,-0.47632694244384766,0.27453890442848206,-0.8353089690208435,0.10378357768058777,0.032223641872406006,-0.032229483127593994,0.9328807426256633,-0.08304947558792102,-0.27467855871422153,0.21768790218174355
1729876611452370700,3.99437060546875,-0.20618507266044617,-0.11154793947935104,-0.1445995271205902,-0.4770001471042633,0.27542638778686523,-0.8346323370933533,0.13793456554412842,-0.027776330709457397,0.008674085140228271,0.932855302775378,-0.08362167318286028,-0.2751204216428373,0.21701866605814896
1729876611462400800,4.00440087890625,-0.11285512149333954,-0.15304239094257355,-0.0784415602684021,-0.47852951288223267,0.2763945460319519,-0.8334360122680664,0.1346421241760254,0.023318469524383545,0.1676950454711914,0.932699829085946,-0.084149946720594,-0.27604490083028815,0.21630767930946834
1729876611472431600,4.014431640625,0.4645806550979614,0.060018062591552734,-0.15369422733783722,-0.47931814193725586,0.2745981812477112,-0.8335766196250916,0.09089037775993347,0.12077218294143677,0.09824025630950928,0.9327969629827524,-0.0832183180415734,-0.2761999546189073,0.21605106582605987
1729876611482461700,4.024461669921875,1.2063487768173218,0.3469235897064209,-0.2762414515018463,-0.4781995117664337,0.2666573226451874,-0.836790919303894,-0.05392026901245117,0.25887051224708557,0.03559768199920654,0.9336502667485297,-0.07928669451517224,-0.274441526890418,0.21608473164854552
1729876611492492800,4.034492919921875,2.0991392135620117,0.5976489782333374,-0.310446560382843,-0.4749033749103546,0.251238614320755,-0.8434132933616638,-0.13332730531692505,0.40867337584495544,0.009535729885101318,0.9352674877538164,-0.07162745007739575,-0.2704863398651071,0.21675208441647034
1729876611502522600,4.044522705078125,2.732212543487549,0.6010338664054871,-0.24419882893562317,-0.47038134932518005,0.22918835282325745,-0.8521819710731506,-0.10489028692245483,0.4445633292198181,-0.020498692989349365,0.937201089833043,-0.060476785069408366,-0.26505013076698114,0.21850685363087302
1729876611512552700,4.054552734375,3.000387668609619,0.4612278640270233,-0.1722940057516098,-0.466194748878479,0.20339827239513397,-0.8609828948974609,0.003746628761291504,0.2922070622444153,-0.014856278896331787,0.938918392911212,-0.04721065250402776,-0.2593833018352638,0.2211868837639471
1729876611522583800,4.064583740234375,2.7922799587249756,0.26631882786750793,-0.20055228471755981,-0.4633801579475403,0.17711712419986725,-0.8682789206504822,0.10717898607254028,0.05097112059593201,0.011543750762939453,0.9401841905658767,-0.03356456250179797,-0.2544286810693667,0.22403800673355667
