time,seconds_elapsed,rotationRateX,rotationRateY,rotationRateZ,gravityX,gravityY,gravityZ,accelerationX,accelerationY,accelerationZ,quaternionW,quaternionX,quaternionY,quaternionZ
1728065989417577200,0.0775771484375,0.013852212578058243,-0.09683873504400253,-0.017705755308270454,-0.021789759397506714,-0.29573696851730347,-0.9550208449363708,0.01927206479012966,0.015250027179718018,0.00584787130355835,0.988691216097632,0.14955983079319904,-0.011019496634240216,3.9659859374402106e-17
1728065989427608600,0.087608642578125,0.008572494611144066,-0.09405440092086792,-0.015297725796699524,-0.022650096565485,-0.29599496722221375,-0.9549208879470825,0.012945512309670448,0.0016072392463684082,0.00837242603302002,0.9886659868596394,0.14969231888007614,-0.01147828948570763,-0.00015462659484583832
1728065989437638400,0.097638427734375,0.00006848876364529133,-0.06586990505456924,-0.007778823375701904,-0.023793969303369522,-0.2964828908443451,-0.9547417163848877,0.0044610947370529175,-0.005396902561187744,0.005110979080200195,0.9886206562049092,0.1499446935658673,-0.012071859258515599,-0.00025012263880681677
1728065989447669200,0.107669189453125,-0.00394895626232028,-0.043146856129169464,-0.0071332729421556,-0.02531273290514946,-0.29695433378219604,-0.9545561075210571,-0.0035111121833324432,-0.004299849271774292,0.001476883888244629,0.9885737698145822,0.15019003069831166,-0.012840967406012779,-0.0002521959362263408
1728065989457699300,0.11769921875,-0.007478709798306227,-0.03583967313170433,-0.013952030800282955,-0.026035021990537643,-0.29694756865501404,-0.9545388221740723,-0.01020459271967411,-0.0019415020942687988,0.0007576346397399902,0.9885693404862035,0.15018642631104884,-0.013214960254057476,-0.00030890881467556214
1728065989467730200,0.127730224609375,-0.020620210096240044,-0.04281598702073097,0.011789020150899887,-0.025935349985957146,-0.29621586203575134,-0.9547688364982605,-0.00851898267865181,-0.0032377541065216064,-0.002552330493927002,0.9886274370647357,0.14980671818674945,-0.01317315922636983,-0.00037162079118368115
1728065989477761300,0.13776123046875,-0.026339614763855934,-0.051365263760089874,0.03621526435017586,-0.02583569847047329,-0.2950308322906494,-0.9551383852958679,0.0021082907915115356,-0.004575371742248535,-0.00170975923538208,0.9887208955552306,0.14919407111956032,-0.01311266550149376,-0.0003144698126648594
1728065989487791400,0.147791259765625,-0.02156636491417885,-0.05745644494891167,0.019838957116007805,-0.025560583919286728,-0.2939164638519287,-0.9554892778396606,0.009996626526117325,-0.002729564905166626,0.0043174028396606445,0.9888096948369932,0.14861777006830926,-0.01296599544822014,-0.00027325086733339445
1728065989497822200,0.157822265625,-0.0018059771973639727,-0.05475573241710663,0.009886989369988441,-0.025236492976546288,-0.29338377714157104,-0.9556615948677063,0.004438772797584534,-0.007412612438201904,0.002231419086456299,0.9888531979165313,0.1483414234288645,-0.012807248527443343,-0.0003117252654150805
1728065989507852300,0.167852294921875,0.024457251653075218,-0.05897897854447365,0.011174894869327545,-0.025199122726917267,-0.29363423585891724,-0.9555856585502625,-0.0062034595757722855,-0.008581221103668213,-0.0015066266059875488,0.9888340064651644,0.14847040857540458,-0.012795004369479567,-0.0003541053991481696
1728065989517883400,0.17788330078125,0.04458196088671684,-0.055702488869428635,0.008120248094201088,-0.02557316981256008,-0.2943374216556549,-0.9553593397140503,-0.0016942769289016724,0.0014450550079345703,0.002341151237487793,0.988776799103157,0.14883426810093997,-0.012987792565387313,-0.00037251679037969456
1728065989527913200,0.187913330078125,0.042462483048439026,-0.04846140742301941,-0.0037321499548852444,-0.02619023248553276,-0.29502061009407043,-0.9551318883895874,0.0036377497017383575,0.006476998329162598,0.0015949010848999023,0.9887193186836415,0.1491881060671755,-0.013302865858685451,-0.00038665696700039234
1728065989537944300,0.1979443359375,0.033369652926921844,-0.048138901591300964,0.0016535609029233456,-0.02701626904308796,-0.29552367329597473,-0.9549533128738403,-0.0007547196000814438,0.0045386552810668945,-0.004305720329284668,0.9886740339180742,0.14944893905389792,-0.013724007845050018,-0.00040438931715066506
1728065989547974400,0.207974365234375,0.00424985121935606,-0.04475487023591995,0.000053266994655132294,-0.027722284197807312,-0.29582589864730835,-0.9548395276069641,-0.006213253363966942,-0.0038566291332244873,-0.002329111099243164,0.9886452583973983,0.1496058687285946,-0.014082807292584857,-0.0004128066452597725
1728065989558005200,0.218005126953125,-0.011444156989455223,-0.04859701544046402,-0.0039705028757452965,-0.0280162300914526,-0.295910120010376,-0.9548048377037048,-0.004072993993759155,-0.01065412163734436,0.000443875789642334,0.9886365961008344,0.14964882400590568,-0.014240921706135369,-0.0004743200283886371
1728065989568036400,0.228036376953125,-0.028302565217018127,-0.050322212278842926,-0.012357063591480255,-0.028048522770404816,-0.29578614234924316,-0.9548423290252686,-0.004895195364952087,-0.013021111488342285,0.004311323165893555,0.9886458737349347,0.14958315338940883,-0.014273289447288246,-0.0005813985434347527
1728065989578066400,0.23806640625,-0.03884788602590561,-0.05909520015120506,-0.009412139654159546,-0.02826443500816822,-0.2956227660179138,-0.9548865556716919,-0.004877643659710884,-0.011887460947036743,0.0017157793045043945,0.988657049819757,0.1494969715439643,-0.014400982663604511,-0.0007051360490261113
1728065989588097300,0.24809716796875,-0.02331419847905636,-0.07038886100053787,-0.0025811316445469856,-0.02898211032152176,-0.2955103814601898,-0.954899787902832,-0.000024838373064994812,-0.008032619953155518,-0.004099845886230469,0.9886602869233849,0.14943826987609654,-0.014774993989967691,-0.0007788786297676682
1728065989598127400,0.25812744140625,-0.02777232974767685,-0.08687648922204971,-0.0047918218187987804,-0.029650820419192314,-0.29521721601486206,-0.9549699425697327,0.011080881580710411,-0.004724681377410889,-0.003785550594329834,0.988677989038244,0.14928580263619703,-0.015125213734644077,-0.0008611355234534908
1728065989608158500,0.268158447265625,-0.024206023663282394,-0.10910339653491974,0.00044395262375473976,-0.030372535809874535,-0.2947853207588196,-0.9550806879997253,0.019538801163434982,-0.007445424795150757,-0.004819214344024658,0.988705910133301,0.14906127834469926,-0.01550450921572437,-0.0009602239994156435
1728065989618188300,0.278188232421875,-0.01953803561627865,-0.11798609793186188,0.006095979828387499,-0.031379543244838715,-0.29444679617881775,-0.9551525712013245,0.01628860831260681,-0.008775770664215088,0.0049571990966796875,0.9887239539670439,0.14888563257879023,-0.016024694777755772,-0.0010358821426928188
1728065989628219400,0.288219482421875,-0.028457362204790115,-0.1196192130446434,0.006091718096286058,-0.0326458178460598,-0.29436156153678894,-0.9551364183425903,0.012199051678180695,-0.009440839290618896,0.005612432956695557,0.9887199137614187,0.14884165930149895,-0.016672233944168707,-0.00108343301200981
1728065989638250200,0.298250244140625,-0.03322681784629822,-0.10576038807630539,0.0095149464905262,-0.033721473067998886,-0.2944641411304474,-0.9550673961639404,0.004653487354516983,-0.0026549100875854492,0.00494837760925293,0.9887023321290052,0.14889464974946662,-0.01722457963829986,-0.0011366822376405832
1728065989648280300,0.3082802734375,-0.04416661709547043,-0.09517639130353928,0.011949608102440834,-0.03466256707906723,-0.29455411434173584,-0.955005943775177,-0.006887111812829971,-0.0007796585559844971,0.001728355884552002,0.988686745519751,0.1489412515830842,-0.017706651864646112,-0.001175287672082337
1728065989658311400,0.3183115234375,-0.051596835255622864,-0.08704123646020889,0.027831902727484703,-0.03552751988172531,-0.2944771945476532,-0.9549978971481323,-0.013834651559591293,-0.002199321985244751,-0.007114529609680176,0.9886847009359933,0.14890261717272701,-0.018140254644321393,-0.0011499675099557352
1728065989668341500,0.328341552734375,-0.07158192992210388,-0.09372300654649734,0.04538905620574951,-0.03628518432378769,-0.2941185235977173,-0.9550799131393433,-0.011505335569381714,-0.0020697414875030518,-0.013837933540344238,0.9887055988478977,0.1487196174205837,-0.01850700641024382,-0.001044843448725095
1728065989678372400,0.338372314453125,-0.07206050306558609,-0.11990267038345337,0.049383532255887985,-0.036882128566503525,-0.293562114238739,-0.9552282094955444,-0.00271441787481308,0.00031882524490356445,-0.012179017066955566,0.9887432249624523,0.14843460002309425,-0.018789700788524214,-0.000923810975910761
1728065989688402400,0.34840234375,-0.07117732614278793,-0.1352812647819519,0.06492707133293152,-0.037467338144779205,-0.29306039214134216,-0.9553595185279846,0.004508364945650101,-0.00024393200874328613,-0.006493508815765381,0.988776545548425,0.14817772115396088,-0.019068429797893402,-0.0008148750352211158
1728065989698433300,0.358433349609375,-0.05222707614302635,-0.14127495884895325,0.08844704180955887,-0.038315873593091965,-0.2927657961845398,-0.955416202545166,0.00431930273771286,-0.0004622340202331543,-0.005033016204833984,0.9887910514800563,0.14803048334613844,-0.019464909955946984,-0.0005998262757775655
1728065989708464400,0.36846435546875,-0.010342806577682495,-0.15569013357162476,0.0935983955860138,-0.03945669159293175,-0.29278552532196045,-0.9553636908531189,0.0017827488481998444,0.0019683539867401123,-0.010700762271881104,0.9887778925656578,0.1480482007408286,-0.01999697652678954,-0.0002987008320200053
1728065989718494500,0.378494384765625,0.021311791613698006,-0.1523609161376953,0.09884802252054214,-0.04087880626320839,-0.29298725724220276,-0.9552420377731323,0.003220122307538986,0.004214763641357422,-0.022358059883117676,0.9887471273982225,0.14816171700171146,-0.02066587959911431,0.000041000820731378
1728065989728525300,0.388525390625,0.0543636828660965,-0.15401461720466614,0.118026502430439,-0.04269011318683624,-0.29338371753692627,-0.9550411105155945,0.001689758151769638,0.007632464170455933,-0.03790932893753052,0.9886962622915538,0.14837922405062431,-0.021518434129822503,0.00047082779907362817
1728065989738555400,0.398555419921875,0.06281469017267227,-0.15151044726371765,0.14264211058616638,-0.04475964233279228,-0.29394081234931946,-0.9547750353813171,-0.00014696642756462097,0.011622786521911621,-0.03980809450149536,0.9886285870034018,0.1486841724124122,-0.022483283111124432,0.0010236835898430195
1728065989748586500,0.40858642578125,0.0312783382833004,-0.15562084317207336,0.1655639410018921,-0.0467541366815567,-0.2942858338356018,-0.9545731544494629,0.0038311667740345,0.00746646523475647,-0.039430201053619385,0.9885765973222452,0.1488832638904685,-0.02339229940418612,0.0016925201602342942
1728065989758616300,0.4186162109375,0.0068318527191877365,-0.1649589240550995,0.19443073868751526,-0.048624489456415176,-0.2942695915699005,-0.9544847011566162,0.0035652965307235718,-0.0017813146114349365,-0.03576493263244629,0.9885525805376023,0.14889899434498108,-0.024222642810809863,0.002464011026861339
1728065989768647400,0.4286474609375,-0.007833842188119888,-0.18789850175380707,0.20023350417613983,-0.05055289715528488,-0.2941041588783264,-0.9544355273246765,-0.0014642998576164246,-0.011376708745956421,-0.02200496196746826,0.9885377070937442,0.14884067247826907,-0.025073926381531456,0.00329162448477402
1728065989778678500,0.438678466796875,0.0019090657588094473,-0.22049959003925323,0.18701064586639404,-0.0527716763317585,-0.29392462968826294,-0.9543707370758057,-0.000588294118642807,-0.019673913717269897,-0.02206975221633911,0.9885184506018592,0.14877668885845793,-0.026079515138032826,0.00407158528376797
1728065989788708400,0.448708251953125,0.02026456966996193,-0.22903431951999664,0.18011918663978577,-0.05521758645772934,-0.29384246468544006,-0.954257607460022,0.0040243566036224365,-0.017879247665405273,-0.024944663047790527,0.98848659633237,0.14876472506479615,-0.027207357132266314,0.004804128504586942
1728065989798739500,0.458739501953125,0.04504981264472008,-0.2357095330953598,0.2077643871307373,-0.057787392288446426,-0.2938807010650635,-0.9540936946868896,0.00705193355679512,-0.008807778358459473,-0.03542351722717285,0.9884410588890176,0.14881889324204198,-0.028391834237737574,0.005577531607145475
1728065989808769500,0.46876953125,0.06254405528306961,-0.23867875337600708,0.2393271028995514,-0.06047898903489113,-0.29408571124076843,-0.9538636803627014,0.013222530484199524,0.005877852439880371,-0.041146695613861084,0.9883772341854599,0.14896685556942663,-0.02961496596508329,0.006503027194023362
1728065989818800400,0.47880029296875,0.044922977685928345,-0.27517497539520264,0.2668388783931732,-0.06350192427635193,-0.29421383142471313,-0.9536276459693909,0.021891221404075623,0.007882773876190186,-0.04011625051498413,0.9883098577788285,0.14908437749649583,-0.030984175476071917,0.007572865193745641
1728065989828830500,0.48883056640625,0.025368984788656235,-0.3024633228778839,0.28395047783851624,-0.06688331812620163,-0.2941848635673523,-0.9534054398536682,0.028507471084594727,-0.005604475736618042,-0.04049110412597656,0.9882442836090887,0.14912893646008155,-0.032524667824349665,0.00871287439195948
1728065989838861600,0.498861572265625,0.0337587408721447,-0.31296631693840027,0.31933751702308655,-0.07049431651830673,-0.2941705286502838,-0.953149676322937,0.03275933861732483,-0.016452550888061523,-0.033285319805145264,0.9881678737261577,0.14919066391734329,-0.034166041510860765,0.009956204327866822
1728065989848892400,0.508892333984375,-0.0037450913805514574,-0.27142396569252014,0.37359941005706787,-0.07436224073171616,-0.29413652420043945,-0.9528661966323853,0.021139606833457947,-0.024192214012145996,-0.033782362937927246,0.9880800520435554,0.14925825346134872,-0.035900997436216366,0.011443666247450765
1728065989858922500,0.518922607421875,-0.06942929327487946,-0.23925644159317017,0.46041634678840637,-0.07799404859542847,-0.29343974590301514,-0.9527906775474548,0.008490271866321564,-0.0307941734790802,-0.05428946018218994,0.9880378619989867,0.1489999526871374,-0.03746577212734178,0.013284709537700324
1728065989868953300,0.528953369140625,-0.04206591472029686,-0.34141334891319275,0.5550560355186462,-0.08222421258687973,-0.2924131751060486,-0.9527506232261658,0.006952613592147827,-0.031164586544036865,-0.0700918436050415,0.9879935983651931,0.1486041064648689,-0.03926216020273601,0.015620984484796475
1728065989878983400,0.5389833984375,-0.010097329504787922,-0.4103314280509949,0.49918133020401,-0.08746066689491272,-0.29176002740859985,-0.9524844884872437,0.028103992342948914,-0.04915174841880798,-0.05844080448150635,0.9878856521800778,0.1484263502636275,-0.041561648969456404,0.018003391249981595
1728065989889014500,0.5490146484375,-0.041624631732702255,-0.31102150678634644,0.45177915692329407,-0.0924542024731636,-0.29113641381263733,-0.952203631401062,0.0497296079993248,-0.06907770037651062,-0.07947361469268799,0.9877765229811658,0.1482556331075411,-0.043800020716827016,0.019982178544155373
1728065989899044400,0.55904443359375,-0.2293497771024704,-0.445030152797699,0.8709772229194641,-0.09661950916051865,-0.2888166308403015,-0.9524965286254883,0.005829744040966034,-0.08081215620040894,-0.09242534637451172,0.9877800159542957,0.1472627463030737,-0.04544694954617011,0.023211351515426387
1728065989909075200,0.5690751953125,-0.1801508069038391,-0.9250044822692871,0.10032980144023895,-0.10489174723625183,-0.2863648533821106,-0.9523617625236511,0.09302043169736862,-0.07189613580703735,-0.08902007341384888,0.987696190109181,0.1462274206253345,-0.049362658257868106,0.025238530098097952
1728065989919106600,0.5791064453125,-0.3546083867549896,-1.2807316780090332,-0.3084033727645874,-0.11528264731168747,-0.2839164435863495,-0.9518935680389404,0.43117010593414307,-0.08954232931137085,-0.07415318489074707,0.9876199104796528,0.14504585128701494,-0.05490826346097276,0.023529323295460543
1728065989929136400,0.589136474609375,-0.3902590572834015,-1.2232081890106201,-0.044856153428554535,-0.12677976489067078,-0.28055793046951294,-0.9514274001121521,0.20162412524223328,-0.2172141969203949,-0.0492287278175354,0.9875486562753532,0.14337594163686668,-0.06107066679280298,0.02147936491508916
1728065989939167200,0.599167236328125,-0.3281565308570862,-0.9192395210266113,0.4452610909938812,-0.1376551240682602,-0.27678024768829346,-0.9510224461555481,-0.017480969429016113,-0.18867376446723938,-0.030575454235076904,0.9874441094440468,0.1416048229991839,-0.0666095815617944,0.021569324540731155
1728065989949197300,0.609197265625,-0.12386330962181091,-0.6215255856513977,0.7954055070877075,-0.14667631685733795,-0.2736589312553406,-0.9505770802497864,-0.024069517850875854,-0.11194580793380737,-0.08448761701583862,0.9872729588900014,0.1403227619083594,-0.070858796254017,0.024095744551061758
1728065989959228200,0.619228271484375,0.11946545541286469,-0.47815456986427307,0.8967350721359253,-0.15424510836601257,-0.2723378539085388,-0.9497581720352173,-0.08060288429260254,-0.05688565969467163,-0.1264137625694275,0.9869629638514003,0.14007071565116502,-0.07416955223056879,0.027985549871545445
1728065989969258200,0.62925830078125,0.33174973726272583,-0.4415523409843445,0.787977933883667,-0.16106592118740082,-0.2731631398200989,-0.9483879208564758,-0.0943966954946518,-0.01031455397605896,-0.15973585844039917,0.9864934590639985,0.1409520334858759,-0.07706205923044256,0.032009091727535285
1728065989979289300,0.639289306640625,0.3957686722278595,-0.45963335037231445,0.40683645009994507,-0.1665470004081726,-0.27571991086006165,-0.946699857711792,-0.046602994203567505,0.010278135538101196,-0.177079439163208,0.9859736770272588,0.1426186322207958,-0.07943550519855103,0.034723237330608336
1728065989989320200,0.6493203125,0.3368811309337616,-0.7877185344696045,0.39542508125305176,-0.1737184226512909,-0.27868586778640747,-0.9445401430130005,0.03686235845088959,-0.011139482259750366,-0.175287127494812,0.9853668018838017,0.1444685715167197,-0.08281760007825767,0.036364282490745053
1728065989999350300,0.659350341796875,0.12542188167572021,-0.9354726076126099,0.4785596430301666,-0.18310216069221497,-0.28006699681282043,-0.9423566460609436,0.14791540801525116,-0.0804523229598999,-0.1546739935874939,0.984752636180479,0.14556880595697608,-0.0873578254318703,0.03795615914291172
1728065990009381400,0.66938134765625,0.054146505892276764,-1.0819451808929443,0.5829284191131592,-0.19424022734165192,-0.2798212170600891,-0.940197229385376,0.2157551497220993,-0.06666001677513123,-0.07315421104431152,0.9841289186563973,0.14592473654946436,-0.09277584662430409,0.03986109710543763
1728065990019411200,0.6794111328125,0.07645287364721298,-1.0584625005722046,0.6672592759132385,-0.2061639428138733,-0.27913427352905273,-0.9378595352172852,0.13498172163963318,-0.049356818199157715,-0.053473472595214844,0.9834371001707292,0.14614686502659702,-0.09854609352280773,0.04220470409226293
1728065990029442300,0.6894423828125,0.17443682253360748,-0.9874561429023743,0.7128539085388184,-0.21777406334877014,-0.27880004048347473,-0.9353314638137817,0.06480473279953003,-0.048745036125183105,-0.08734309673309326,0.982673457533934,0.1466175292750152,-0.10410360379366833,0.04492767890624981
1728065990039472400,0.699472412109375,0.31562164425849915,-0.9304854869842529,0.7350923418998718,-0.2288176715373993,-0.27946993708610535,-0.9324907660484314,0.023312345147132874,-0.023035436868667603,-0.1018109917640686,0.9818088537129323,0.14766008589654098,-0.10932118071402225,0.047923120186278825
1728065990049503200,0.709503173828125,0.4082895517349243,-0.8975261449813843,0.7650441527366638,-0.23951329290866852,-0.2811338007450104,-0.9292992949485779,0.025859758257865906,-0.008142232894897461,-0.1087867021560669,0.9808330386835724,0.14927479090840007,-0.1143127154193835,0.05114701187985561
1728065990059534300,0.719534423828125,0.4271013140678406,-0.9278033375740051,0.7834503054618835,-0.2501961290836334,-0.2831481397151947,-0.9258666038513184,0.04682701826095581,-0.006631433963775635,-0.10048532485961914,0.9797751767376761,0.15113478200238467,-0.11926844948085982,0.05453273247754698
1728065990069564400,0.729564453125,0.4027189314365387,-0.9766648411750793,0.8003981113433838,-0.2613145411014557,-0.2850039601325989,-0.9222187399864197,0.06832140684127808,-0.01058921217918396,-0.08180958032608032,0.9786479423451276,0.1529795728594328,-0.12445027240753938,0.05794416562718654
1728065990079595300,0.73959521484375,0.3587101995944977,-1.0542207956314087,0.8254843354225159,-0.2730257511138916,-0.2863278090953827,-0.9184080362319946,0.09159877896308899,-0.018496930599212646,-0.08447587490081787,0.9774635769420364,0.15462643340084872,-0.1299486270795533,0.0613920174966387
1728065990089625300,0.749625244140625,0.3480435609817505,-1.132108211517334,0.8440646529197693,-0.2855514585971832,-0.28723886609077454,-0.9143053293228149,0.10775607824325562,-0.0362015962600708,-0.07199233770370483,0.9761892921148656,0.15615128707718684,-0.13588272037021668,0.06486316666868196
1728065990099656400,0.759656494140625,0.30534055829048157,-1.1803003549575806,0.8382450938224792,-0.29859039187431335,-0.2877871096134186,-0.9099573493003845,0.10738256573677063,-0.04955407977104187,-0.08032280206680298,0.9748406263277066,0.1575634756536323,-0.14210938769693096,0.06829751672366134
1728065990109686300,0.769686279296875,0.2539810836315155,-1.2203326225280762,0.8466487526893616,-0.3119991421699524,-0.2877419888973236,-0.9054617881774902,0.09340175986289978,-0.04599812626838684,-0.08741235733032227,0.973446168688522,0.15873088084405426,-0.1485718794816557,0.07164860669032161
1728065990119717400,0.77971728515625,0.28367185592651367,-1.277336835861206,0.892279863357544,-0.3258567452430725,-0.28735730051994324,-0.9006903767585754,0.0827232301235199,-0.0278586745262146,-0.062062978744506836,0.9719598684085108,0.1598206484965279,-0.1552809680040946,0.07509356703083085
1728065990129748200,0.789748291015625,0.34103426337242126,-1.316707968711853,0.9216446876525879,-0.3402140140533447,-0.2871261537075043,-0.8954401016235352,0.08465984463691711,-0.023054420948028564,-0.04155641794204712,0.9703198242052277,0.16111889436261267,-0.16223642116627837,0.07873557554214955
1728065990139778300,0.7997783203125,0.4075581729412079,-1.3335636854171753,0.9213604927062988,-0.35479864478111267,-0.2872755229473114,-0.8897138237953186,0.06910839676856995,-0.024125725030899048,-0.030635297298431396,0.9685343339497104,0.16271747001093503,-0.16931071636589257,0.08245011805896184
1728065990149809400,0.809809326171875,0.47018447518348694,-1.3185713291168213,0.9033905863761902,-0.36925461888313293,-0.2878604531288147,-0.8836217522621155,0.03214222192764282,-0.02219805121421814,-0.018157482147216797,0.9666364968552899,0.16461569032933665,-0.17632586286903257,0.08616611423394807
1728065990159839500,0.819839599609375,0.5379547476768494,-1.2969073057174683,0.8817768692970276,-0.3834317624568939,-0.2889379560947418,-0.8772085905075073,0.0028012990951538086,-0.023684024810791016,-0.01703280210494995,0.9646399221854293,0.16682986263608274,-0.18320345123458198,0.08985510173855941
1728065990169870300,0.829870361328125,0.591575562953949,-1.2664293050765991,0.8694395422935486,-0.39721766114234924,-0.29046905040740967,-0.8705434203147888,-0.01580721139907837,-0.02283957600593567,-0.03479111194610596,0.9625607114083128,0.16933435360406093,-0.18987935579795703,0.09353342469680306
1728065990179900400,0.839900390625,0.6435191631317139,-1.2444473505020142,0.8621890544891357,-0.41073325276374817,-0.29234883189201355,-0.8636147379875183,-0.016695916652679443,-0.013986527919769287,-0.053881049156188965,0.9603906497828844,0.17209139839203313,-0.19641078072622342,0.09724802730517598
1728065990189931500,0.849931640625,0.6702008247375488,-1.2579797506332397,0.8789296746253967,-0.4241451025009155,-0.29437610507011414,-0.8564132452011108,0.001003652811050415,-0.013485133647918701,-0.07643288373947144,0.9581268280916225,0.17500689681395531,-0.20289400468581748,0.10099237251411727
1728065990199962400,0.85996240234375,0.6799077987670898,-1.2617124319076538,0.8888342380523682,-0.43758296966552734,-0.29631996154785156,-0.8489497303962708,0.02254393696784973,-0.009710222482681274,-0.06265616416931152,0.9557642911374089,0.17798433862480345,-0.20939608438371973,0.10483049099940069
1728065990209992400,0.869992431640625,0.6545698046684265,-1.2801436185836792,0.8793243765830994,-0.4510287344455719,-0.2980515658855438,-0.8412718772888184,0.04310029745101929,-0.010938823223114014,-0.030157625675201416,0.9533280317939248,0.1809285253311303,-0.21593733554881758,0.10863545656860084
1728065990220023300,0.880023193359375,0.617632269859314,-1.309838891029358,0.8881969451904297,-0.46457380056381226,-0.2993376553058624,-0.8334075212478638,0.046406716108322144,0.000006079673767089844,-0.0007447004318237305,0.9508310204535286,0.18371126114642086,-0.22259021009010901,0.11235687148602687
1728065990230053400,0.890053466796875,0.6543408036231995,-1.3539118766784668,0.9292173981666565,-0.47845062613487244,-0.3002956509590149,-0.825171172618866,0.04763403534889221,0.021578699350357056,0.020071685314178467,0.9482048502003465,0.1864584272229334,-0.22945076955867294,0.11615983635437026
1728065990240084500,0.90008447265625,0.7123787999153137,-1.3360059261322021,0.944349467754364,-0.4924243688583374,-0.30135366320610046,-0.8165196180343628,0.05191841721534729,0.024971306324005127,0.006399929523468018,0.9454212380237355,0.18941498032679363,-0.23635179498766531,0.12016036823028763
1728065990250114600,0.910114501953125,0.7614723443984985,-1.307192087173462,0.9429792761802673,-0.5060684680938721,-0.3026219606399536,-0.807659924030304,0.034663498401641846,0.023248881101608276,-0.006945788860321045,0.9425449945846931,0.19257792174623486,-0.24307152714692506,0.12425302861617864
1728065990260145400,0.9201455078125,0.7856586575508118,-1.2673554420471191,0.9158754944801331,-0.5193048119544983,-0.30408817529678345,-0.7986568808555603,0.007235229015350342,0.023906409740447998,0.006802022457122803,0.9396039291935302,0.1959091816786114,-0.24958194082387433,0.12834643664604636
1728065990270176500,0.930176513671875,0.7801695466041565,-1.2322560548782349,0.9049871563911438,-0.5320695638656616,-0.30553194880485535,-0.7896531820297241,-0.010807573795318604,0.02658611536026001,0.009578108787536621,0.936644208536564,0.1992618644737954,-0.25586735629964147,0.1323791110321012
1728065990280206300,0.940206298828125,0.7965533137321472,-1.1789711713790894,0.9049365520477295,-0.5443881154060364,-0.3068327307701111,-0.7807018160820007,-0.016936957836151123,0.03206780552864075,0.03245651721954346,0.9336688788553527,0.20258949267660273,-0.26192860635441856,0.13643085633811758
1728065990290237400,0.950237548828125,0.8184037804603577,-1.1150381565093994,0.879869282245636,-0.5561121106147766,-0.30815768241882324,-0.7718666791915894,-0.007684826850891113,0.029959529638290405,0.03677445650100708,0.9306929305896127,0.20596435188731108,-0.2676664837384936,0.14051338125662774
1728065990300267500,0.960267578125,0.8446285128593445,-1.0869768857955933,0.8379167318344116,-0.5672770738601685,-0.30971282720565796,-0.7630692720413208,0.0005962252616882324,0.034322261810302734,0.041938841342926025,0.9277144304225201,0.20946265973230516,-0.273113109367182,0.14450103095908998
1728065990310298400,0.97029833984375,0.8790853023529053,-1.0621604919433594,0.8315123915672302,-0.5780673623085022,-0.3114469349384308,-0.7542141079902649,0.012744545936584473,0.05006396770477295,0.07420617341995239,0.9247039723074157,0.21308393751241309,-0.27836701757971083,0.14842312004080346
1728065990320328400,0.980328369140625,0.991264283657074,-1.034452199935913,0.8504975438117981,-0.5886573791503906,-0.313542902469635,-0.7450996041297913,0.0292702317237854,0.06297838687896729,0.07581853866577148,0.9215727260801972,0.21701780818877756,-0.28346689352744026,0.15249134907768921
1728065990330357500,0.990357421875,1.0874354839324951,-0.9715592265129089,0.8834972977638245,-0.5988835692405701,-0.31607189774513245,-0.7358240485191345,0.036078453063964844,0.05011129379272461,0.048430800437927246,0.9183098274052761,0.2213470594979987,-0.2882593666783401,0.15690464797527326
1728065990340388600,1.000388671875,1.1267414093017578,-0.9223552346229553,0.8291453719139099,-0.6086210012435913,-0.3190280795097351,-0.7264994978904724,0.026391446590423584,0.0050785839557647705,0.015165209770202637,0.9149814221361816,0.2259789611131313,-0.2927179016678777,0.16142677715240644
1728065990350418700,1.010418701171875,1.0259239673614502,-0.8718335628509521,0.7767497897148132,-0.6176941394805908,-0.3219166398048401,-0.7175121307373047,-0.01072382926940918,-0.02163490653038025,0.006544053554534912,0.9117613757399555,0.23047628721080574,-0.29685791282272855,0.16567204518011885
1728065990360449500,1.020449462890625,0.940996527671814,-0.8504595756530762,0.7703787088394165,-0.6263831257820129,-0.32408392429351807,-0.7089525461196899,-0.03154522180557251,-0.015378236770629883,0.03176748752593994,0.9086781937081808,0.23450158731562867,-0.30088657203883284,0.16964705612381467
1728065990370479600,1.030479736328125,0.9185972213745117,-0.8114287257194519,0.816881000995636,-0.6348863840103149,-0.3256053328514099,-0.7006428241729736,-0.020234405994415283,-0.002092331647872925,0.05055737495422363,0.9056279080909623,0.23822445874508502,-0.30484042607625944,0.17366477708159475
1728065990380510500,1.040510498046875,0.9708750247955322,-0.7470007538795471,0.8649910092353821,-0.6431336998939514,-0.32675233483314514,-0.6925402283668518,-0.0038083791732788086,0.010758161544799805,0.07520008087158203,0.9025450011788774,0.24187556813419783,-0.3085872434607025,0.17799640556035048
1728065990390540500,1.05054052734375,1.0366886854171753,-0.6616325378417969,0.8696877360343933,-0.650902509689331,-0.3280404806137085,-0.6846278309822083,0.00098496675491333,0.02545878291130066,0.07151436805725098,0.8994191807550791,0.24570983052717896,-0.31194991669243116,0.18264435783666913
1728065990400571600,1.060571533203125,1.0473146438598633,-0.572100818157196,0.8369731903076172,-0.6579641103744507,-0.3295648694038391,-0.6771042346954346,-0.008310854434967041,0.052297502756118774,0.057093799114227295,0.8963503957387177,0.24965007404770653,-0.3148376038692382,0.18737120576504612
1728065990410602500,1.0706025390625,1.026503086090088,-0.5119372010231018,0.8223971724510193,-0.6644083857536316,-0.33104953169822693,-0.6700504422187805,-0.014271914958953857,0.07679244875907898,0.12251931428909302,0.8933871721137417,0.2534996995412104,-0.3173526211111338,0.1920532704143622
1728065990420632600,1.080632568359375,1.0432772636413574,-0.4585879445075989,0.8153510093688965,-0.67038494348526,-0.3324662446975708,-0.6633628606796265,-0.007044196128845215,0.06929799914360046,0.1266043782234192,0.8904860655407925,0.257288510707169,-0.31956405812675864,0.19676401716562125
1728065990430663700,1.09066357421875,1.0295473337173462,-0.4239100217819214,0.7906408309936523,-0.6760076880455017,-0.33391037583351135,-0.6568999290466309,-0.0036034584045410156,0.038927555084228516,0.07593667507171631,0.8876205780262514,0.2610679120645927,-0.3215487375253624,0.20144399829413095
1728065990440693500,1.100693603515625,0.9720726013183594,-0.4009530544281006,0.7550296187400818,-0.6813429594039917,-0.3352585434913635,-0.6506715416908264,-0.0034561753273010254,0.01657882332801819,0.02577829360961914,0.8848253761761371,0.2647256218356031,-0.32339538699551723,0.20596050902569657
1728065990450724600,1.110724609375,0.8323864340782166,-0.37549757957458496,0.7645629048347473,-0.6864069700241089,-0.33591538667678833,-0.6449854969978333,0.007665574550628662,0.016060709953308105,0.025783777236938477,0.8821999060340486,0.2678926019083207,-0.32517811150148884,0.2102759623485759
1728065990460754400,1.12075439453125,0.7540572881698608,-0.39266565442085266,0.7828603982925415,-0.6915252208709717,-0.3356487452983856,-0.639634907245636,0.035183727741241455,0.027970612049102783,0.06364607810974121,0.8796710473484834,0.2705298899315363,-0.3271026186194945,0.214467655682742
1728065990470785500,1.13078564453125,0.7155547142028809,-0.3617124557495117,0.8130135536193848,-0.6966468691825867,-0.3347293734550476,-0.6345387697219849,0.06325459480285645,0.03558087348937988,0.05948066711425781,0.8771833268762356,0.2728343672698349,-0.3290775445549308,0.21867513162919347
1728065990480816600,1.140816650390625,0.8100990653038025,-0.3570348918437958,0.8182586431503296,-0.7016613483428955,-0.33379513025283813,-0.629485547542572,0.07472360134124756,0.0429321825504303,0.04936164617538452,0.8746460077611826,0.27520082761026493,-0.3309406532986426,0.22301806894878803
1728065990490846500,1.150846435546875,0.8331034183502197,-0.3533967137336731,0.8459512591362,-0.7067111134529114,-0.33318015933036804,-0.6241396069526672,0.06868022680282593,0.04613193869590759,-0.0017759203910827637,0.8719475134446857,0.2778855943623501,-0.3327308200535937,0.2275460151374404
1728065990500877600,1.160877685546875,0.7636862397193909,-0.31652045249938965,0.9048600792884827,-0.711746096611023,-0.3318937122821808,-0.6190832257270813,0.06472772359848022,0.06385788321495056,0.028064429759979248,0.8692566556901181,0.2802791062522147,-0.33451759938663317,0.23223779428423766
1728065990510907400,1.170907470703125,0.7713548541069031,-0.281735360622406,0.9561448693275452,-0.7167236804962158,-0.32994961738586426,-0.6143618822097778,0.058337509632110596,0.07051974534988403,0.09840106964111328,0.866566857210229,0.28240169448269875,-0.3362563764983213,0.23715578005952617
1728065990520938500,1.1809384765625,0.7393726706504822,-0.18758222460746765,1.0094361305236816,-0.7214427590370178,-0.32748907804489136,-0.6101403832435608,0.0380932092666626,0.03606155514717102,0.10357904434204102,0.863900630020642,0.2843094454191875,-0.3377838936707911,0.24237557123950412
1728065990530968300,1.19096826171875,0.6654139757156372,-0.08892526477575302,1.014426827430725,-0.7256096601486206,-0.32443302869796753,-0.6068227887153625,0.02297300100326538,-0.0036919116973876953,0.12951254844665527,0.8614060228661892,0.285815277072499,-0.33896642280846545,0.2477722985806307
1728065990540999400,1.20099951171875,0.5570355653762817,-0.04003921151161194,0.9513964653015137,-0.7291972637176514,-0.3209489583969116,-0.6043699979782104,0.010447323322296143,-0.026096850633621216,0.13734418153762817,0.8591794581959143,0.28685428803988244,-0.33989647155620895,0.25297358412930965
1728065990551030300,1.2110302734375,0.46416017413139343,-0.0027125608175992966,0.9033080339431763,-0.7323000431060791,-0.31724801659584045,-0.6025698184967041,0.007156670093536377,-0.017209291458129883,0.15003985166549683,0.8572198687859968,0.28749806664775707,-0.34067571008692615,0.25779660577279057
1728065990561060400,1.221060302734375,0.43037185072898865,0.016807343810796738,0.9006778597831726,-0.735120952129364,-0.31329840421676636,-0.6011998057365417,0.028456032276153564,0.0049641430377960205,0.15953415632247925,0.8554131986634236,0.2878562764634575,-0.34137787448788187,0.2624272424239826
1728065990571091500,1.231091552734375,0.35535216331481934,0.03726734593510628,0.9511338472366333,-0.7378414869308472,-0.3088732659816742,-0.6001559495925903,0.05264562368392944,0.018651187419891357,0.11288166046142578,0.8536583257851328,0.2879430458069849,-0.34206846930934043,0.2671054080712997
1728065990581121500,1.24112158203125,0.2757393419742584,0.04516734555363655,0.9875917434692383,-0.7405791282653809,-0.3035554885864258,-0.5994968414306641,0.07137453556060791,0.021679967641830444,0.10030555725097656,0.851963655618037,0.28755915304811563,-0.3428721328228474,0.2718570356536293
1728065990591152400,1.25115234375,0.24071179330348969,0.03322562575340271,0.9667043089866638,-0.743315577507019,-0.2977816164493561,-0.5990058183670044,0.0759878158569336,0.005530118942260742,0.10037904977798462,0.8503104247696737,0.28690588963884206,-0.3437762427210712,0.2765411145778203
1728065990601182500,1.261182373046875,0.22401218116283417,0.02481110207736492,0.9265531301498413,-0.7459682822227478,-0.2921006381511688,-0.5985051393508911,0.05569124221801758,-0.007353007793426514,0.05755048990249634,0.848693445342114,0.2862270865959105,-0.344704907608684,0.28101928544014637
1728065990611213600,1.271213623046875,0.24546560645103455,0.04999272897839546,0.8916209936141968,-0.7484152913093567,-0.28668174147605896,-0.5980702638626099,0.03222888708114624,0.000869452953338623,0.03872877359390259,0.8471256800551112,0.285594885392286,-0.3455436679199407,0.2853297770117146
1728065990621244400,1.281244384765625,0.19909997284412384,0.09748861193656921,0.8653052449226379,-0.750479519367218,-0.2814478278160095,-0.5979694724082947,0.016272544860839844,0.016768991947174072,0.0327228307723999,0.8456593363843702,0.2849352162473946,-0.34616065791815365,0.2895597900336978
1728065990631274500,1.2912744140625,0.123020239174366,0.1266794055700302,0.8631006479263306,-0.7522290349006653,-0.2758674621582031,-0.5983716249465942,0.012910306453704834,0.0644264817237854,0.04118156433105469,0.8443674231531049,0.28392924553337495,-0.34669637399624614,0.293648530688157
1728065990641305300,1.301305419921875,0.2160729616880417,0.15542210638523102,0.8631464838981628,-0.7537741661071777,-0.27028849720954895,-0.5989729762077332,0.02609783411026001,0.11408433318138123,0.05685865879058838,0.8430917476876897,0.2828999254208447,-0.3471039454711976,0.2977965140603784
1728065990651335400,1.31133544921875,0.24067530035972595,0.17043045163154602,0.8361625075340271,-0.7550668716430664,-0.2652943432331085,-0.5995773077011108,0.03646951913833618,0.12399804592132568,-0.009568929672241211,0.8417607272761974,0.2821832932262116,-0.3472519762607845,0.30203899332139067
1728065990661366500,1.321366455078125,0.1776324212551117,0.12289596349000931,0.8057383298873901,-0.7563437223434448,-0.26031187176704407,-0.600151538848877,0.0379752516746521,0.15836799144744873,-0.0593334436416626,0.8404726506814816,0.28139981436023653,-0.3474742841245543,0.30607417419571953
1728065990671396600,1.331396728515625,0.24505408108234406,0.0924411192536354,0.773250162601471,-0.7577628493309021,-0.2555171847343445,-0.6004219055175781,0.052761077880859375,0.17315030097961426,-0.04580312967300415,0.8391482318505324,0.2807081213863279,-0.34783902248721993,0.309905241297339
1728065990681427500,1.341427490234375,0.3665775656700134,0.10040050745010376,0.7159724831581116,-0.7591119408607483,-0.2517262101173401,-0.6003190279006958,0.06933850049972534,0.11604514718055725,-0.014564454555511475,0.8377003320701943,0.2805794130453742,-0.34801678020432947,0.3137157850241393
1728065990691458600,1.35145849609375,0.2705587148666382,0.12380574643611908,0.6735246181488037,-0.7602044939994812,-0.24842555820941925,-0.6003113985061646,0.06628060340881348,0.04571262001991272,0.008255064487457275,0.8363202175209845,0.2805891140155204,-0.3480144289427074,0.3173706535537719
1728065990701488400,1.36148828125,-0.013675952330231667,0.17328409850597382,0.5868858695030212,-0.7609074711799622,-0.24440865218639374,-0.6010692119598389,0.05627197027206421,0.003197789192199707,0.10926312208175659,0.8353655455407747,0.27982310347497086,-0.3480868077127477,0.320466763673623
1728065990711519500,1.37151953125,-0.3609812259674072,0.2151203751564026,0.5174844264984131,-0.7610732316970825,-0.23905529081821442,-0.6030092835426331,0.022868335247039795,-0.022297188639640808,0.21325397491455078,0.8350798348436798,0.27775362848507407,-0.3483508130268616,0.32271723064783064
1728065990721549600,1.381549560546875,-0.6188916563987732,0.31108206510543823,0.504864513874054,-0.7607172727584839,-0.23213577270507812,-0.606153666973114,-0.008554518222808838,-0.0556907057762146,0.26078617572784424,0.8353961597758676,0.27435045056167223,-0.3487907683683668,0.3243303402184903
1728065990731580400,1.391580322265625,-0.686888575553894,0.4704072177410126,0.4901731610298157,-0.7595191597938538,-0.22426579892635345,-0.6106025576591492,-0.013307929039001465,-0.09709949791431427,0.2885962724685669,0.8361568628276898,0.27006640551823624,-0.3489453373208386,0.32579595090551605
1728065990741610500,1.401610595703125,-0.6798732876777649,0.6503769755363464,0.42771458625793457,-0.7571020126342773,-0.21653862297534943,-0.616366446018219,-0.02626889944076538,-0.1096026748418808,0.24290752410888672,0.8372940287801084,0.2654732884271378,-0.3483399439508164,0.3272948918937637
1728065990751641600,1.4116416015625,-0.6198429465293884,0.7676997780799866,0.16964124143123627,-0.753413200378418,-0.20994608104228973,-0.6231300830841064,-0.041386544704437256,-0.05970717966556549,0.14005202054977417,0.8388799637264658,0.2609397349191279,-0.3469083435938433,0.3283982060111989
1728065990761672400,1.42167236328125,-0.34804368019104004,0.7727640271186829,-0.3054179847240448,-0.7482844591140747,-0.207453653216362,-0.6301058530807495,-0.05147439241409302,0.07366465032100677,0.07200026512145996,0.8409910390199982,0.2577350323536612,-0.3442669543805688,0.32830925736313815
1728065990771702500,1.43170263671875,-0.2518089711666107,0.3644368648529053,-0.5661773681640625,-0.7437752485275269,-0.2090102732181549,-0.6349118947982788,-0.08439546823501587,0.2696792781352997,0.030495882034301758,0.8431061655905792,0.25633781542593786,-0.34181132261713,0.326539376957685
1728065990781733600,1.441733642578125,-0.31416553258895874,-0.0031755249947309494,-0.22901798784732819,-0.7417692542076111,-0.21037282049655914,-0.6368057727813721,-0.07648324966430664,0.4689788222312927,-0.0701950192451477,0.8444676089155941,0.2555775974520985,-0.34099443121697504,0.3244645112125389
1728065990791763500,1.451763427734375,0.029778379946947098,-0.10599010437726974,0.29167550802230835,-0.7423611283302307,-0.20895086228847504,-0.6365842223167419,0.08472263813018799,0.5131348967552185,-0.38546478748321533,0.8444862618730374,0.25489877481381923,-0.3416642978438426,0.32424541697022385
1728065990801794600,1.461794677734375,0.48194611072540283,-0.02196844108402729,0.42951834201812744,-0.7435494661331177,-0.20770376920700073,-0.635604739189148,0.13116854429244995,0.313004732131958,-0.2697603106498718,0.8434034640954845,0.25544056634231677,-0.34197622212138395,0.3263021395684152
1728065990811824600,1.47182470703125,0.642919659614563,-0.03398185223340988,0.13453331589698792,-0.7443540096282959,-0.2092060148715973,-0.6341687440872192,-0.025772273540496826,0.08696791529655457,-0.2234973907470703,0.8421039789691581,0.25745868875869676,-0.34151230282857825,0.32855032964760167
1728065990821855500,1.48185546875,0.5332187414169312,0.009374408982694149,-0.11553964018821716,-0.7444469928741455,-0.21302227675914764,-0.6327875256538391,-0.19999563694000244,-0.04443921148777008,-0.16802430152893066,0.841316889361645,0.26000019777346656,-0.340596726254283,0.3295140918083411
1728065990831886600,1.491886474609375,0.4048958122730255,0.06788219511508942,-0.007216896396130323,-0.7440533638000488,-0.21660208702087402,-0.6320348381996155,-0.2610582113265991,-0.11220948398113251,-0.0777430534362793,0.8408927235436093,0.26206283839165406,-0.33956685482037013,0.33002540088037097
1728065990841916700,1.501916748046875,0.13366030156612396,0.16542819142341614,0.21222518384456635,-0.7435752153396606,-0.21757355332374573,-0.6322638392448425,-0.17085343599319458,-0.1816268265247345,-0.039901137351989746,0.8405352280326782,0.2628753023534829,-0.33876930924959703,0.33110783884178485
1728065990851947500,1.511947509765625,-0.3485839068889618,0.26928621530532837,0.2715066075325012,-0.7427576184272766,-0.21506354212760925,-0.6340811252593994,-0.08091175556182861,-0.20911547541618347,0.06176966428756714,0.8406056762602104,0.26167693817942217,-0.3383557364974692,0.33229922194079814
1728065990861977600,1.5219775390625,-0.81206876039505,0.3572719693183899,0.2385108470916748,-0.7412897944450378,-0.20929120481014252,-0.6377198100090027,-0.06857037544250488,-0.1627943068742752,0.2510620355606079,0.8414924417774201,0.2581711721620097,-0.33836038962720694,0.3327915795266245
1728065990872008400,1.532008544921875,-0.6607193946838379,0.37774622440338135,0.18914809823036194,-0.7393770217895508,-0.20265115797519684,-0.6420700550079346,-0.06668359041213989,-0.08329847455024719,0.2958328127861023,0.8427617420535037,0.2538786686189019,-0.3383941449436408,0.33284752537823054
1728065990882038500,1.54203857421875,-0.14600543677806854,0.3847668468952179,0.192899689078331,-0.7373265027999878,-0.19866783916950226,-0.6456629037857056,-0.047554969787597656,-0.053819283843040466,0.1710687279701233,0.8436009898095184,0.2512274269378872,-0.3377178120017549,0.333419740069133
1728065990892069600,1.552069580078125,0.2752429246902466,0.4397569000720978,0.25661927461624146,-0.7351278066635132,-0.19745227694511414,-0.6485365629196167,-0.021051883697509766,-0.047496989369392395,0.028022587299346924,0.843824059119021,0.2504569302415711,-0.33615926821608133,0.3350062246089186
1728065990902100500,1.5621005859375,0.5694465637207031,0.4354252517223358,0.3059311509132385,-0.7328025698661804,-0.19820766150951385,-0.6509332060813904,0.023284196853637695,-0.02312101423740387,-0.057334065437316895,0.8435442560874246,0.2510765292629181,-0.3339071514677662,0.33749002434143954
1728065990912130600,1.572130615234375,0.6344271302223206,0.35992610454559326,0.30100589990615845,-0.730827808380127,-0.19993838667869568,-0.6526219248771667,0.06758934259414673,-0.037091583013534546,-0.03512227535247803,0.8429023948802795,0.2524796377118402,-0.33157662211646827,0.3403330847821388
1728065990922161700,1.58216162109375,0.45803505182266235,0.2608194947242737,0.1334555447101593,-0.72928386926651,-0.2019413858652115,-0.6537314057350159,0.10869371891021729,-0.07929329574108124,-0.04437357187271118,0.8422993226872574,0.25395418073368176,-0.32960822938941153,0.3426332586649699
1728065990932191500,1.59219140625,-0.09400887787342072,0.20019245147705078,-0.1296946108341217,-0.7278102040290833,-0.20325398445129395,-0.6549656391143799,0.1058315634727478,-0.09865634143352509,0.009244203567504883,0.8424066019797751,0.2544206677780259,-0.32830975533238976,0.3432692907007842
1728065990942222600,1.60222265625,-0.7006287574768066,0.17822803556919098,-0.32463908195495605,-0.7261159420013428,-0.20224496722221375,-0.6571549773216248,0.06338101625442505,-0.03780624270439148,0.16107642650604248,0.8436355917813363,0.2527455446463907,-0.3279362954772891,0.341842765283835
1728065990952252400,1.61225244140625,-0.9957228302955627,0.2386614978313446,-0.31003084778785706,-0.724122941493988,-0.19889360666275024,-0.6603690385818481,0.04004102945327759,0.07195581495761871,0.23184114694595337,0.8456288237932301,0.24925484644312498,-0.3281577575159486,0.33925840846171185
1728065990962283500,1.622283447265625,-0.7961292862892151,0.3064703643321991,-0.1259499341249466,-0.7218703627586365,-0.19433832168579102,-0.6641805171966553,0.036750853061676025,0.17901857197284698,0.141124427318573,0.8476102576091937,0.24521201609485807,-0.32829988441522623,0.337115747183115
1728065990972314600,1.632314697265625,-0.24287451803684235,0.2993625998497009,0.09020259976387024,-0.7197674512863159,-0.1909719854593277,-0.6674312353134155,0.05391979217529297,0.22448036074638367,-0.016635596752166748,0.8487887503919732,0.2424930189007982,-0.327843743750075,0.33656081170345536
1728065990982344400,1.642344482421875,0.16652630269527435,0.16122470796108246,0.2441634088754654,-0.7185567617416382,-0.18956348299980164,-0.6691350340843201,0.05495220422744751,0.1980627030134201,-0.15273386240005493,0.8488949462560615,0.2417260539387398,-0.32711005581538144,0.33755699063374567
1728065990992375600,1.65237548828125,0.22435864806175232,0.02068496122956276,0.18915662169456482,-0.7184410691261292,-0.18939141929149628,-0.6693081259727478,0.040233731269836426,0.14015136659145355,-0.22394144535064697,0.8483695989258213,0.242152835370468,-0.3266618003835743,0.3390031852997723
1728065991002405400,1.6624052734375,-0.07139337807893753,-0.028698300942778587,0.017192572355270386,-0.718705415725708,-0.18923333287239075,-0.6690689325332642,-0.008940339088439941,0.09226378798484802,-0.2330765724182129,0.8480666066734179,0.2423767688378175,-0.3266787984236142,0.33958426344725806
1728065991012436500,1.6724365234375,-0.42493805289268494,-0.07412634044885635,-0.12219355255365372,-0.7189401984214783,-0.18790653347969055,-0.669190526008606,-0.05268138647079468,0.07668527960777283,-0.14684957265853882,0.848384983741925,0.24146428703498876,-0.3272609385419031,0.33887762723751724
1728065991022466300,1.68246630859375,-0.6523094177246094,-0.1735791563987732,-0.1660182625055313,-0.7194892764091492,-0.18529492616653442,-0.6693287491798401,-0.040688276290893555,0.0637129545211792,-0.05447196960449219,0.8490986582759695,0.23957945813252957,-0.32853814826383554,0.3371880473817606
1728065991032497400,1.692497314453125,-0.8121063709259033,-0.28465965390205383,-0.1251150369644165,-0.720779538154602,-0.18143117427825928,-0.6689989566802979,-0.007598698139190674,0.04666560888290405,0.0185166597366333,0.8498413685068122,0.23708599126659116,-0.3305915393579983,0.33506572810641694
1728065991042528500,1.702528564453125,-0.8831946849822998,-0.3464764356613159,-0.08663049340248108,-0.722730815410614,-0.1764553040266037,-0.6682242155075073,0.020414650440216064,0.028399348258972168,0.08954983949661255,0.8504864040517995,0.2341586791265573,-0.33325308330227027,0.3328434888759388
1728065991052558300,1.712558349609375,-1.0029985904693604,-0.34151116013526917,0.02852165885269642,-0.7250502705574036,-0.17036966979503632,-0.6672902703285217,0.03416287899017334,0.008336648344993591,0.14604997634887695,0.8510538802129322,0.2307677783153125,-0.3363050737665709,0.33068480599228073
1728065991062589400,1.72258935546875,-1.0924105644226074,-0.30167773365974426,0.2087114155292511,-0.7274356484413147,-0.16242624819278717,-0.6666746735572815,0.04507791996002197,-0.017032310366630554,0.14479351043701172,0.8515022347597845,0.2266052239069093,-0.3395772920493307,0.32906126724509716
1728065991072619500,1.73261962890625,-1.2153388261795044,-0.2479911744594574,0.2478095442056656,-0.7296542525291443,-0.1529974639415741,-0.6664806604385376,0.06504249572753906,-0.07974478602409363,0.08203840255737305,0.8519236866044987,0.22174745014261826,-0.34291069930899676,0.32782055269580873
1728065991082650400,1.742650390625,-1.4943972826004028,-0.22437533736228943,0.17610685527324677,-0.7315821051597595,-0.1423908770084381,-0.6667176485061646,0.05438190698623657,-0.13621927797794342,0.010208189487457275,0.8526379619177863,0.2159969879294176,-0.34639064739259345,0.32613984030944654
1728065991092680400,1.752680419921875,-1.8549678325653076,-0.16595260798931122,0.1356893926858902,-0.733130156993866,-0.13010284304618835,-0.6675277948379517,0.03884011507034302,-0.16637535393238068,0.04304647445678711,0.8538189819049746,0.20891437082566372,-0.350129835978507,0.32366173714739194
1728065991102711600,1.762711669921875,-2.269165277481079,-0.18866245448589325,0.16654610633850098,-0.7344993352890015,-0.11517113447189331,-0.6687646508216858,0.05876404047012329,-0.16433930397033691,0.07173401117324829,0.8553788437444699,0.20009376148220742,-0.3543728971907239,0.3204827597406658
1728065991112742400,1.772742431640625,-2.587355852127075,-0.22772756218910217,0.1988728940486908,-0.7360954284667969,-0.09738224744796753,-0.6698359251022339,0.08658993244171143,-0.1267540454864502,0.06311589479446411,0.8570866400811247,0.1896062761696372,-0.3593487274127447,0.3167337811136294
1728065991122772500,1.7827724609375,-2.655449151992798,-0.27934813499450684,0.09332675486803055,-0.7379768490791321,-0.07847382873296738,-0.6702476739883423,0.09286588430404663,-0.05499473214149475,0.022786736488342285,0.8588133446515196,0.17835827078885447,-0.3647800468522195,0.31235137857722833
1728065991132803300,1.79280322265625,-2.3829433917999268,-0.34288549423217773,-0.04927833005785942,-0.7400842308998108,-0.06127582862973213,-0.6697168350219727,0.07130688428878784,0.056530408561229706,-0.03391176462173462,0.8604149874055728,0.1678634766745698,-0.3700857099263052,0.30748103215701267
1728065991142833400,1.80283349609375,-1.8807380199432373,-0.44040006399154663,-0.03754257783293724,-0.7426950335502625,-0.04731370881199837,-0.6679562330245972,0.04574990272521973,0.16787347197532654,-0.006009280681610107,0.8615214255570564,0.15931896220580188,-0.3750191246992599,0.3029174715208176
1728065991152864500,1.812864501953125,-1.0699774026870728,-0.5758960247039795,0.13104110956192017,-0.7461232542991638,-0.036943838000297546,-0.6647819876670837,0.055098652839660645,0.256777286529541,0.02417224645614624,0.8616709235621157,0.15351174506380227,-0.37953015275355895,0.2998567767023839
1728065991162894600,1.82289453125,-0.20543645322322845,-0.6323521137237549,0.2806577682495117,-0.7503064274787903,-0.031171968206763268,-0.6603547930717468,0.046708524227142334,0.2744429111480713,-0.019332706928253174,0.8606404922632798,0.1513306851404112,-0.38330355817208883,0.2991240994159948
1728065991172925400,1.832925537109375,0.08779055625200272,-0.548443615436554,0.3187188506126404,-0.7543349266052246,-0.02876407653093338,-0.6558592319488525,-0.03167569637298584,0.22557199001312256,-0.10639363527297974,0.8590452741236396,0.15156684452361507,-0.38613194006310597,0.2999512120114977
1728065991182956500,1.84295654296875,0.006241097114980221,-0.4719994068145752,0.29789987206459045,-0.7577476501464844,-0.0267187412828207,-0.6520004272460938,-0.11435312032699585,0.16427677869796753,-0.14395904541015625,0.8575474339133219,0.1519425545484347,-0.3884755265962002,0.30101916204962686
1728065991192986400,1.852986328125,-0.14176134765148163,-0.4433004558086395,0.2687550187110901,-0.7607976794242859,-0.024175133556127548,-0.6485386490821838,-0.12973564863204956,0.022801905870437622,-0.11177629232406616,0.8562722867867508,0.1518246055289461,-0.3907428454837872,0.3017729875278903
1728065991203017500,1.863017578125,-0.6717658042907715,-0.43553972244262695,0.23008354008197784,-0.7637073397636414,-0.019777292385697365,-0.6452595591545105,-0.10637921094894409,-0.1511058211326599,-0.0912821888923645,0.8553167012452908,0.15035754955442218,-0.3933990670798128,0.30176654479439374
1728065991213047600,1.873047607421875,-1.2811658382415771,-0.4660184681415558,0.1923430860042572,-0.7666574120521545,-0.011773450300097466,-0.6419483423233032,-0.07774859666824341,-0.2399049550294876,-0.018619894981384277,0.8548351938717392,0.1463848402170746,-0.3969852785266864,0.30038440893382384
1728065991223078400,1.883078369140625,-1.5467822551727295,-0.4854840636253357,0.22721213102340698,-0.7697196006774902,-0.000932867347728461,-0.6383814215660095,-0.05930560827255249,-0.22045683860778809,0.06680238246917725,0.8546111687886363,0.14050922645059738,-0.40133086093841075,0.29804416305077674
1728065991233108500,1.8931083984375,-1.4349119663238525,-0.5090559720993042,0.2817195653915405,-0.7729303240776062,0.01069634035229683,-0.6344007253646851,-0.04185843467712402,-0.14265428483486176,0.05742007493972778,0.8542404902512867,0.1342779522378692,-0.4059175590862619,0.29575915393072466
1728065991243139600,1.9031396484375,-1.1918063163757324,-0.4223898649215698,0.20979265868663788,-0.7759090065956116,0.021000346168875694,-0.6304950714111328,-0.0220491886138916,-0.021625898778438568,-0.10354429483413696,0.8537625028086787,0.128830335527817,-0.41006732959546544,0.2938314614142913
1728065991253170400,1.91317041015625,-0.9213358759880066,-0.31567126512527466,0.1617625504732132,-0.7781944274902344,0.029085256159305573,-0.6273495554924011,-0.037647128105163574,0.1245860680937767,-0.19348180294036865,0.8534112810925695,0.12446264228182383,-0.41332104333382147,0.29217106910652924
1728065991263200500,1.923200439453125,-0.5956954956054688,-0.24794282019138336,0.18782104551792145,-0.7799267768859863,0.03522924333810806,-0.6248784065246582,-0.03960740566253662,0.2324099838733673,-0.10197407007217407,0.8530348185153706,0.1212565511015364,-0.41576152059457616,0.29115412358132325
1728065991273231600,1.933231689453125,-0.22793366014957428,-0.1902957260608673,0.1780397891998291,-0.7812487483024597,0.03927723318338394,-0.622982919216156,0.015349209308624268,0.25469866394996643,-0.06296074390411377,0.8525444243376477,0.11942762776224662,-0.4174273310704456,0.2909631600037492
1728065991283261400,1.943261474609375,-0.0651862770318985,-0.0993727371096611,0.07995369285345078,-0.7821148037910461,0.04115907847881317,-0.6217735409736633,0.04807555675506592,0.2100159078836441,-0.012885332107543945,0.8521112265796973,0.11880447081088352,-0.418328504272139,0.29119259434753736
1728065991293292500,1.95329248046875,-0.17497456073760986,-0.06441214680671692,-0.13642200827598572,-0.7826235294342041,0.04162982851266861,-0.6211017370223999,0.05328398942947388,0.15732958912849426,0.0728839635848999,0.8520444976792265,0.11851512152551155,-0.41881175603954257,0.2908110125117551
1728065991303322600,1.963322509765625,-0.2639619708061218,-0.034596189856529236,-0.08726219832897186,-0.7830433249473572,0.042064424604177475,-0.6205430030822754,0.03614091873168945,0.1266825795173645,0.1895890235900879,0.8522614832637728,0.1178567528047883,-0.4193307451584982,0.2896925275693365
1728065991313353500,1.973353515625,0.11159960925579071,0.03592846915125847,0.09033682197332382,-0.7830644249916077,0.04281492158770561,-0.620465099811554,0.06231558322906494,0.12046943604946136,0.19727778434753418,0.8522913541658149,0.11739573631587975,-0.4195064833219333,0.28953743844127333
1728065991323384300,1.98338427734375,0.4914571940898895,0.14815513789653778,0.030024481937289238,-0.7824947237968445,0.04140929505228996,-0.6212788224220276,0.11107754707336426,0.06300665438175201,0.10811042785644531,0.8521752931584582,0.11848014488050025,-0.41871594324139866,0.29058005174365836
1728065991333414400,1.993414306640625,0.6853809952735901,0.2723974585533142,-0.054116763174533844,-0.7812038660049438,0.037592947483062744,-0.6231430172920227,0.0524442195892334,0.04208850488066673,0.012776196002960205,0.8522843708401759,0.12073054460113865,-0.41695638957564185,0.2918608108560954
1728065991343445200,2.0034453125,0.8833076357841492,0.37892043590545654,-0.02243126928806305,-0.7791415452957153,0.032366130501031876,-0.626011848449707,0.008099794387817383,0.0894601047039032,0.034840524196624756,0.8525594407906611,0.12367192053918097,-0.4143661827315435,0.29351026792276286
1728065991353475300,2.013475341796875,1.109973430633545,0.3935090899467468,-0.005628320854157209,-0.776684582233429,0.026037396863102913,-0.6293512582778931,0.039914071559906006,0.10338771343231201,0.045397400856018066,0.8527481774571256,0.12737460898673234,-0.41121778672495374,0.2957974294814386
1728065991363506400,2.02350634765625,1.1688497066497803,0.37384936213493347,-0.0653049647808075,-0.7743105888366699,0.01849800907075405,-0.6325352787971497,0.0742984414100647,0.07146787643432617,0.04400372505187988,0.852814597500471,0.1318140471032036,-0.40786934739396313,0.2982865691309452
1728065991373536300,2.033536376953125,1.1183161735534668,0.48413968086242676,-0.19236516952514648,-0.7716563940048218,0.01032348070293665,-0.635955810546875,0.07692378759384155,0.0340033620595932,0.085296630859375,0.8530983531468408,0.1362802138134757,-0.4042892365608794,0.3003348974088517
1728065991383567400,2.0435673828125,1.206406593322754,0.6210839748382568,-0.28601017594337463,-0.768117368221283,0.0009387119207531214,-0.6403083801269531,0.05107647180557251,0.013343574479222298,0.11462777853012085,0.8537767559384293,0.1409427216430268,-0.3999762121414629,0.3020254003868993
1728065991393598200,2.05359814453125,1.3855429887771606,0.807770311832428,-0.32241079211235046,-0.7635673880577087,-0.00956056360155344,-0.645657479763031,0.006349921226501465,0.03434089571237564,0.13355714082717896,0.8547220504538614,0.14591371882393908,-0.39481699578968876,0.3037746404142505
1728065991403628300,2.063628173828125,1.7996739149093628,1.0106159448623657,-0.4255014955997467,-0.7575211524963379,-0.022750267758965492,-0.652414083480835,-0.01672494411468506,0.14283698797225952,0.1572662591934204,0.8558986602944151,0.15207081367447656,-0.3881590336205501,0.30601393220849915
1728065991413659400,2.073659423828125,2.2274398803710938,0.9792608618736267,-0.45912179350852966,-0.7507597208023071,-0.039324454963207245,-0.6594038605690002,-0.048800766468048096,0.2963893413543701,0.09653759002685547,0.8569678007525251,0.15998183318392267,-0.3803996290017824,0.3087202088284911
1728065991423689500,2.083689453125,2.850754499435425,0.7280091643333435,-0.34188729524612427,-0.7448228001594543,-0.05917808786034584,-0.6646329164505005,-0.005787491798400879,0.4057052433490753,0.016439497470855713,0.8571413341696521,0.17027420946527438,-0.3724113792802942,0.31245022572461856
1728065991433720300,2.09372021484375,3.3033857345581055,0.37343698740005493,-0.23119886219501495,-0.740938127040863,-0.08198551833629608,-0.6665500998497009,0.1468830108642578,0.30542004108428955,-0.23562586307525635,0.8558458906574752,0.18325934622509923,-0.36488485105311086,0.3174946775497288
1728065991443750400,2.10375048828125,3.273101806640625,0.037061907351017,-0.2788873016834259,-0.7394403219223022,-0.10590722411870956,-0.6648396253585815,0.24336189031600952,0.030132144689559937,-0.32698172330856323,0.8534274044308182,0.19758054728355876,-0.3585277026456231,0.3226167447947948
1728065991453781200,2.11378125,2.6175808906555176,0.041708432137966156,-0.41306400299072266,-0.7388998866081238,-0.12857402861118317,-0.661434531211853,0.14208298921585083,-0.19132642447948456,-0.17230576276779175,0.8509264729623959,0.2110839611283015,-0.35316609140327393,0.3265599867365768
1728065991463812400,2.123812255859375,1.7345377206802368,0.1939363181591034,-0.49929049611091614,-0.7374496459960938,-0.14602801203727722,-0.6594268679618835,-0.056327760219573975,-0.227690190076828,-0.07632148265838623,0.8496013585251809,0.22073514873604838,-0.34865823397743784,0.3284674340695249
1728065991473842400,2.133842529296875,1.579577922821045,0.34744992852211,-0.5318921208381653,-0.7349156737327576,-0.1605907380580902,-0.6588698625564575,-0.23212522268295288,-0.14203675091266632,0.12510210275650024,0.8490632909172869,0.22814173509563848,-0.3442621518214738,0.32943325641867843
1728065991483873300,2.143873291015625,1.3444525003433228,0.45367729663848877,-0.5764979720115662,-0.7312774062156677,-0.17446215450763702,-0.6593908071517944,-0.2909697890281677,-0.12331302464008331,0.018720030784606934,0.848971071956162,0.23471448536104567,-0.33943142943074606,0.33006586385798525
1728065991493903400,2.1539033203125,1.1310768127441406,0.5135457515716553,-0.4678569436073303,-0.7270762324333191,-0.18638962507247925,-0.6607716083526611,-0.25760388374328613,-0.03728890419006348,-0.05131042003631592,0.8492226457565577,0.2399842877481661,-0.3346964926035368,0.330464418796063
1728065991503934500,2.1639345703125,1.0930474996566772,0.44289448857307434,-0.23869778215885162,-0.7231987118721008,-0.19630953669548035,-0.6621526479721069,-0.12403017282485962,-0.002649754285812378,-0.042605042457580566,0.8492683519866937,0.2444905332293562,-0.33037560509470454,0.3313904068922131
1728065991513964300,2.17396435546875,0.9681335091590881,0.2715468108654022,-0.0900566503405571,-0.7205262184143066,-0.20433133840560913,-0.6626391410827637,0.05679953098297119,-0.1291188895702362,-0.0823255181312561,0.8488230815816158,0.24858101443097824,-0.3269371672939215,0.33289463761845295
1728065991523995400,2.183995361328125,0.649401843547821,0.15634749829769135,-0.08742651343345642,-0.718984842300415,-0.2103632092475891,-0.6624259352684021,0.15366202592849731,-0.2990514039993286,-0.009632229804992676,0.8482731257890352,0.25185055899439496,-0.32458945908588793,0.3341342636928424
1728065991534026500,2.194026611328125,0.17634451389312744,0.15422214567661285,-0.0924479067325592,-0.7178328633308411,-0.21383097767829895,-0.6625649333000183,0.14726102352142334,-0.4164637625217438,0.11968767642974854,0.848120407842246,0.2535597826107585,-0.32314853467968696,0.3346254951438205
1728065991544056000,2.20405615234375,-0.49422532320022583,0.19920507073402405,-0.03351614624261856,-0.7164857983589172,-0.21330863237380981,-0.6641893982887268,0.11475557088851929,-0.4861694574356079,0.23019886016845703,0.8487074335947089,0.2527321702851671,-0.3225395419104424,0.33435079561574593
1728065991554087400,2.21408740234375,-1.3892267942428589,0.1786528080701828,0.10505398362874985,-0.7153542041778564,-0.20683793723583221,-0.6674476861953735,0.1007760763168335,-0.5049692392349243,0.35250622034072876,0.8501167700835457,0.24840102773892173,-0.32337762489379523,0.33320460374358685
1728065991564117200,2.2241171875,-2.3267147541046143,0.10203740000724792,0.18224118649959564,-0.7146072387695312,-0.19325150549411774,-0.67230224609375,0.11859899759292603,-0.5024881958961487,0.4103698134422302,0.8523807398847664,0.2399679468517461,-0.32598198728881095,0.3310560370666251
1728065991574148000,2.234148193359375,-3.3822102546691895,-0.1716819405555725,0.024604415521025658,-0.7150947451591492,-0.17310570180416107,-0.6772546172142029,0.14684230089187622,-0.48032134771347046,0.3522424101829529,0.8554660546660284,0.22762583291335428,-0.3309972320389259,0.32681034270690973
1728065991584178200,2.24417822265625,-4.087563514709473,-0.38302212953567505,-0.3071141541004181,-0.7167714834213257,-0.14841356873512268,-0.6813310980796814,0.15752172470092773,-0.32788944244384766,0.20751512050628662,0.8593860244683806,0.2120932612689217,-0.33815811077466146,0.3195641140085153
1728065991594209300,2.254209228515625,-4.091156959533691,-0.4982215464115143,-0.17082206904888153,-0.7195276618003845,-0.12212928384542465,-0.6836404800415039,0.1407923698425293,0.0009440481662750244,0.06828397512435913,0.8632829578502549,0.19542299226096,-0.34639515704852897,0.31074538263786383
1728065991604240100,2.264240234375,-3.018737554550171,-0.42103511095046997,0.4390503168106079,-0.7228564023971558,-0.09622663259506226,-0.6842652559280396,0.1262226104736328,0.36926746368408203,0.02673351764678955,0.8656763591890266,0.18015619839811345,-0.3541343033193299,0.304527527510588
1728065991614270200,2.274270263671875,-1.457084059715271,-0.2583027780056,0.713850736618042,-0.7257459163665771,-0.07659535109996796,-0.6836855411529541,0.12631982564926147,0.5675317049026489,-0.18048077821731567,0.8660784134520471,0.16996578208234897,-0.3595398090612712,0.3029039198833792
1728065991624301300,2.28430126953125,-0.8111839890480042,-0.17759568989276886,0.626656711101532,-0.7276548743247986,-0.06433138996362686,-0.682919979095459,-0.04036557674407959,0.5365146994590759,-0.3538384437561035,0.8655453898166324,0.16443991425353272,-0.362628627489732,0.3037943098469723
1728065991634331100,2.2943310546875,-0.8336001038551331,-0.27158865332603455,0.44097286462783813,-0.729524552822113,-0.05489054694771767,-0.6817483901977539,-0.1465587019920349,0.38553330302238464,-0.2065267562866211,0.8649726238630022,0.1603037908006172,-0.36527864687753797,0.30446104073769714
1728065991644362200,2.3043623046875,-1.1313055753707886,-0.4040902554988861,0.3251514434814453,-0.7319682240486145,-0.04555948078632355,-0.6798138618469238,-0.09072458744049072,0.11976303160190582,0.03834956884384155,0.8645449103838967,0.15595202816556958,-0.36847257560788416,0.30408719295321096
1728065991654392300,2.314392333984375,-1.5723527669906616,-0.5385643243789673,0.1990944743156433,-0.7353762984275818,-0.034350473433732986,-0.676787793636322,-0.002233445644378662,-0.12418828159570694,0.06800782680511475,0.8642873876874341,0.15029466862417445,-0.3728506758552931,0.30232625741423647
1728065991664423200,2.324423095703125,-1.8030725717544556,-0.6251477003097534,0.14586001634597778,-0.7393340468406677,-0.02165530063211918,-0.6729905009269714,0.024917662143707275,-0.1852232962846756,0.04977571964263916,0.864199881104078,0.14350811400567975,-0.3780346312541588,0.2994224219571206
1728065991674454300,2.334454345703125,-1.8211650848388672,-0.61775803565979,0.16290584206581116,-0.7436227202415466,-0.008212924003601074,-0.6685490012168884,-0.026457786560058594,-0.10132986307144165,0.016754508018493652,0.8640415917280424,0.13623956776196042,-0.3836199673179183,0.29615296555085535
1728065991684484400,2.344484375,-1.6294913291931152,-0.533561646938324,0.1573859006166458,-0.7474856376647949,0.0046106805093586445,-0.6642619967460632,-0.08048665523529053,0.04000607877969742,-0.03849685192108154,0.863833543606909,0.1292611264174508,-0.38879373293742137,0.293125704985934
1728065991694515200,2.35451513671875,-1.5281046628952026,-0.43633416295051575,0.15711478888988495,-0.7506592273712158,0.016168557107448578,-0.6604917049407959,-0.1420714259147644,0.1110592931509018,-0.0863802433013916,0.8636539294721275,0.12288379479854097,-0.39326035910624985,0.2904268071499148
1728065991704545300,2.364545166015625,-1.5955623388290405,-0.41531649231910706,0.17243382334709167,-0.753470778465271,0.02770380862057209,-0.6568974256515503,-0.12120866775512695,0.07851268351078033,-0.11255753040313721,0.8634921321360526,0.11643952363263371,-0.39748348140653295,0.287801940470074
1728065991714576100,2.374576171875,-1.7974469661712646,-0.4846932888031006,0.1716655045747757,-0.7563406825065613,0.04005619138479233,-0.6529504060745239,-0.040000200271606445,-0.018022436648607254,-0.043918490409851074,0.8633097269721286,0.10944381493056174,-0.4019288918858173,0.28490612914138946
1728065991724606200,2.384606201171875,-2.024221420288086,-0.5893300175666809,0.21977683901786804,-0.7597976326942444,0.05419626832008362,-0.6478968858718872,0.01963961124420166,-0.12580570578575134,0.02179819345474243,0.8629400464938719,0.10144436985112348,-0.40713707201750515,0.28157235373003675
1728065991734637300,2.39463720703125,-1.9014430046081543,-0.4019298851490021,0.007941816002130508,-0.7630687355995178,0.06799867749214172,-0.6427302956581116,0.07672852277755737,-0.18016597628593445,0.0454401969909668,0.8626576806802156,0.09334471256453737,-0.4122154885758376,0.27782524838267947
1728065991744668200,2.404668212890625,-1.7337408065795898,-0.22210898995399475,-0.1541605293750763,-0.7650415897369385,0.07901086658239365,-0.6391155123710632,0.022228598594665527,-0.13423237204551697,0.005890965461730957,0.862992824202,0.086053441154227,-0.41597722595627046,0.2734979944902261
1728065991754698200,2.4146982421875,-1.1570254564285278,-0.13122116029262543,-0.09601627290248871,-0.7663140296936035,0.0875120684504509,-0.636478066444397,-0.09229791164398193,0.07355976849794388,0.1458621621131897,0.8633958040006496,0.080163770858071,-0.4187299178329286,0.2697898873572269
1728065991764729300,2.424729248046875,-0.5301218628883362,-0.14860041439533234,-0.1609358787536621,-0.7672498226165771,0.0918591096997261,-0.6347358822822571,-0.016746699810028076,0.25434762239456177,0.1239173412322998,0.8636122131999325,0.0770082941264452,-0.42035909310447306,0.26747336024554713
1728065991774759200,2.43475927734375,-0.23263093829154968,-0.259539932012558,-0.1506424993276596,-0.7687438130378723,0.09288277477025986,-0.632776141166687,0.050863683223724365,0.2941564619541168,0.008417010307312012,0.8635392424803751,0.07605432513993537,-0.42169616877990784,0.2658721875629785
1728065991784790300,2.444790283203125,-0.026493214070796967,-0.290286123752594,-0.013720868155360222,-0.7706376910209656,0.09304678440093994,-0.6304440498352051,0.07169371843338013,0.21611160039901733,0.030498981475830078,0.8630824817200775,0.0760751733140852,-0.4230727254818646,0.26516136133542295
1728065991794820400,2.4548203125,-0.18582740426063538,-0.2025013118982315,-0.04083291441202164,-0.7722389101982117,0.09344391524791718,-0.6284227967262268,0.10457545518875122,-0.0234823077917099,-0.03412908315658569,0.8625942001749092,0.07609751159201994,-0.424261443814969,0.26484430886156113
1728065991804851200,2.464851318359375,-0.5427069664001465,-0.058795265853405,-0.1725054532289505,-0.7731830477714539,0.09499943256378174,-0.6270270943641663,0.03894549608230591,-0.25657469034194946,-0.03718799352645874,0.8625886909839237,0.07487305224398559,-0.42530044436819353,0.2635416086010377
1728065991814882300,2.47488232421875,-0.7223821878433228,-0.035754717886447906,-0.22606508433818817,-0.7736052870750427,0.09742740541696548,-0.626133143901825,-0.021179139614105225,-0.328155517578125,0.05980318784713745,0.8630219606106523,0.07258584777557471,-0.42622145456327815,0.26126531985667456
1728065991824912400,2.484912353515625,-0.6196747422218323,-0.13907390832901,-0.2739782929420471,-0.7744360566139221,0.09985345602035522,-0.624722421169281,0.0043708086013793945,-0.23350512981414795,0.10642707347869873,0.8633955585845937,0.07023293865519109,-0.4274413837802816,0.2586682955591602
1728065991834943200,2.494943115234375,-0.20741692185401917,-0.16269919276237488,-0.33667975664138794,-0.7757065892219543,0.10017235577106476,-0.6230930089950562,0.03957688808441162,-0.017851129174232483,0.09104949235916138,0.8636103782838525,0.06922286973140529,-0.4285576961410155,0.2563663396148038
1728065991844973300,2.504973388671875,0.3030892014503479,-0.2857961058616638,-0.34190142154693604,-0.7774650454521179,0.09723128378391266,-0.6213648915290833,0.027312517166137695,0.16850058734416962,-0.0054967403411865234,0.8635383882204474,0.07045181649453504,-0.42936477518190136,0.25491958524667957
1728065991855004400,2.51500439453125,0.6974664926528931,-0.28263726830482483,-0.410229355096817,-0.7796300649642944,0.09110653400421143,-0.6195776462554932,0.00547558069229126,0.22771066427230835,-0.07195073366165161,0.8631928721139549,0.07387444361549425,-0.42982991310532687,0.254335855730271
1728065991865034200,2.5250341796875,0.4917181134223938,-0.3761741518974304,-0.4233504831790924,-0.7819716930389404,0.08383262902498245,-0.6176506876945496,0.003804028034210205,0.12358015775680542,-0.16898572444915771,0.8628191553564382,0.07792850999638766,-0.4302346082009967,0.25370930633269057
1728065991875065300,2.5350654296875,0.07821768522262573,-0.4150572419166565,-0.3369748294353485,-0.784802258014679,0.07908018678426743,-0.6146801710128784,-0.022173941135406494,-0.05729056894779205,-0.10092651844024658,0.8622929725205719,0.08052756630455106,-0.43148025733834827,0.2525687895092649
1728065991885096200,2.54509619140625,-0.5873805284500122,-0.34311166405677795,-0.40678349137306213,-0.78742915391922,0.07764177769422531,-0.6114957928657532,0.011947035789489746,-0.27805066108703613,-0.1191866397857666,0.8620230030351828,0.08078628343284776,-0.43327322365781507,0.2503282359058521
1728065991895126300,2.555126220703125,-1.2857038974761963,-0.29927924275398254,-0.44672104716300964,-0.7896496057510376,0.08005651831626892,-0.6083126664161682,-0.04064202308654785,-0.40688446164131165,-0.1412753462791443,0.8622741687064434,0.07798309310041764,-0.43561714034423693,0.24625079549377654
1728065991905157400,2.565157470703125,-1.5869500637054443,-0.3092373311519623,-0.43166857957839966,-0.7919191122055054,0.08551382273435593,-0.6046085357666016,-0.10044527053833008,-0.33745163679122925,-0.03420066833496094,0.8626693649682299,0.07299176409597306,-0.4385976801449203,0.24105159775282822
1728065991915187500,2.5751875,-1.6627109050750732,-0.2632685601711273,-0.5496641993522644,-0.7941147685050964,0.091475710272789,-0.6008443832397461,-0.07504105567932129,-0.19596782326698303,-0.07719522714614868,0.8631833219243026,0.06736779653620072,-0.4416326458387304,0.23523762087281233
1728065991925218300,2.58521826171875,-1.770836591720581,-0.2543072998523712,-0.6840693950653076,-0.7962003350257874,0.09681607782840729,-0.5972366333007812,-0.0864747166633606,-0.06507772952318192,-0.1239243745803833,0.8639015326165305,0.06162627908046635,-0.44450410388597916,0.22867522360133188
1728065991935248400,2.595248291015625,-1.6675477027893066,-0.23599141836166382,-0.6561493873596191,-0.7983009815216064,0.10186099261045456,-0.5935821533203125,-0.0730520486831665,0.008673742413520813,-0.062271177768707275,0.8646503824552818,0.055814405232530846,-0.4473183233232153,0.22174464408541805
1728065991945279200,2.605279296875,-1.506421685218811,-0.3937416076660156,-0.7067262530326843,-0.8009558916091919,0.10568584501743317,-0.5893217921257019,-0.013664960861206055,0.012798719108104706,-0.03090226650238037,0.8650593246067951,0.05095423938381133,-0.4502696592823587,0.2152518176767327
1728065991955309300,2.615309326171875,-1.5742607116699219,-0.40839672088623047,-0.6722649335861206,-0.8040335774421692,0.10914889723062515,-0.584479570388794,0.05119556188583374,-0.05751309543848038,-0.14496678113937378,0.865292762233921,0.046238745943066546,-0.4534558185458998,0.20858592511505122
1728065991965340400,2.62534033203125,-1.4918808937072754,-0.463088721036911,-0.4791674017906189,-0.8072471618652344,0.11349178850650787,-0.5791990160942078,0.020687222480773926,-0.0698210746049881,-0.06736165285110474,0.8652173665322128,0.04132262173632661,-0.45682920954382256,0.2024803629052407
1728065991975371300,2.635371337890625,-1.3249614238739014,-0.2903420031070709,-0.42988958954811096,-0.810111939907074,0.11812921613454819,-0.5742509961128235,-0.02608489990234375,-0.04320848733186722,-0.03152298927307129,0.8649980712371298,0.03659226008350915,-0.45992990797661704,0.19724057796828995
1728065991985401300,2.6454013671875,-1.1353424787521362,0.03477936610579491,-0.5330913662910461,-0.8113611936569214,0.12128051370382309,-0.5718252658843994,-0.11933332681655884,-0.004627004265785217,-0.07465916872024536,0.8654083367104416,0.03249182775447481,-0.46155351475790385,0.19230480130672883
1728065991995432400,2.655432373046875,-0.9740408062934875,0.1309003084897995,-0.5327123999595642,-0.8114922046661377,0.12292058765888214,-0.5712889432907104,-0.18998783826828003,0.05250977724790573,-0.048553645610809326,0.8663059752625307,0.029067132244403483,-0.4620721051798847,0.18750607158856802
1728065992005462500,2.665462646484375,-0.6895006895065308,0.11984579265117645,-0.4259989857673645,-0.8113667368888855,0.12386230379343033,-0.5712634921073914,-0.11502474546432495,0.11216071248054504,0.06541937589645386,0.8671570228372572,0.026394890147318724,-0.4622462209375035,0.1834945575965597
1728065992015493400,2.675493408203125,-0.30542024970054626,0.16029062867164612,-0.37511929869651794,-0.8111082315444946,0.12355373054742813,-0.5716974139213562,0.010464370250701904,0.12632426619529724,0.07317745685577393,0.8678829278944324,0.02499334832948882,-0.4620894018679688,0.18063207475657367
1728065992025523200,2.685523193359375,0.06857836991548538,0.2846067249774933,-0.3820973038673401,-0.8103249073028564,0.12112194299697876,-0.5733262896537781,0.04904872179031372,0.09659053385257721,0.0200577974319458,0.8687450742871818,0.02517399019696552,-0.46119750337482707,0.17873199842828882
1728065992035554300,2.69555419921875,0.441885769367218,0.4857708513736725,-0.35497406125068665,-0.8086019158363342,0.11667183041572571,-0.5766720771789551,-0.0009378194808959961,0.09481505304574966,0.08366060256958008,0.86990734785527,0.02679082220499168,-0.4592888100925551,0.17775623410942792
1728065992045585400,2.70558544921875,0.9459111094474792,0.7304260730743408,-0.3754252791404724,-0.8054651618003845,0.10974806547164917,-0.5823925137519836,-0.04643285274505615,0.1435784101486206,0.18081170320510864,0.8715359395516394,0.03006921894307451,-0.4559600542984733,0.17782355561949498
1728065992055615200,2.715615234375,1.5066243410110474,0.8631119728088379,-0.38117504119873047,-0.8011372089385986,0.09946464747190475,-0.5901575684547424,-0.047892212867736816,0.2116163671016693,0.19760990142822266,0.8735053849508008,0.035580853331365445,-0.4512817551537162,0.17907302577727796
1728065992065646300,2.725646240234375,2.1555469036102295,0.8763313889503479,-0.3294689953327179,-0.7962694764137268,0.08571751415729523,-0.5988383293151855,-0.007319271564483643,0.27667880058288574,0.24269819259643555,0.875425957095007,0.04360435297770539,-0.4457347922124821,0.18179227345691137
1728065992075676200,2.73567626953125,2.780910015106201,0.8582964539527893,-0.30318838357925415,-0.7912631034851074,0.06828804314136505,-0.607650637626648,0.04907578229904175,0.3282879590988159,0.26460254192352295,0.8770324562395178,0.054350194768206184,-0.43956880724109704,0.1861162654629481
1728065992085707300,2.745707275390625,3.2684288024902344,0.7872073650360107,-0.2878296673297882,-0.7864007353782654,0.047261569648981094,-0.6159060001373291,0.07434940338134766,0.342722624540329,0.19508379697799683,0.878180625051727,0.06761200671212292,-0.43298454951274823,0.1917073925001602
1728065992095737300,2.7557373046875,3.409977674484253,0.6873199939727783,-0.2302318662405014,-0.7819165587425232,0.024318890646100044,-0.6229084730148315,0.06801897287368774,0.3025397062301636,0.08000081777572632,0.8787636727407633,0.08225814352320328,-0.4263558932163426,0.19806202969205214
1728065992105768200,2.765768310546875,3.204745054244995,0.5166311264038086,-0.17752258479595184,-0.7781625986099243,0.0018786723958328366,-0.6280600428581238,0.07029217481613159,0.16267217695713043,-0.024115920066833496,0.8787484379720314,0.0967434750979256,-0.4202507347354082,0.20452674254611986
1728065992115799300,2.77579931640625,2.5818471908569336,0.43162956833839417,-0.23153254389762878,-0.7752190232276917,-0.018111618235707283,-0.6314328908920288,0.07340633869171143,-0.0889134556055069,-0.17623019218444824,0.8784116230003701,0.10954966073913429,-0.4150691969965073,0.2100225375563261
1728065992125829000,2.7858291015625,1.380558729171753,0.37772640585899353,-0.2676524817943573,-0.7725940942764282,-0.03292163088917732,-0.6340460777282715,0.0433003306388855,-0.3766699731349945,-0.307009220123291,0.8783700268639661,0.11853862469700059,-0.4110055258658596,0.21328170479409808
1728065992135860200,2.795860107421875,0.03514445200562477,0.3277776837348938,-0.15446385741233826,-0.7703304290771484,-0.038948725908994675,-0.636454164981842,-0.01897609233856201,-0.5644142627716064,-0.14496368169784546,0.8788845721267621,0.12164680225801588,-0.4086256981736586,0.21398344470910924
1728065992145890300,2.805890380859375,-0.906928300857544,0.38529157638549805,-0.20218664407730103,-0.768040657043457,-0.03719398006796837,-0.6393200755119324,-0.015604913234710693,-0.6182166934013367,0.0455242395401001,0.8800543290491109,0.11953497287022305,-0.4074940079143072,0.21251914914435707
1728065992155921200,2.815921142578125,-1.2958234548568726,0.4978388547897339,-0.36697667837142944,-0.7651142477989197,-0.03206843510270119,-0.6430954337120056,-0.003791332244873047,-0.5376794338226318,0.09239041805267334,0.8819212149506857,0.1146251650412003,-0.40658743529358604,0.20919521724787257
1728065992165951200,2.825951171875,-1.0121469497680664,0.628284752368927,-0.47793835401535034,-0.7614009976387024,-0.027521604672074318,-0.6476967334747314,0.009737908840179443,-0.27425140142440796,0.12248915433883667,0.8841651328134911,0.10958368583479353,-0.4051457288682699,0.20518363005437276
1728065992175982300,2.835982421875,-0.09755460917949677,0.6598101258277893,-0.5780732035636902,-0.7569425106048584,-0.027765247970819473,-0.6528912782669067,0.07754498720169067,0.061563536524772644,0.08306705951690674,0.886364212108442,0.10739519369148431,-0.402517855168116,0.2020000643415768
1728065992186013200,2.84601318359375,0.8687443733215332,0.5046125650405884,-0.5602372288703918,-0.7529243230819702,-0.03482639789581299,-0.657184898853302,0.13639307022094727,0.32100507616996765,-0.012126624584197998,0.8878992223416182,0.10978518375597889,-0.3991926408970726,0.20056727536413857
1728065992196043300,2.856043212890625,1.2717187404632568,0.36606836318969727,-0.42598992586135864,-0.7498897314071655,-0.045843470841646194,-0.6599725484848022,0.1822323203086853,0.47867435216903687,-0.05390995740890503,0.8886366185306159,0.11524193565340234,-0.3958952231221842,0.20077652966193063
1728065992206074000,2.86607421875,1.6774451732635498,0.5238622426986694,-0.28717318177223206,-0.7468339204788208,-0.058120328933000565,-0.6624659895896912,0.13626879453659058,0.5662075281143188,0.019185900688171387,0.8889761031576451,0.12199104778714283,-0.39228204687921914,0.20237215258277097
1728065992216104200,2.876104248046875,1.9794981479644775,0.6604539155960083,-0.33823052048683167,-0.7426064014434814,-0.07274092733860016,-0.6657660007476807,0.004920363426208496,0.47394034266471863,-0.044271230697631836,0.889296498665226,0.13023438530600218,-0.38749967986511036,0.20502344736338962
1728065992226135300,2.88613525390625,1.942945122718811,0.6520644426345825,-0.45637020468711853,-0.7378718256950378,-0.08881399035453796,-0.6690719127655029,-0.12923932075500488,0.23741941154003143,-0.11460429430007935,0.8896626820958794,0.13905172542131375,-0.38226779109582965,0.20745178822487018
1728065992236165400,2.896165283203125,2.038799285888672,0.5905283093452454,-0.4739595949649811,-0.7332111597061157,-0.10578704625368118,-0.6717219352722168,-0.10886025428771973,0.05279334634542465,-0.10640007257461548,0.8899013010433493,0.14824755132175851,-0.3770433646767655,0.20961028346214747
1728065992246196200,2.9061962890625,1.7839053869247437,0.3052305579185486,-0.39214569330215454,-0.72956383228302,-0.12208285182714462,-0.6729282736778259,0.013133227825164795,-0.06225850433111191,-0.13752710819244385,0.8897622088252892,0.1572228288233489,-0.37258132733021077,0.21163031655850476
1728065992256226300,2.916226318359375,1.667036771774292,0.18883030116558075,-0.342055082321167,-0.7276833057403564,-0.13612353801727295,-0.6722702980041504,0.08899623155593872,-0.07243351638317108,-0.039094507694244385,0.889151754937486,0.1652424931479083,-0.36953995081549246,0.2134109781951929
1728065992266257400,2.92625732421875,1.5168635845184326,0.3331350088119507,-0.42454463243484497,-0.7253755927085876,-0.14966925978660583,-0.6718848943710327,0.05992460250854492,-0.0698741227388382,0.0030158162117004395,0.8886878334422407,0.17278872836885406,-0.36633538061096965,0.2148867182044565
1728065992276288300,2.936288330078125,1.08341383934021,0.3504260778427124,-0.4352204501628876,-0.7225279808044434,-0.1613272875547409,-0.6722549200057983,-0.08272403478622437,0.036220550537109375,0.02638089656829834,0.8886071402770492,0.17890174046421947,-0.36313454339086376,0.21564932017054322
1728065992286318300,2.946318359375,1.7911661863327026,0.346836656332016,-0.5733213424682617,-0.7190793752670288,-0.17455503344535828,-0.672648012638092,-0.08302932977676392,0.23610906302928925,0.11690759658813477,0.888572246775901,0.18569622295475732,-0.35943415973357895,0.2162482052284201
1728065992296349200,2.95634912109375,2.240999460220337,0.06603539735078812,-0.5008108615875244,-0.7166849374771118,-0.19227470457553864,-0.6703678369522095,-0.06470227241516113,0.2885119915008545,-0.03437459468841553,0.8875726562795024,0.19557896240272388,-0.35575966863403086,0.21771210652862452
1728065992306379300,2.966379150390625,2.360069751739502,-0.23136885464191437,-0.3392382562160492,-0.7164463400840759,-0.21080473065376282,-0.6650307178497314,0.0377354621887207,0.27080237865448,-0.17139506340026855,0.8855468425802739,0.20670409670704545,-0.3532110471060939,0.21982267712267742
1728065992316410400,2.976410400390625,2.0659797191619873,-0.4293936789035797,-0.06881687790155411,-0.7181639671325684,-0.22725999355316162,-0.657718300819397,0.1267639398574829,0.15066097676753998,-0.0864071249961853,0.8827987584525343,0.21743574388028314,-0.35194112673223465,0.2225429160256739
1728065992326441500,2.98644140625,1.5734161138534546,-0.5722046494483948,0.09689192473888397,-0.721589207649231,-0.23894895613193512,-0.6497787833213806,0.14810293912887573,-0.13812614977359772,-0.01236116886138916,0.8798435294639992,0.22598142312279823,-0.352197378401204,0.22531062453748946
1728065992336472600,2.99647265625,0.7741334438323975,-0.43793657422065735,0.09724586457014084,-0.7252309918403625,-0.24602438509464264,-0.6430490016937256,0.09516513347625732,-0.4829184114933014,0.11288225650787354,0.8774131734711631,0.23171459938853295,-0.35324757878055496,0.22731154141033727
1728065992346503400,3.00650341796875,-0.35072454810142517,-0.24179129302501678,0.08560411632061005,-0.7276076674461365,-0.24671776592731476,-0.6400917768478394,-0.01471710205078125,-0.6973587274551392,0.1804511547088623,0.8764772144780767,0.23285095919276702,-0.3545906720685391,0.22767004453328202
1728065992356533500,3.016533447265625,-0.9227432012557983,-0.07887913286685944,0.14617612957954407,-0.7288658618927002,-0.24148614704608917,-0.6406551599502563,-0.04939335584640503,-0.6523736715316772,0.2725673317909241,0.8768700979171724,0.22981049794644612,-0.3561734887971275,0.2267739892272635
1728065992366564600,3.026564697265625,-1.1437194347381592,-0.14735431969165802,0.21526145935058594,-0.7299306392669678,-0.2335905134677887,-0.642367959022522,0.03016263246536255,-0.5253968238830566,0.23523294925689697,0.877652140536667,0.22510681528503762,-0.3579705677460117,0.22563369028217334
1728065992376594400,3.036594482421875,-1.6280796527862549,-0.2286805659532547,0.3407977819442749,-0.7318134903907776,-0.2226751297712326,-0.6441000699996948,0.12416279315948486,-0.3814049959182739,0.24898886680603027,0.8785259830302315,0.21875807429228142,-0.36068668247476965,0.22414768715252714
1728065992386625500,3.04662548828125,-2.363792657852173,-0.34540849924087524,0.47371670603752136,-0.7345738410949707,-0.20691199600696564,-0.6462109088897705,0.17541563510894775,-0.244290292263031,0.3592694401741028,0.8796600049624005,0.20964509823818175,-0.3646141315777257,0.22204407270555931
1728065992396655600,3.056655517578125,-3.0477566719055176,-0.3894229829311371,0.47363972663879395,-0.7379407286643982,-0.18553371727466583,-0.6488609910011292,0.16939836740493774,-0.1808602511882782,0.3503074645996094,0.8812272521874847,0.19707613016925124,-0.3697708904218498,0.21878952592781117
1728065992406686500,3.0666865234375,-3.2684123516082764,-0.41347530484199524,0.17948082089424133,-0.7411825656890869,-0.16227461397647858,-0.6513949036598206,0.11207801103591919,-0.11163583397865295,0.17490863800048828,0.8831300744522007,0.18281066342600277,-0.3753435999939391,0.21395938521697358
1728065992416717600,3.076717529296875,-3.2495174407958984,-0.3105233311653137,0.005018997471779585,-0.7437041401863098,-0.14026625454425812,-0.6536280512809753,-0.01404726505279541,0.05866232514381409,-0.053525328636169434,0.8852514858793895,0.168506134434193,-0.3805149993515984,0.207711069230807
1728065992426747600,3.08674755859375,-2.3153154850006104,-0.1422048807144165,0.25284504890441895,-0.7453699707984924,-0.12064938247203827,-0.655642569065094,-0.10579568147659302,0.39114201068878174,-0.1020936369895935,0.8870237953740768,0.15580840596656992,-0.3845808778407571,0.20250895534686242
1728065992436778500,3.096778564453125,-0.8515393733978271,-0.01145225577056408,0.5759104490280151,-0.7462748289108276,-0.10728120058774948,-0.6569358110427856,-0.09726148843765259,0.6424070000648499,-0.1416940689086914,0.8876482902969639,0.14816663651036752,-0.38675412338764653,0.20136633768873913
1728065992446808600,3.10680859375,-0.20765040814876556,-0.015480553731322289,0.5958567261695862,-0.7469468116760254,-0.09965763241052628,-0.6573725938796997,-0.06382888555526733,0.6503626704216003,-0.35156911611557007,0.88736924381756,0.14490459651513263,-0.38770653754536966,0.20313061437779056
1728065992456839700,3.116839599609375,-0.14749419689178467,-0.0861833244562149,0.5314918160438538,-0.7478308081626892,-0.09430480748414993,-0.6571571826934814,-0.05893176794052124,0.5235193967819214,-0.18042826652526855,0.886816292391981,0.1430989549351851,-0.3885152534045431,0.2052688516218118
1728065992466869500,3.126869384765625,-0.21274776756763458,-0.18259215354919434,0.42000845074653625,-0.7491546273231506,-0.08956421166658401,-0.656312108039856,-0.02228391170501709,0.2966413199901581,0.06147867441177368,0.8861766017723804,0.1415441046039371,-0.3896270213988436,0.20699531108554897
1728065992476900600,3.136900634765625,-0.34921640157699585,-0.2367081195116043,0.2928992509841919,-0.7508525848388672,-0.08503313362598419,-0.6549730896949768,0.005842328071594238,0.07691553235054016,0.06909656524658203,0.8855954943517865,0.13980882387675697,-0.3911098768789331,0.20786357428662616
1728065992486931500,3.146931396484375,-0.3925979733467102,-0.2770281136035919,0.2960793375968933,-0.7528087496757507,-0.08036427199840546,-0.653315007686615,-0.04592770338058472,0.014873623847961426,0.038111090660095215,0.8850397341842215,0.137836640464259,-0.3928658075894263,0.20823590958012456
1728065992496961500,3.15696142578125,-0.4757179021835327,-0.29316768050193787,0.2894136905670166,-0.7549129128456116,-0.07529917359352112,-0.6514879465103149,-0.08935576677322388,0.027356140315532684,-0.058488309383392334,0.8844607791275582,0.13563521771761175,-0.3947899807539857,0.2085018522304565
1728065992506992600,3.16699267578125,-0.6099073886871338,-0.29685908555984497,0.3420761227607727,-0.7570659518241882,-0.06945230811834335,-0.6496363878250122,-0.12203854322433472,0.03756152093410492,-0.1819218397140503,0.8839135681271921,0.1329477813345541,-0.3968711364488577,0.20860220625062825
1728065992517022700,3.177022705078125,-0.7355225682258606,-0.2110200673341751,0.44291457533836365,-0.7590965628623962,-0.062026310712099075,-0.6480162739753723,-0.13148260116577148,0.023711565881967545,-0.22802138328552246,0.8833994091291542,0.12944209407511964,-0.3990446235024794,0.20883858316039972
1728065992527053600,3.187053466796875,-0.9214304089546204,-0.04694271460175514,0.40452510118484497,-0.7601738572120667,-0.05331592261791229,-0.6475284695625305,-0.08542239665985107,-0.028104905039072037,-0.22528958320617676,0.8832193840820384,0.12502264422675927,-0.4007556523602175,0.20901629670971866
1728065992537083400,3.19708349609375,-1.0649036169052124,-0.08841079473495483,0.2979256808757782,-0.7607041597366333,-0.0441298633813858,-0.6475969552993774,-0.026374638080596924,-0.04359284043312073,-0.11262649297714233,0.8833600013670021,0.1199273538483244,-0.4022672617283451,0.20850341147645016
1728065992547114500,3.207114501953125,-0.9706224203109741,-0.17104974389076233,0.28982436656951904,-0.7617329359054565,-0.03520127013325691,-0.6469342112541199,0.07847493886947632,0.008803635835647583,0.0820232629776001,0.8833876809778956,0.11489467343186172,-0.40414368937936146,0.2075892978816923
1728065992557145600,3.2171455078125,-0.5987009406089783,-0.21107551455497742,0.30701079964637756,-0.7629894018173218,-0.027714719995856285,-0.6458166241645813,0.17792171239852905,0.1049547791481018,0.14117789268493652,0.8831620657288982,0.1109299014062455,-0.4059387332795284,0.20720299486895977
1728065992567175400,3.227175537109375,-0.1727142035961151,-0.29620081186294556,0.27848780155181885,-0.7647557258605957,-0.02299380861222744,-0.6439098119735718,0.19003355503082275,0.18307383358478546,0.08620113134384155,0.8825356931047171,0.10890726792542683,-0.40765707040232424,0.20757065954660625
1728065992577206500,3.23720654296875,0.1262778341770172,-0.24903002381324768,0.26129019260406494,-0.7666118144989014,-0.020853998139500618,-0.6417720913887024,0.14466363191604614,0.19155414402484894,0.027346372604370117,0.8816886270741555,0.1086001898724226,-0.4090476224159861,0.20859320281269297
1728065992587236400,3.247236328125,0.100922130048275,-0.1969119757413864,0.2349720448255539,-0.768105685710907,-0.01975921168923378,-0.6400181651115417,0.07930874824523926,0.14083777368068695,-0.009502768516540527,0.8808906056679795,0.10890106362683855,-0.4100383877489319,0.20985917517211247
1728065992597267500,3.257267333984375,-0.06202850490808487,-0.12247209250926971,0.21103768050670624,-0.7691816687583923,-0.018151411786675453,-0.6387723088264465,0.01678609848022461,0.06478234380483627,0.0007717609405517578,0.880315684894406,0.1086857493403634,-0.41085427922743883,0.21078535289693315
1728065992607297500,3.267297607421875,-0.19398386776447296,-0.09983255714178085,0.17645440995693207,-0.7698898911476135,-0.01583470031619072,-0.6379802227020264,-0.0139540433883667,-0.01610187254846096,0.016169250011444092,0.8799561740729003,0.10784446152725342,-0.4115573564844532,0.21134611797192504
1728065992617328400,3.277328369140625,-0.3891086280345917,-0.08998578786849976,0.15563887357711792,-0.7705703973770142,-0.012690904550254345,-0.6372285485267639,0.001985311508178711,-0.08830694854259491,-0.01685476303100586,0.8797268261828799,0.10632136990726555,-0.4124093799940832,0.21141204176756162
1728065992627358500,3.2873583984375,-0.4785759150981903,-0.08936820179224014,0.1707128882408142,-0.7711226344108582,-0.008605103008449078,-0.6366285085678101,0.01570582389831543,-0.07914812117815018,-0.0035082101821899414,0.8796175969301151,0.1041146677088343,-0.41333506342101195,0.21115687961775167
1728065992637389300,3.297389404296875,-0.46024513244628906,-0.09282935410737991,0.2032492607831955,-0.7717457413673401,-0.004129310604184866,-0.6359178423881531,0.019823193550109863,-0.025198008865118027,0.0309830904006958,0.8794603994630023,0.10174522736329936,-0.41435369562851426,0.21097010559389806
1728065992647420400,3.30742041015625,-0.4329370856285095,-0.04733110964298248,0.15990978479385376,-0.7722103595733643,0.0001471442956244573,-0.6353669166564941,0.015557646751403809,0.018422873690724373,0.054724156856536865,0.8793382074246751,0.09947186629351167,-0.41523714623409624,0.21082647720097855
1728065992657450500,3.317450439453125,-0.36300745606422424,-0.01775697059929371,0.1455971598625183,-0.7724032402038574,0.003897052025422454,-0.6351203918457031,-0.021953999996185303,0.05922862887382507,0.08685684204101562,0.8793143647875201,0.09740379928971632,-0.41587533923845954,0.21063303747049167
1728065992667481300,3.3274814453125,-0.2437225878238678,-0.0052068233489990234,0.1476280838251114,-0.7724984884262085,0.007011353969573975,-0.6349779367446899,-0.03742283582687378,0.0845261961221695,0.11332565546035767,0.8792694011916815,0.09575892339970656,-0.4163427113331494,0.21065234421108073
1728065992677511400,3.337511474609375,-0.13530777394771576,-0.011395158246159554,0.11258193850517273,-0.772515594959259,0.00923282653093338,-0.6349286437034607,-0.01714193820953369,0.09065127372741699,0.10206115245819092,0.8792114647912596,0.09465602875250949,-0.41662442555354984,0.21083516406652622
1728065992687542500,3.34754248046875,-0.023123182356357574,-0.05338441953063011,0.10674402862787247,-0.7726972699165344,0.010568690486252308,-0.6346867084503174,-0.0112076997756958,0.08835411071777344,0.09676855802536011,0.8790736338873291,0.09411188773713262,-0.41689279577137406,0.2111229202580527
1728065992697572400,3.357572265625,0.04751276969909668,-0.10993872582912445,0.13097773492336273,-0.773239016532898,0.01136426068842411,-0.6340128183364868,0.007278323173522949,0.07042291760444641,0.08492523431777954,0.8787539636604852,0.09404681345777334,-0.4173113703288852,0.21165524533313484
1728065992707603500,3.367603515625,0.044356927275657654,-0.16092760860919952,0.10712006688117981,-0.7740792632102966,0.012018498033285141,-0.6329745650291443,0.02435404062271118,0.03647400438785553,0.04096400737762451,0.8783226590755482,0.09413351514732297,-0.41791338572836323,0.21221825195611085
1728065992717634600,3.377634521484375,0.017256196588277817,-0.1760440170764923,0.14725416898727417,-0.7751437425613403,0.012755505740642548,-0.6316561698913574,0.003918826580047607,0.011658627539873123,0.026446759700775146,0.8778195167654028,0.09420610793046644,-0.4186850063029329,0.21274636462723878
1728065992727664400,3.387664306640625,-0.047551561146974564,-0.17636440694332123,0.1986055076122284,-0.77623051404953,0.014287122525274754,-0.6302872896194458,-0.02328413724899292,-0.007542667910456657,0.038841307163238525,0.8772661373482727,0.09392746144130311,-0.4195640592459219,0.21341900161207827
1728065992737695500,3.397695556640625,-0.02997063845396042,-0.1629539430141449,0.1552460491657257,-0.7773011326789856,0.015994897112250328,-0.6289253830909729,-0.038769304752349854,-0.017505446448922157,0.07402420043945312,0.8767253272042648,0.09353079424914133,-0.42046319217860095,0.2140455245720655
1728065992747725600,3.4077255859375,0.12189718335866928,-0.15882977843284607,0.14037735760211945,-0.7782636284828186,0.01690698228776455,-0.6277100443840027,-0.05602586269378662,-0.010879691690206528,0.07187807559967041,0.8762207801696462,0.0935498166874539,-0.42118095393752397,0.21469105780034228
1728065992757756400,3.41775634765625,0.3573206961154938,-0.226767435669899,0.18753156065940857,-0.77944016456604,0.016686467453837395,-0.6262543201446533,-0.022851645946502686,0.015082400292158127,0.05298161506652832,0.8755298309218456,0.09445178265053013,-0.42184320087739774,0.21581143525139082
1728065992767786500,3.427786376953125,0.5473244190216064,-0.38299861550331116,0.22866913676261902,-0.7813096046447754,0.015480294823646545,-0.6239515542984009,0.04194509983062744,0.04969006031751633,0.03297865390777588,0.8744409693547353,0.09633193405183084,-0.4227817180465661,0.21755135892647784
1728065992777817600,3.437817626953125,0.6519834399223328,-0.4298977851867676,0.2610262632369995,-0.7838605046272278,0.013526041992008686,-0.6207895278930664,0.061295926570892334,0.09264468401670456,-0.004134178161621094,0.8729941795288061,0.09897638001580641,-0.4240387948188128,0.21971769049440665
1728065992787848400,3.447848388671875,0.41954323649406433,-0.44087186455726624,0.3856496810913086,-0.7865277528762817,0.012674912810325623,-0.617424726486206,0.0008223056793212891,0.10791536420583725,-0.02381056547164917,0.871429425031223,0.10116876512957873,-0.4255026503161542,0.22208767672575444
1728065992797878500,3.45787841796875,0.26024410128593445,-0.37716397643089294,0.3607635200023651,-0.7890218496322632,0.013704672455787659,-0.6142123341560364,-0.05143219232559204,0.09148948639631271,0.0263826847076416,0.8699524106888162,0.10222782620017917,-0.4271338349134831,0.22425214781331002
1728065992807909400,3.467909423828125,0.3243817985057831,-0.3538946211338043,0.26159512996673584,-0.7911919355392456,0.014425346627831459,-0.6113977432250977,-0.10497194528579712,0.05330848693847656,0.04175657033920288,0.8686827705983995,0.10320304863842078,-0.42854434515486706,0.22602884520668345
1728065992817939500,3.477939453125,0.4328169822692871,-0.4093708395957947,0.24147920310497284,-0.7934685349464417,0.014043277129530907,-0.6084491610527039,-0.10567080974578857,0.014231327921152115,-0.020991206169128418,0.8673916653666008,0.10476381136036843,-0.42988366449066434,0.22771950504888175
1728065992827970600,3.487970458984375,0.44501158595085144,-0.5318539142608643,0.23501013219356537,-0.7962964773178101,0.013313278555870056,-0.604759931564331,-0.01537942886352539,0.023445211350917816,-0.036353349685668945,0.8658680172451889,0.10667745042978091,-0.4315552658760944,0.2294612984833037
1728065992838000600,3.498000732421875,0.5486979484558105,-0.5931136012077332,0.22801001369953156,-0.799734890460968,0.012188723310828209,-0.6002295613288879,0.05243575572967529,0.07905890047550201,-0.040273427963256836,0.8640925024763645,0.10896937377065426,-0.4336022178632989,0.23121187216758823
1728065992848031500,3.508031494140625,0.6575565338134766,-0.5536609888076782,0.19579561054706573,-0.8032085299491882,0.010332806967198849,-0.5956084132194519,0.030427217483520508,0.11501821130514145,-0.05026566982269287,0.8622320012913854,0.1117825570714702,-0.4355461383444994,0.23315302867096616
1728065992858062600,3.5180625,0.7217515707015991,-0.4553358554840088,0.09495474398136139,-0.8061878085136414,0.007398213725537062,-0.5916134119033813,-0.030131042003631592,0.09988640248775482,-0.04774516820907593,0.8605670458362108,0.11503907309065448,-0.43698892221902175,0.2350126901399746
1728065992868092400,3.528092529296875,0.7689694166183472,-0.43748363852500916,0.012361865490674973,-0.8087687492370605,0.003399749519303441,-0.5881168842315674,-0.0627216100692749,0.05826108530163765,0.0026218295097351074,0.8591088077681172,0.11866412958576411,-0.4380187075243915,0.2366229383921421
1728065992878123500,3.53812353515625,0.7483351230621338,-0.5040921568870544,-0.00038508931174874306,-0.8115344047546387,-0.0010426411172375083,-0.5843037366867065,-0.017414450645446777,0.02489219605922699,0.06381106376647949,0.85760794144176,0.12249391006613249,-0.43913936811615856,0.23803474956069778
1728065992888153600,3.548153564453125,0.6553202271461487,-0.5304702520370483,-0.00738973543047905,-0.8145951628684998,-0.00515991123393178,-0.5800070762634277,0.04819190502166748,0.029284123331308365,0.06741845607757568,0.8560165626125635,0.12614288340988145,-0.4405501515484213,0.23924731725652357
1728065992898184400,3.558184326171875,0.49146413803100586,-0.49675697088241577,0.028975198045372963,-0.8175734877586365,-0.008450552821159363,-0.5757620930671692,0.039299070835113525,0.051373593509197235,0.04094153642654419,0.8544994666487127,0.1292254504646107,-0.44206303628774485,0.24023225982579252
1728065992908214500,3.568214599609375,0.3600118160247803,-0.400282084941864,0.018885012716054916,-0.8202131986618042,-0.010584311559796333,-0.5719600915908813,-0.027839720249176025,0.039850737899541855,0.03611713647842407,0.8531695036133415,0.13149389251347288,-0.44354177575226117,0.24100192820485697
1728065992918245600,3.57824560546875,0.3018505275249481,-0.29162755608558655,-0.0418049693107605,-0.8221611380577087,-0.01256477925926447,-0.5691161751747131,-0.08157116174697876,0.005103297531604767,0.029458463191986084,0.8522067382467716,0.1333394117605595,-0.4445925093676935,0.24145785914297138
1728065992928275700,3.588275634765625,0.2866891324520111,-0.3275144696235657,-0.08964359760284424,-0.8238833546638489,-0.014771428890526295,-0.5665667653083801,-0.09155231714248657,-0.009489976800978184,0.023399651050567627,0.8514117180354421,0.1351012598949715,-0.4454932742675884,0.24162223667539953
1728065992938306600,3.598306640625,0.2815268635749817,-0.4188057482242584,-0.10977309942245483,-0.8259913921356201,-0.017191151157021523,-0.5634204745292664,-0.015500247478485107,0.010507868602871895,0.019215703010559082,0.8505033578715293,0.13697698948979892,-0.44668454055248125,0.2415660369193292
1728065992948337700,3.608337646484375,0.20650695264339447,-0.45717549324035645,-0.10194127261638641,-0.8284692168235779,-0.019515780732035637,-0.5596944093704224,0.05037790536880493,0.03675828129053116,-0.028974413871765137,0.8494661790896977,0.1388328749470132,-0.4481944074901723,0.2413594182505044
1728065992958367500,3.618367431640625,0.08238426595926285,-0.38371577858924866,-0.08679933845996857,-0.8308568000793457,-0.021109791472554207,-0.5560855865478516,0.02998417615890503,0.04572228714823723,-0.05794340372085571,0.8485083272680511,0.14018518153725032,-0.44978365364145123,0.24099007974702283
1728065992968398600,3.628398681640625,-0.07081087678670883,-0.3244156837463379,-0.07199722528457642,-0.8327869176864624,-0.021770449355244637,-0.5531653761863708,-0.025519907474517822,0.03536609560251236,-0.059963345527648926,0.8478079654958014,0.14079635131753993,-0.45121359817932327,0.2404250315179531
1728065992978428700,3.6384287109375,-0.13186191022396088,-0.31979623436927795,-0.0711255744099617,-0.8345605731010437,-0.02174285426735878,-0.5504868030548096,-0.03891336917877197,0.02726660668849945,-0.044926464557647705,0.8472395159962212,0.14087022384050163,-0.45267227895707624,0.239642226249505
1728065992988459500,3.64845947265625,-0.07861652970314026,-0.3334619700908661,-0.08393697440624237,-0.8363295793533325,-0.021792279556393623,-0.5477936863899231,0.01232445240020752,0.048266343772411346,-0.057781994342803955,0.8466689811223906,0.14097918224151626,-0.45412337385722373,0.23884822343397344
1728065992998489600,3.658489501953125,0.03746985271573067,-0.30457037687301636,-0.10107068717479706,-0.8381702303886414,-0.022397678345441818,-0.5449486970901489,0.07864880561828613,0.06977628171443939,-0.06988906860351562,0.8460282146740684,0.14146160362517926,-0.4555373502365166,0.23814000944125907
1728065993008520700,3.668520751953125,-0.3350834846496582,-0.16369153559207916,-0.0917874425649643,-0.8391693830490112,-0.022599991410970688,-0.5434002876281738,0.12829309701919556,0.08761776238679886,-0.04964786767959595,0.8457971813500887,0.14142665455936704,-0.4563971620027247,0.23733335490596202
1728065993018551600,3.678551513671875,0.3991681933403015,-0.6937201619148254,-0.1891091912984848,-0.8414122462272644,-0.023938801139593124,-0.539863109588623,0.24215400218963623,0.1520363986492157,0.10901588201522827,0.8449811002367107,0.14237152985305745,-0.45803799315271576,0.23651280632925484
1728065993028581600,3.68858154296875,0.36300113797187805,-0.6285880208015442,-0.2880491018295288,-0.8450016379356384,-0.028225289657711983,-0.5340183973312378,0.3127751350402832,0.1263088583946228,-0.009164094924926758,0.8433924354171355,0.14551959669028158,-0.4602334862737456,0.23600517033656118
1728065993038612500,3.698612548828125,-0.006309515796601772,-0.5754233002662659,-0.24281343817710876,-0.8481512665748596,-0.03134417161345482,-0.5288258790969849,0.16373366117477417,0.05829126015305519,-0.2365550398826599,0.8421929165628806,0.14751901828565017,-0.46241237233793847,0.23478477822429786
1728065993048642300,3.708642333984375,0.052319709211587906,-0.3960634171962738,-0.1797439157962799,-0.8507204651832581,-0.0333443321287632,-0.5245596766471863,-0.08154571056365967,0.05347074195742607,-0.053351759910583496,0.8412533969419992,0.14875495311496814,-0.46431899712836733,0.2336075929983118
1728065993058673700,3.718673583984375,-0.0037717893719673157,-0.13672107458114624,-0.11740465462207794,-0.8519732356071472,-0.03463433310389519,-0.5224384069442749,-0.14457809925079346,0.021664433181285858,-0.23157471418380737,0.8408263599060245,0.1494467739710818,-0.4652380762747473,0.23287350360987627
1728065993068703500,3.728703369140625,0.12307802587747574,-0.17827410995960236,-0.1254069209098816,-0.8526895046234131,-0.03587235510349274,-0.5211849808692932,-0.04130756855010986,0.04727074131369591,-0.13199806213378906,0.8405850156363087,0.15009228426710777,-0.46570356233716836,0.23239922449861974
1728065993078734300,3.738734375,0.23767206072807312,-0.35396844148635864,-0.20001590251922607,-0.8540393114089966,-0.03822433575987816,-0.518802285194397,0.13330578804016113,0.03927725926041603,0.006824016571044922,0.8399903856875786,0.15158850784329642,-0.46649736436302813,0.2319857092676737
1728065993088765700,3.748765625,0.2522400915622711,-0.4063403010368347,-0.2228863388299942,-0.8559635281562805,-0.0412960946559906,-0.5153844952583313,0.2175358533859253,-0.003274761140346527,0.05844473838806152,0.8391514984763936,0.15353878006902494,-0.4676896326988637,0.231337712923253
1728065993098795500,3.75879541015625,0.414407342672348,-0.14659163355827332,-0.15418130159378052,-0.8574991226196289,-0.04464510828256607,-0.5125446319580078,0.14265543222427368,-0.02704061195254326,0.07934761047363281,0.8383783648587873,0.15574618774354332,-0.4684771016976244,0.2310714421927886
1728065993108826400,3.768826416015625,0.3226633071899414,0.23504039645195007,-0.05410477891564369,-0.8571013808250427,-0.047339990735054016,-0.5129678249359131,0.004379332065582275,-0.07106813788414001,0.015531301498413086,0.8383737286866852,0.15740354213960028,-0.4676967038922066,0.23154535448944719
1728065993118856400,3.7788564453125,0.417467325925827,0.13880819082260132,-0.04062145948410034,-0.856043815612793,-0.04955529794096947,-0.514522135257721,-0.015354931354522705,-0.10547392070293427,0.15070682764053345,0.8386098199254967,0.15877878014929883,-0.4663992191730895,0.23236701696002302
1728065993128887300,3.78888720703125,0.34801262617111206,0.08347728848457336,-0.022601976990699768,-0.8555167317390442,-0.05194742605090141,-0.5151625871658325,0.12986987829208374,-0.14923962950706482,0.20473778247833252,0.8385497238325259,0.16046346945812776,-0.46547842956491975,0.23327157326781703
1728065993138917400,3.79891748046875,0.16828398406505585,0.10741079598665237,0.04150909557938576,-0.8549997806549072,-0.05316542461514473,-0.5158960223197937,0.1967204213142395,-0.1839713454246521,0.11175167560577393,0.8385775832829666,0.16136722684569244,-0.4647715754784244,0.23395627412003048
1728065993148948500,3.808948486328125,0.03552541509270668,0.24809813499450684,0.1287451982498169,-0.8542050719261169,-0.05298738554120064,-0.5172290205955505,0.112948477268219,-0.2012850046157837,0.17184633016586304,0.8387670077502016,0.16143004363207067,-0.46403213197016197,0.23470034678150975
1728065993158978600,3.818978515625,-0.1766899675130844,0.494846373796463,0.22617055475711823,-0.8523258566856384,-0.0510982945561409,-0.5205090641975403,0.020035266876220703,-0.21635769307613373,0.08567929267883301,0.8394935079524869,0.1602757557510061,-0.46266311734841237,0.23559541669205086
1728065993169009400,3.829009521484375,-0.32398009300231934,0.5442471504211426,0.2883918285369873,-0.849668562412262,-0.047490186989307404,-0.5251743793487549,-0.0029162168502807617,-0.20092283189296722,0.08993256092071533,0.8406202191242534,0.15794294925702285,-0.46094125980366835,0.23652675883349566
1728065993179040500,3.83904052734375,-0.332838237285614,0.5234545469284058,0.2992732524871826,-0.8469948768615723,-0.04317425563931465,-0.5298449993133545,0.09261560440063477,-0.15802806615829468,0.15981924533843994,0.84175614658299,0.15520356730732296,-0.45933576844835844,0.23742202581613864
1728065993189070300,3.8490703125,-0.22183369100093842,0.5615875124931335,0.2946273684501648,-0.8442240953445435,-0.03916016221046448,-0.5345579385757446,0.18978995084762573,-0.08794547617435455,0.14252901077270508,0.8428670658853576,0.1526852627704644,-0.4576114618600218,0.23844091916344137
1728065993199101400,3.859101318359375,-0.1738724261522293,0.5594717264175415,0.31088197231292725,-0.8413110971450806,-0.03560759872198105,-0.5393772125244141,0.21571606397628784,-0.04460778832435608,0.10474580526351929,0.8439326855292459,0.15053530147436697,-0.4556868543940694,0.23972133753667868
1728065993209131500,3.869131591796875,-0.2466624677181244,0.5897649526596069,0.3375471532344818,-0.8383138179779053,-0.03175220638513565,-0.5442625284194946,0.20525723695755005,-0.03663761541247368,0.08796364068984985,0.8450041968936404,0.14822345424441294,-0.45376043644532227,0.2410376234409371
1728065993219162400,3.879162353515625,-0.24437886476516724,0.6119571328163147,0.35486355423927307,-0.835099458694458,-0.027460986748337746,-0.54941326379776,0.17283743619918823,-0.03007984161376953,0.08131927251815796,0.8461393604271517,0.14564160355633057,-0.4517542513949353,0.24239417650149492
1728065993229192400,3.8891923828125,-0.2768630385398865,0.5943483114242554,0.3526131808757782,-0.8318655490875244,-0.023062484338879585,-0.5544977784156799,0.1476309895515442,-0.03554645925760269,0.045662879943847656,0.8472506645452049,0.14301000456786742,-0.4497768851635812,0.24375214233567502
1728065993239223600,3.8992236328125,-0.30242371559143066,0.5932544469833374,0.36968669295310974,-0.8286504149436951,-0.01843779720366001,-0.5594626069068909,0.12934023141860962,-0.030420776456594467,0.006087362766265869,0.8483463485337781,0.1402315287798403,-0.4478881635939601,0.2450299335130901
1728065993249254400,3.90925439453125,-0.2582749128341675,0.6244078278541565,0.37920376658439636,-0.8252926468849182,-0.01372841838747263,-0.5645384192466736,0.10777866840362549,-0.006550445221364498,-0.006857514381408691,0.8494370096069513,0.13744341257191411,-0.4459148853482625,0.24642665198257235
1728065993259284500,3.919284423828125,-0.1870720386505127,0.6316806077957153,0.35498178005218506,-0.8217524886131287,-0.00942002423107624,-0.5697667002677917,0.10437583923339844,0.0036522680893540382,-0.022045493125915527,0.8505400173451623,0.13488759003352183,-0.4437589348992625,0.2479212755162806
1728065993269315600,3.929315673828125,-0.1715836226940155,0.5934700965881348,0.3561173677444458,-0.818271279335022,-0.005498152691870928,-0.5748058557510376,0.1212347149848938,0.0044301045127213,-0.015144765377044678,0.8515711481407235,0.13259196184511582,-0.4416066696892668,0.24945821770746313
1728065993279345400,3.939345458984375,-0.16835442185401917,0.5859106779098511,0.37492406368255615,-0.8148725628852844,-0.0014787729596719146,-0.5796383619308472,0.1363447904586792,0.005537677090615034,0.03320580720901489,0.8525296702858199,0.13029073007207312,-0.43955107153599404,0.2510227679873133
1728065993289376500,3.94937646484375,-0.037685081362724304,0.5682869553565979,0.3804810345172882,-0.8114979267120361,0.002275290200486779,-0.5843508243560791,0.11833703517913818,0.013609175570309162,0.05097973346710205,0.8533931911403826,0.12824496795170479,-0.43746751497430997,0.2527754032870511
1728065993299406600,3.959406494140625,0.0686010792851448,0.5943357944488525,0.389723002910614,-0.8080913424491882,0.005239618476480246,-0.589033842086792,0.06521731615066528,0.005990915931761265,0.0023180246353149414,0.8541460696211141,0.12678847277802105,-0.4352100359200136,0.25485553134836936
1728065993309437400,3.9694375,0.027177205309271812,0.668048083782196,0.42230623960494995,-0.8042840957641602,0.008244767785072327,-0.5941877365112305,-0.001257777214050293,-0.008794018998742104,-0.06854724884033203,0.8549774208654721,0.1252947521217812,-0.43267464761313934,0.25711367266645796
1728065993319468500,3.979468505859375,-0.01336183212697506,0.6818998456001282,0.4388071894645691,-0.8001949787139893,0.011702723801136017,-0.599625825881958,-0.05011624097824097,-0.021422507241368294,-0.029036343097686768,0.8558790913830221,0.1234961590364118,-0.4300416151305431,0.2593915059014889
1728065993329498600,3.98949853515625,-0.030022569000720978,0.7040949463844299,0.44907206296920776,-0.7959541082382202,0.015360405668616295,-0.6051621437072754,-0.04742962121963501,-0.04506920278072357,-0.011735498905181885,0.8567987670773265,0.12156116884690746,-0.427366128889846,0.26168115509217577
1728065993339529500,3.999529541015625,-0.09052466601133347,0.6878373026847839,0.47066789865493774,-0.791607677936554,0.0193919837474823,-0.6107219457626343,-0.01288139820098877,-0.053647901862859726,-0.003688514232635498,0.8577242540279597,0.1193953164824918,-0.4247161151758396,0.2639510176484522
1728065993349559600,4.0095595703125,-0.09912880510091782,0.6517330408096313,0.494023859500885,-0.7873860597610474,0.02382568083703518,-0.6159995794296265,0.040834665298461914,-0.024588558822870255,0.02220374345779419,0.8585629993319498,0.11705224409964503,-0.4222546532986494,0.26621273576764964
1728065993359590700,4.019590576171875,-0.06488847732543945,0.6543920040130615,0.5174921154975891,-0.783206582069397,0.02834298647940159,-0.6211152672767639,0.06909537315368652,0.014839449897408485,0.01999521255493164,0.8593058394320224,0.11474912212087779,-0.4198511864178339,0.2686096587864338
1728065993369620500,4.029620361328125,-0.12212034314870834,0.6209989190101624,0.5193228125572205,-0.779039204120636,0.03293883427977562,-0.6261094212532043,0.05963313579559326,0.029744334518909454,0.00512242317199707,0.8599952406832244,0.11243023011059221,-0.4174981927233832,0.27104040677894065
1728065993379651600,4.039651611328125,-0.20127926766872406,0.5396864414215088,0.5440667867660522,-0.7752161622047424,0.038147587329149246,-0.6305431723594666,0.03461563587188721,0.030181333422660828,-0.006129860877990723,0.8605699673702469,0.10980087954860462,-0.4155384385507554,0.2732963366956278
1728065993389682400,4.049682373046875,-0.22351160645484924,0.5634245276451111,0.5545151233673096,-0.7715401649475098,0.04377837851643562,-0.6346724629402161,0.0038858652114868164,0.013365846127271652,-0.039125144481658936,0.8610535116979577,0.10699125368574205,-0.4137833138886335,0.275541278279233
1728065993399712500,4.05971240234375,-0.28619349002838135,0.6265429854393005,0.5330202579498291,-0.7674692273139954,0.04960138350725174,-0.6391639709472656,-0.05325514078140259,-0.030222661793231964,-0.09879684448242188,0.8616707400707286,0.10393694837328481,-0.4118435697166777,0.277678533659629
1728065993409743600,4.06974365234375,-0.2855525016784668,0.6451614499092102,0.5086552500724792,-0.7631010413169861,0.055478375405073166,-0.6438935399055481,-0.10057687759399414,-0.05535624176263809,-0.05131220817565918,0.8624028088013953,0.10071325929348406,-0.40976832574322664,0.2796570106597111
1728065993419773700,4.079773681640625,-0.3115559220314026,0.6601834893226624,0.4918549656867981,-0.7585464119911194,0.06119464337825775,-0.648739218711853,-0.061415016651153564,-0.047385383397340775,0.001934349536895752,0.8631948747956444,0.0974911308534776,-0.4075854284809965,0.28153893367392047
1728065993429804500,4.089804443359375,-0.3056711256504059,0.5841321349143982,0.5050541162490845,-0.7541505694389343,0.06706170737743378,-0.6532683968544006,0.0046694278717041016,0.0011451467871665955,-0.005743503570556641,0.8639112178670472,0.09421273098657797,-0.4055733670688124,0.28335757866795286
