time,seconds_elapsed,rotationRateX,rotationRateY,rotationRateZ,gravityX,gravityY,gravityZ,accelerationX,accelerationY,accelerationZ,quaternionW,quaternionX,quaternionY,quaternionZ
1728066192373142500,0.048142578125,-0.20945623517036438,-0.296425998210907,0.04535443335771561,-0.09154970943927765,-0.3889979124069214,-0.9166783690452576,-0.03953854739665985,0.005208849906921387,-0.02301889657974243,0.9789479314671228,0.1986816222525515,-0.04675923496761103,-1.511688782180664e-17
1728066192383173400,0.05817333984375,-0.18415693938732147,-0.2642758786678314,0.04091520980000496,-0.09428032487630844,-0.38712871074676514,-0.9171927571296692,-0.04559699445962906,-0.003999829292297363,-0.04050987958908081,0.9790793350596159,0.19769473291186457,-0.048170642647027306,-0.00011490759528786906
1728066192393203200,0.068203125,-0.16606688499450684,-0.2998165786266327,0.05625848472118378,-0.09703850746154785,-0.3854885399341583,-0.9175958037376404,-0.04682135581970215,-0.0058231353759765625,-0.039389610290527344,0.9791822233938967,0.19683192766285634,-0.04959109699713437,-0.0002005081800304757
1728066192403234600,0.078234619140625,-0.19431397318840027,-0.3794392943382263,0.10866016894578934,-0.10049578547477722,-0.3837491571903229,-0.9179527163505554,-0.006666697561740875,0.005697399377822876,-0.02385026216506958,0.9792733765176481,0.19592556643653694,-0.05134994105983663,-0.00019261774313518787
1728066192413265400,0.088265380859375,-0.18470501899719238,-0.40278536081314087,0.15584713220596313,-0.1046856939792633,-0.38183385133743286,-0.9182830452919006,0.043040186166763306,0.0032632648944854736,-0.00983273983001709,0.9793576524068672,0.19494339255086546,-0.05343724178056686,0.00004450900011986895
1728066192423295200,0.098295166015625,-0.12249112129211426,-0.3778258264064789,0.14313507080078125,-0.10892762243747711,-0.3802453875541687,-0.918448805809021,0.04970826208591461,0.003856837749481201,0.005591750144958496,0.9793999286235902,0.19414254137674333,-0.055536225718589974,0.0003689890109502184
1728066192433326600,0.10832666015625,-0.07461973279714584,-0.3183526396751404,0.1304837167263031,-0.11270782351493835,-0.37918543815612793,-0.9184309244155884,0.012579657137393951,0.01811671257019043,-0.003062605857849121,0.9793951647726451,0.19362145612654375,-0.05740451041250307,0.0006828454248633348
1728066192443357400,0.118357421875,-0.05104442685842514,-0.2690742611885071,0.13225844502449036,-0.11592058092355728,-0.378461629152298,-0.9183295965194702,-0.01660200208425522,0.015775442123413086,-0.009053826332092285,0.9793690255178373,0.19327856270693633,-0.0589797443316403,0.0010210947785136999
1728066192453387300,0.12838720703125,-0.04860097914934158,-0.2596253752708435,0.11402324587106705,-0.11886947602033615,-0.37787213921546936,-0.918195366859436,-0.02033645659685135,0.01198163628578186,0.0007454156875610352,0.979334306206426,0.19300825749732392,-0.06041641986508044,0.0013826643182918992
1728066192463418400,0.13841845703125,-0.06417334824800491,-0.26315218210220337,0.07468143105506897,-0.1216299831867218,-0.3772170841693878,-0.9181031584739685,-0.004590719938278198,0.0004623234272003174,0.010662972927093506,0.9793105196791657,0.19269340714159505,-0.06178729158857464,0.0015882552994111057
1728066192473448200,0.1484482421875,-0.058402545750141144,-0.2701813280582428,0.03743046522140503,-0.12435932457447052,-0.3765655755996704,-0.9180049896240234,0.00700397789478302,-0.009100347757339478,0.021245956420898438,0.979285393201831,0.1923674284638819,-0.0631845757905608,0.001579942639972597
1728066192483479300,0.158479248046875,-0.012893715873360634,-0.25060853362083435,0.021220337599515915,-0.126937136054039,-0.37617751955986023,-0.9178112149238586,0.008528947830200195,-0.009320557117462158,0.022974789142608643,0.9792361322215373,0.19217337543289761,-0.06452738946893084,0.0014623251371001379
1728066192493510400,0.168510498046875,0.04633552208542824,-0.19980262219905853,0.02382837049663067,-0.12913887202739716,-0.37630364298820496,-0.917452335357666,-0.00429922342300415,-0.009469091892242432,-0.0026373863220214844,0.9791447149476817,0.1922513970020743,-0.06567529918737433,0.0013722515133233382
1728066192503540200,0.178540283203125,0.09806995093822479,-0.18298961222171783,0.015022097155451775,-0.13097211718559265,-0.3769388794898987,-0.9169315099716187,-0.03045061230659485,-0.001036614179611206,-0.028289437294006348,0.9790117238769552,0.19259881096738934,-0.06663293240087964,0.0013065288869093458
1728066192513571300,0.1885712890625,0.13051284849643707,-0.177694171667099,0.026022551581263542,-0.13274307548999786,-0.3779764473438263,-0.9162494540214539,-0.036431118845939636,0.015900611877441406,-0.030039608478546143,0.9788376200758029,0.1931623849465195,-0.06755413202107471,0.0012787895817780726
1728066192523601400,0.198601318359375,0.13924536108970642,-0.15392595529556274,0.047401074320077896,-0.13444426655769348,-0.379181832075119,-0.9155030846595764,-0.01672455668449402,0.01580902934074402,-0.024514615535736084,0.9786468765912975,0.19382122395682858,-0.06842367742785779,0.001338937616855271
1728066192533631700,0.2086318359375,0.13922218978405,-0.13098734617233276,0.07457730174064636,-0.13598746061325073,-0.38037386536598206,-0.9147803783416748,-0.009138882160186768,0.009341120719909668,-0.024474382400512695,0.9784619897478661,0.19448224423574584,-0.06918429398794104,0.001540124866864717
1728066192543662800,0.218662841796875,0.12561696767807007,-0.09600404649972916,0.11259179562330246,-0.13743378221988678,-0.3814803957939148,-0.9141032099723816,-0.01416228711605072,0.005976855754852295,-0.010472595691680908,0.9782881468017487,0.1951118308332093,-0.0698554238195196,0.0019381681570578124
1728066192553693000,0.22869287109375,0.11287213116884232,-0.06680674850940704,0.11200616508722305,-0.1386595070362091,-0.38238778710365295,-0.9135388135910034,-0.018444985151290894,0.002764374017715454,0.001414179801940918,0.9781427595214262,0.19564460261565694,-0.07038321041287914,0.0024785917930946954
1728066192563723800,0.238723876953125,0.1009855791926384,-0.054057665169239044,0.06185298413038254,-0.1395745873451233,-0.38325244188308716,-0.9130369424819946,-0.024655744433403015,-0.0005823671817779541,0.013714492321014404,0.9780132934793031,0.19614368505381885,-0.0707755423010125,0.002895199298580514
1728066192573755000,0.2487548828125,0.062052298337221146,-0.05679433047771454,0.03561392426490784,-0.13995197415351868,-0.3839181363582611,-0.9126994609832764,-0.025163382291793823,-0.006752669811248779,0.022181272506713867,0.9779265223569908,0.19651524960315675,-0.07093674270021663,0.0030789693627978772
1728066192583784700,0.25878466796875,0.06084148958325386,-0.06799659878015518,0.025732265785336494,-0.1418236792087555,-0.3831714987754822,-0.9127243161201477,-0.007941320538520813,-0.007606089115142822,0.034046947956085205,0.97793193174207,0.19615544394024662,-0.07183937968976932,0.0033535575531960828
1728066192593815800,0.26881591796875,0.0538427010178566,-0.03180796653032303,0.009523468092083931,-0.1437806934118271,-0.38177260756492615,-0.9130042791366577,0.007077202200889587,-0.010698705911636353,0.030588507652282715,0.978002632966182,0.19544894009796043,-0.07278445084110254,0.003617101248263705
1728066192603846000,0.278845947265625,0.03470423072576523,-0.007071781903505325,0.015814388170838356,-0.14421647787094116,-0.3806263506412506,-0.9134140610694885,-0.0013065934181213379,-0.022434592247009277,0.008171141147613525,0.9781068146781094,0.19485317041496905,-0.07297413817237784,0.0037553389065384008
1728066192613876700,0.288876708984375,0.04204203933477402,-0.04862455278635025,0.022743932902812958,-0.1443871259689331,-0.3799632489681244,-0.9136631488800049,-0.010214924812316895,-0.022853553295135498,-0.0005214214324951172,0.9781700075771731,0.19451082157583247,-0.07303409554108471,0.003875375661479886
1728066192623907800,0.298907958984375,0.05399397388100624,-0.11939476430416107,0.02835521288216114,-0.14555951952934265,-0.3799269497394562,-0.9134921431541443,0.01886579394340515,-0.010698080062866211,-0.0051479339599609375,0.978125867990362,0.19451124387927357,-0.07361584752403187,0.003980191759340005
1728066192633938000,0.30893798828125,0.06377442926168442,-0.1727927327156067,0.05933629721403122,-0.14766044914722443,-0.380367636680603,-0.9129714369773865,0.040360644459724426,-0.0026584863662719727,-0.009849607944488525,0.9779921632348726,0.1947775433262265,-0.07467258864732433,0.0041124793119611935
1728066192643968800,0.31896875,0.07450683414936066,-0.20656543970108032,0.11047777533531189,-0.15067529678344727,-0.3812536895275116,-0.912108838558197,0.039682865142822266,-0.0035882294178009033,-0.015305042266845703,0.9777703162792368,0.19530635183607348,-0.07616426787294064,0.004436546346224844
1728066192653999900,0.328999755859375,0.0636105090379715,-0.2519491910934448,0.15999872982501984,-0.15383382141590118,-0.382341593503952,-0.9111257195472717,0.041925862431526184,-0.009824544191360474,-0.02593177556991577,0.9775161400963995,0.19596468906773507,-0.07768520961618869,0.004992540128051364
1728066192664030000,0.339030029296875,0.09014471620321274,-0.23366491496562958,0.15825489163398743,-0.1566716879606247,-0.38380366563796997,-0.9100267887115479,0.045038387179374695,-0.01934880018234253,-0.01746344566345215,0.9772322477358705,0.19681868784583545,-0.07905076715380326,0.005512097265388542
1728066192674060800,0.349060791015625,0.04394260421395302,-0.19860146939754486,0.15898513793945312,-0.1583765298128128,-0.3850646913051605,-0.9091985821723938,0.034993976354599,-0.029837042093276978,-0.010387539863586426,0.9770176764668143,0.19754915210203472,-0.0798438862856889,0.00597002291436188
1728066192684091000,0.3590908203125,0.002399953082203865,-0.16898201406002045,0.17832128703594208,-0.15999123454093933,-0.38582783937454224,-0.908592164516449,-0.006726294755935669,-0.04224225878715515,-0.0026322007179260254,0.9768590415060512,0.19802138054526403,-0.08056959804414446,0.006516850049505096
1728066192694121700,0.369121826171875,0.01819596067070961,-0.20809586346149445,0.22697509825229645,-0.16219405829906464,-0.3859940767288208,-0.9081308245658875,-0.025931552052497864,-0.0379408597946167,0.023517847061157227,0.9767355296187574,0.19820130852278184,-0.08155257376377992,0.0072740802919943484
1728066192704152800,0.37915283203125,0.05030183121562004,-0.19751538336277008,0.2815536558628082,-0.16394083201885223,-0.38596516847610474,-0.9078294038772583,-0.014297083020210266,-0.034063518047332764,0.017814815044403076,0.9766508816263173,0.19828955016064026,-0.0822589713749865,0.00823098873440926
1728066192714183000,0.389182861328125,0.10086993873119354,-0.17207127809524536,0.2989017367362976,-0.16507573425769806,-0.38603442907333374,-0.9075943231582642,-0.001855418086051941,-0.023831933736801147,-0.01145780086517334,0.9765806971316737,0.1984364670918291,-0.08261848612478569,0.009344296266282354
1728066192724213800,0.3992138671875,0.18544474244117737,-0.1672275811433792,0.3271064758300781,-0.1663583666086197,-0.3866952657699585,-0.9070786237716675,-0.01323758065700531,-0.005379348993301392,-0.042231619358062744,0.976435538399385,0.1989174372578478,-0.08302125336686637,0.010628937456072796
1728066192734243800,0.409243896484375,0.2389412522315979,-0.16719162464141846,0.3714747428894043,-0.1679239422082901,-0.3880070149898529,-0.9062296152114868,-0.0234823077917099,-0.006829440593719482,-0.07834374904632568,0.976200551611407,0.1997716176382369,-0.08352542063803853,0.012135887891244335
1728066192744275000,0.41927490234375,0.2552967965602875,-0.16886915266513824,0.43660768866539,-0.17004527151584625,-0.38969942927360535,-0.9051071405410767,-0.015425309538841248,-0.022348910570144653,-0.10870206356048584,0.9758888110800399,0.20086818337758627,-0.0842519917084092,0.013949735594386855
1728066192754305800,0.429305908203125,0.2465750128030777,-0.1790759265422821,0.4916331171989441,-0.17349544167518616,-0.39118635654449463,-0.9038100242614746,0.008700519800186157,-0.03729569911956787,-0.09979104995727539,0.975522149419309,0.20191994894578388,-0.08557638029067541,0.016175044846241913
1728066192764335600,0.439335693359375,0.17522652447223663,-0.19208307564258575,0.4344015121459961,-0.17703235149383545,-0.3923039436340332,-0.9026389718055725,0.025222644209861755,-0.0446162223815918,-0.08646619319915771,0.975182641405712,0.2027837385173533,-0.0869439865852398,0.01839351441152284
1728066192774367000,0.449366943359375,0.08994172513484955,-0.256608784198761,0.35806038975715637,-0.18058305978775024,-0.39276736974716187,-0.9017336368560791,0.03290852904319763,-0.041802942752838135,-0.06225556135177612,0.9749160614051339,0.203262419605523,-0.08841705240845635,0.020133221281375464
1728066192784397800,0.459397705078125,0.08006565272808075,-0.38193342089653015,0.3536933660507202,-0.1848526895046234,-0.3927953243255615,-0.9008558392524719,0.05309304594993591,-0.04859566688537598,-0.0426408052444458,0.9746591121453889,0.20350742117887521,-0.0903149788486584,0.021620981055928058
1728066192794427600,0.469427734375,-0.018338948488235474,-0.43682464957237244,0.3833495080471039,-0.19008637964725494,-0.39242514967918396,-0.8999276161193848,0.06842805445194244,-0.06527751684188843,-0.039632320404052734,0.9743900234884966,0.2035564404978349,-0.09274146545114814,0.02297561165384858
1728066192804458800,0.479458740234375,-0.012797441333532333,-0.4662187397480011,0.44766297936439514,-0.19580207765102386,-0.3913833796977997,-0.8991554975509644,0.050111159682273865,-0.0826614499092102,-0.036910176277160645,0.9741532266132633,0.20328856099907916,-0.09537302168487911,0.024561641736281684
1728066192814488600,0.489488525390625,0.11036470532417297,-0.5530327558517456,0.21664123237133026,-0.20265349745750427,-0.3915363550186157,-0.8975694179534912,-0.0040268003940582275,-0.11104241013526917,-0.05392289161682129,0.9737152533319331,0.20366242966320772,-0.0986758254129303,0.02575140936857106
1728066192824519700,0.499519775390625,-0.07623739540576935,-0.6138801574707031,-0.007548726163804531,-0.2079317718744278,-0.39163151383399963,-0.8963198065757751,-0.059524282813072205,-0.20068418979644775,-0.057476580142974854,0.9734008033326593,0.2038258101480664,-0.10146500489096309,0.025510828761355978
1728066192834550800,0.50955078125,-0.15355375409126282,-0.688082754611969,0.25128549337387085,-0.2143109142780304,-0.3902529180049896,-0.8954180479049683,-0.035078734159469604,-0.15703409910202026,-0.01713383197784424,0.973175744972454,0.2032259435132358,-0.10483407190968262,0.025259960679760992
1728066192844580600,0.51958056640625,-0.07754793763160706,-0.6759978532791138,0.538269579410553,-0.22210673987865448,-0.38830554485321045,-0.8943642377853394,0.05744914710521698,-0.04458630084991455,-0.017348408699035645,0.9728726020101413,0.20252292531993166,-0.10863860817464407,0.026475239725254254
1728066192854611700,0.52961181640625,0.07473614066839218,-0.535591721534729,0.6125851273536682,-0.22991345822811127,-0.3869057297706604,-0.8929970264434814,0.01584792137145996,0.004352599382400513,-0.06536167860031128,0.9724576170165989,0.20224626238305476,-0.11224046292396936,0.02871567158682807
1728066192864642800,0.539642822265625,0.27107155323028564,-0.3682359755039215,0.6227285265922546,-0.23634083569049835,-0.38702476024627686,-0.891265869140625,-0.08444467186927795,0.018189281225204468,-0.0733489990234375,0.971931674745844,0.20280951662213387,-0.11504506768738128,0.031332227312886526
1728066192874672600,0.549672607421875,0.41046515107154846,-0.25457313656806946,0.7877326607704163,-0.24187731742858887,-0.3884877562522888,-0.8891414999961853,-0.09306834638118744,0.014769524335861206,-0.08208036422729492,0.9712762024987333,0.2041585588666434,-0.11725411700428989,0.03454433525947894
1728066192884703700,0.559703857421875,0.4371958374977112,-0.3244025409221649,0.895345151424408,-0.24773503839969635,-0.39006420969963074,-0.886835515499115,0.017159506678581238,0.010028809309005737,-0.07445287704467773,0.9705156278352455,0.20574784694270745,-0.1193736594784213,0.03894826041384781
1728066192894733600,0.569733642578125,0.4318115711212158,-0.5391947627067566,0.6112199425697327,-0.2545391917228699,-0.3921128511428833,-0.8840007185935974,0.16063663363456726,-0.03920730948448181,-0.03212165832519531,0.969645443315721,0.20752301652117672,-0.12220407494673494,0.042284347573656574
1728066192904764700,0.5797646484375,0.3257881999015808,-0.5554018020629883,0.5978274345397949,-0.26185882091522217,-0.3939530849456787,-0.8810396790504456,0.07094085216522217,-0.09208515286445618,-0.0016049742698669434,0.968764852295708,0.20913998175440346,-0.1254616809821199,0.044881630715722515
1728066192914795500,0.58979541015625,0.2333562672138214,-0.5747249126434326,0.635466992855072,-0.2692664861679077,-0.39472636580467224,-0.8784569501876831,0.053964972496032715,-0.10689109563827515,0.01091855764389038,0.9679767501431981,0.21020275296225194,-0.12878786864394884,0.04742839492132957
1728066192924825600,0.59982568359375,0.22061604261398315,-0.5765766501426697,0.7263510823249817,-0.27707114815711975,-0.3948497772216797,-0.8759710192680359,0.05085960030555725,-0.1183033287525177,0.02480524778366089,0.9671899492034951,0.21099917232221274,-0.13226431404708466,0.05028863883984892
1728066192934856700,0.609856689453125,0.21007977426052094,-0.5556839108467102,0.763690173625946,-0.2850443124771118,-0.39461296796798706,-0.8735160827636719,0.046335816383361816,-0.09865790605545044,-0.006198883056640625,0.9663850606802952,0.2116802512208306,-0.13576978754744518,0.053459200239449875
1728066192944887600,0.619887451171875,0.2525876760482788,-0.5295773148536682,0.7820425629615784,-0.29288700222969055,-0.39435330033302307,-0.8710353970527649,0.03107672929763794,-0.05553683638572693,-0.026684939861297607,0.9655533930527109,0.21239584777787704,-0.1391772488072929,0.05678284981773452
1728066192954917600,0.629917724609375,0.3328092694282532,-0.5172181129455566,0.7907694578170776,-0.30059581995010376,-0.39457035064697266,-0.8683066368103027,0.04365307092666626,-0.032599449157714844,-0.048044681549072266,0.9646362671565051,0.21341687247580285,-0.14247781097672124,0.06025131362884408
1728066192964948700,0.63994873046875,0.3743094503879547,-0.5082648396492004,0.7917343378067017,-0.3082122504711151,-0.3952385485172272,-0.8653275370597839,0.05950924754142761,-0.029184699058532715,-0.07392722368240356,0.9636359836520457,0.21472243816814993,-0.14570695034240658,0.06379239560166669
1728066192974978600,0.649978515625,0.40617284178733826,-0.5245175957679749,0.8192375898361206,-0.31590521335601807,-0.3960735499858856,-0.862165629863739,0.06892648339271545,-0.020872890949249268,-0.08357405662536621,0.9625683750502655,0.21617019951131347,-0.14895510861465966,0.06741509842975467
1728066192985009700,0.660009765625,0.4571140706539154,-0.5567886829376221,0.8471760153770447,-0.3239474594593048,-0.3971292972564697,-0.8586887121200562,0.0839877724647522,-0.023219823837280273,-0.07179218530654907,0.9613929026305034,0.21781965084295865,-0.15234905456268877,0.0711892832450107
1728066192995040800,0.670040771484375,0.46504443883895874,-0.5575301051139832,0.8293360471725464,-0.3321407735347748,-0.39835965633392334,-0.8549807667732239,0.08226287364959717,-0.03712621331214905,-0.06791657209396362,0.9601397056279249,0.2196167905740279,-0.15581429750022932,0.07498012839362968
1728066193005070600,0.680070556640625,0.45410382747650146,-0.5666578412055969,0.8310380578041077,-0.3402949273586273,-0.3994849622249603,-0.8512409329414368,0.06624710559844971,-0.03793874382972717,-0.05119436979293823,0.9588663338136272,0.22138582230991827,-0.15927289627927543,0.07871349508703557
1728066193015101700,0.690101806640625,0.4661053717136383,-0.5883617997169495,0.8597096800804138,-0.3486367166042328,-0.4004797339439392,-0.8473891615867615,0.06535729765892029,-0.04027038812637329,-0.03746795654296875,0.957542271884777,0.22314799285651382,-0.1628201044403513,0.08250678272976454
1728066193025132500,0.700132568359375,0.45147761702537537,-0.6039372086524963,0.8936607241630554,-0.35727232694625854,-0.4012664258480072,-0.8434107899665833,0.07310789823532104,-0.0562225878238678,-0.05980271100997925,0.9561551593760425,0.2248859677984065,-0.16649600400969913,0.08644447504123466
1728066193035162600,0.71016259765625,0.3991211950778961,-0.6218094229698181,0.9103800058364868,-0.3661056458950043,-0.4015752077102661,-0.8394665122032166,0.07826384902000427,-0.07903087139129639,-0.07709842920303345,0.9547520621462172,0.22643527736416977,-0.17027571107739506,0.09045293069263818
1728066193045193700,0.72019384765625,0.34061846137046814,-0.6755877733230591,0.8985475897789001,-0.37522101402282715,-0.4013274312019348,-0.8355510234832764,0.08103156089782715,-0.10212108492851257,-0.07532238960266113,0.9533468553473817,0.22773164950512406,-0.17424921141054295,0.09436794430512342
1728066193055223800,0.730223876953125,0.2886098623275757,-0.7521603107452393,0.8943169116973877,-0.38479524850845337,-0.40050825476646423,-0.8315802812576294,0.08795076608657837,-0.10789933800697327,-0.0745018720626831,0.9519278955245182,0.2287658568424097,-0.1785386288076814,0.09809908073306889
1728066193065254700,0.740254638671875,0.30914077162742615,-0.8460525274276733,0.9357354640960693,-0.3951583504676819,-0.3993871212005615,-0.8272482752799988,0.10222014784812927,-0.08417916297912598,-0.07175374031066895,0.9504007090428154,0.22974632860181077,-0.18328249703904254,0.10179645438095337
1728066193075285800,0.75028564453125,0.39019036293029785,-0.899716317653656,1.0262997150421143,-0.40637433528900146,-0.39828476309776306,-0.8223314881324768,0.11950913071632385,-0.04377758502960205,-0.05498778820037842,0.9486729103315406,0.2309241750156504,-0.18843641072823117,0.10576046440223702
1728066193085315600,0.760315673828125,0.5188714265823364,-0.9234617948532104,1.1126316785812378,-0.4182021915912628,-0.39755043387413025,-0.8167377710342407,0.1246994137763977,-0.004564434289932251,-0.05231130123138428,0.9466869499366094,0.23253669079656825,-0.19379835739139303,0.11023949039023685
1728066193095346700,0.7703466796875,0.6475322246551514,-0.8893333673477173,1.1100410223007202,-0.4301126301288605,-0.3975832164287567,-0.8105126023292542,0.09609776735305786,0.004409998655319214,-0.06801217794418335,0.9444703505309501,0.23472995532412463,-0.19911190998652092,0.11503015234939398
1728066193105377800,0.780377685546875,0.7008368372917175,-0.8297557830810547,1.0937339067459106,-0.4414857029914856,-0.39825204014778137,-0.8040433526039124,0.030246108770370483,-0.016115635633468628,-0.061587750911712646,0.9421452291060508,0.237333597544725,-0.20408601420268227,0.11993324236407227
1728066193115407600,0.79040771484375,0.6402864456176758,-0.7986583113670349,1.0668716430664062,-0.4523710310459137,-0.39883896708488464,-0.7976765632629395,-0.012564241886138916,-0.028773367404937744,-0.05481672286987305,0.9398278930524364,0.2399050954922619,-0.20882353327595737,0.12474658490619119
1728066193125438700,0.800438720703125,0.5848249197006226,-0.7883151769638062,1.1293374300003052,-0.4630688726902008,-0.3986555337905884,-0.7916065454483032,-0.03752619028091431,-0.030955642461776733,-0.027668297290802002,0.9375536584916448,0.2421151237056902,-0.21348767234735663,0.12960068930167917
1728066193135468800,0.81046875,0.554762065410614,-0.7817342281341553,1.1972742080688477,-0.47401660680770874,-0.3976924419403076,-0.7855883240699768,-0.02537304162979126,-0.026944398880004883,-0.022822320461273193,0.9352265437869932,0.24405679372958994,-0.21827078142862624,0.1347050098673607
1728066193145499600,0.820499755859375,0.5747524499893188,-0.7905856370925903,1.3972152471542358,-0.4851491451263428,-0.39576631784439087,-0.7797430753707886,-0.01619359850883484,-0.02349942922592163,-0.030559659004211426,0.9327932316627863,0.24575457304616427,-0.22300929040412296,0.14059970613544778
1728066193155530800,0.83053076171875,0.6132095456123352,-0.7854329347610474,1.296622633934021,-0.49681130051612854,-0.39367949962615967,-0.7734306454658508,0.03541606664657593,0.016314387321472168,-0.01906508207321167,0.9301721339509487,0.24755869665050498,-0.22803372494645305,0.14661186048895625
1728066193165560800,0.840560791015625,0.70100998878479,-0.6537575721740723,1.19838285446167,-0.507341206073761,-0.3925706744194031,-0.7671330571174622,-0.04078495502471924,0.029579371213912964,-0.029802918434143066,0.9275830156382775,0.24975194578494142,-0.23250254830688796,0.15217175845969888
1728066193175591700,0.850591796875,0.7456392049789429,-0.6684318780899048,1.2499020099639893,-0.5171570181846619,-0.3918185830116272,-0.7609381079673767,-0.05004262924194336,0.0616794228553772,-0.04970031976699829,0.9249464370491826,0.2521882402669823,-0.2364995584080197,0.15793398279302404
1728066193185621800,0.860621826171875,0.8088067770004272,-0.6584897041320801,1.2166204452514648,-0.5270585417747498,-0.39121633768081665,-0.7544263601303101,0.004734992980957031,0.09171682596206665,-0.03933584690093994,0.9221714232702012,0.2548256498735607,-0.24052176975073059,0.16374716804554948
1728066193195652600,0.870652587890625,0.8446148633956909,-0.6166858077049255,1.1531767845153809,-0.5365891456604004,-0.3911745846271515,-0.747699499130249,-0.047746121883392334,0.05075100064277649,-0.023678064346313477,0.9193216367601368,0.2577761546322594,-0.2443393450177294,0.16940332533141608
1728066193205683700,0.88068359375,0.7577024698257446,-0.5939409732818604,1.1506041288375854,-0.5456402897834778,-0.39093032479286194,-0.7412489652633667,-0.07133352756500244,0.013305842876434326,-0.040412962436676025,0.9165299750751131,0.26058480355932795,-0.24793359417949437,0.17492030861168054
1728066193215713800,0.8907138671875,0.6667371392250061,-0.5765712857246399,1.1570827960968018,-0.5545494556427002,-0.3897714614868164,-0.7352231740951538,-0.05743473768234253,0.012757271528244019,-0.03931295871734619,0.9138291609976864,0.2629057858993199,-0.25153322012751905,0.1803549060080065
1728066193225744600,0.90074462890625,0.6126150488853455,-0.5932028293609619,1.1183003187179565,-0.5633291602134705,-0.38802945613861084,-0.7294472455978394,-0.04189532995223999,0.028456121683120728,-0.01885896921157837,0.9111914741771852,0.2649011634327965,-0.25515434934432,0.1856168627029331
1728066193235775700,0.910775634765625,0.6284611225128174,-0.5638896822929382,1.0920555591583252,-0.5719072818756104,-0.3862047791481018,-0.7237181067466736,-0.03618597984313965,0.04869562387466431,0.02143239974975586,0.9085699925055174,0.2668339146464577,-0.2587288215675669,0.19068187318197177
1728066193245805800,0.920805908203125,0.6820341944694519,-0.5036157369613647,1.0865076780319214,-0.5800222754478455,-0.38462311029434204,-0.7180802226066589,-0.03922516107559204,0.06341034173965454,0.08062905073165894,0.9059332130364381,0.26890045900236836,-0.2620161114204137,0.19576772817655666
1728066193255836700,0.930836669921875,0.7262911200523376,-0.4177488088607788,1.095134973526001,-0.5875706076622009,-0.3832693099975586,-0.7126467227935791,-0.0459895133972168,0.07620146870613098,0.11653167009353638,0.9032750591543541,0.271114504478602,-0.26490292533231913,0.20104085972405877
1728066193265867800,0.94086767578125,0.7584977149963379,-0.2925848364830017,1.1173319816589355,-0.5944060683250427,-0.3819466531276703,-0.7076709270477295,-0.062072813510894775,0.08853539824485779,0.1572253704071045,0.9006513805207573,0.2733400401896371,-0.26730085844232404,0.20654913138407044
1728066193275897900,0.95089794921875,0.8600102066993713,-0.20124003291130066,1.1058366298675537,-0.6004464626312256,-0.38094526529312134,-0.7030965685844421,-0.07712000608444214,0.09264570474624634,0.15934956073760986,0.8980363650674827,0.2757262006572134,-0.26912225813916185,0.21231809143093924
1728066193285928700,0.9609287109375,0.962650716304779,-0.02690759301185608,1.2190436124801636,-0.6057459712028503,-0.3804997503757477,-0.6987787485122681,-0.09042102098464966,0.08582201600074768,0.07576239109039307,0.895346536180636,0.27845706584114227,-0.2703188631723208,0.2185037783359962
1728066193295958800,0.970958740234375,0.9809460639953613,-0.09359261393547058,1.2237780094146729,-0.6109960079193115,-0.3797450661659241,-0.6946060061454773,-0.0501672625541687,0.09487873315811157,0.019770801067352295,0.8924983109700387,0.281224752872549,-0.27131096737745536,0.22527685483137397
1728066193305989600,0.98098974609375,0.9997230172157288,-0.03460972011089325,1.107819676399231,-0.6158949732780457,-0.37934577465057373,-0.690485417842865,-0.04412388801574707,0.09649360179901123,0.04592365026473999,0.8896697294606661,0.28409345055013396,-0.2721180087036924,0.2317981771142393
1728066193316020700,0.991020751953125,0.9598730206489563,-0.00916028767824173,0.9574916362762451,-0.6200286746025085,-0.379764586687088,-0.6865445375442505,-0.08559876680374146,0.07365801930427551,0.03589451313018799,0.8870013984530415,0.2871148246829971,-0.27256709801482415,0.23769909565811476
1728066193326050800,1.00105078125,0.8505141735076904,0.015234962105751038,0.9404423236846924,-0.6236132383346558,-0.38010627031326294,-0.6831001043319702,-0.08372312784194946,0.08507758378982544,0.060663580894470215,0.8845565943640002,0.28984691298229276,-0.27283460198719556,0.24312483696850326
1728066193336081700,1.01108154296875,0.7920830845832825,0.029660239815711975,1.0267770290374756,-0.627255380153656,-0.3795027434825897,-0.6800943613052368,-0.045229971408843994,0.09665057063102722,0.13024389743804932,0.8821728618348752,0.2920926388767799,-0.27319354485273223,0.24863261479242277
1728066193346111700,1.02111181640625,0.7185289859771729,0.06392265856266022,1.0509079694747925,-0.6309648752212524,-0.37806063890457153,-0.6774610280990601,-0.020676910877227783,0.07404452562332153,0.18673837184906006,0.8797904514815755,0.2939601246407216,-0.2735999505155384,0.25436042098559614
1728066193356142800,1.031142822265625,0.580963134765625,0.11756671220064163,1.0110372304916382,-0.6342939138412476,-0.37585464119911194,-0.6755771636962891,-0.04015982151031494,0.07345595955848694,0.20035743713378906,0.8776204575888796,0.29526460704364793,-0.2739164502134194,0.25994402197439526
1728066193366173700,1.041173583984375,0.5623070001602173,0.14220665395259857,0.9632291197776794,-0.637165367603302,-0.37333735823631287,-0.6742696166038513,-0.0540120005607605,0.07345637679100037,0.18459981679916382,0.8756540497477847,0.29620742137265665,-0.2740918956248167,0.265263429116434
1728066193376203800,1.051203857421875,0.5593463778495789,0.18451948463916779,0.8946982622146606,-0.6395845413208008,-0.3711767792701721,-0.6731711030006409,-0.03984349966049194,0.03705510497093201,0.13171303272247314,0.8737762269010002,0.29719057039316715,-0.2740295850284628,0.27037107254940107
1728066193386235000,1.06123486328125,0.487613320350647,0.21003006398677826,0.7952108383178711,-0.6414059996604919,-0.3692918121814728,-0.6724744439125061,-0.02644062042236328,0.02018597722053528,0.0804181694984436,0.8721007156324491,0.29806589757303237,-0.2737142663729197,0.2750955613917649
1728066193396265700,1.071265625,0.34213414788246155,0.2038896232843399,0.720940351486206,-0.6428120136260986,-0.3672257959842682,-0.6722632646560669,-0.015345275402069092,0.04129806160926819,0.0707923173904419,0.8707077243140862,0.2985616022273387,-0.2733666622065046,0.2792842302211241
1728066193406295800,1.0812958984375,0.2812977731227875,0.14688214659690857,0.6868391036987305,-0.6442375779151917,-0.3647061586380005,-0.6722702383995056,0.010067105293273926,0.07520115375518799,0.06590127944946289,0.8694988864828367,0.29866650351944923,-0.2732456530921094,0.2830314381116063
1728066193416326700,1.09132666015625,0.2647917568683624,0.13998696208000183,0.6667287349700928,-0.6457996368408203,-0.36216309666633606,-0.6721463203430176,0.03877454996109009,0.08912235498428345,0.021023333072662354,0.8683029816803965,0.2987387102882053,-0.273280143301346,0.2865709889944935
1728066193426356700,1.101356689453125,0.16728824377059937,0.16743211448192596,0.6378244161605835,-0.6471844911575317,-0.3594087064266205,-0.6722927093505859,0.04765152931213379,0.10829484462738037,0.014638960361480713,0.8672254481494261,0.29859264817269415,-0.2733058031162101,0.28994184570123627
1728066193436387800,1.111387939453125,0.015600711107254028,0.21942020952701569,0.612158477306366,-0.6481452584266663,-0.3559596538543701,-0.6732016205787659,0.04433971643447876,0.13637042045593262,0.07331764698028564,0.8664348849811054,0.2978536958500514,-0.2732807388993169,0.29307228665376567
1728066193446418700,1.121418701171875,-0.1688116043806076,0.23212455213069916,0.6432681679725647,-0.6487389206886292,-0.35125139355659485,-0.6751002073287964,0.044857144355773926,0.15532854199409485,0.1474970579147339,0.8659569188372752,0.296252767862477,-0.2732841049715891,0.296089071062954
1728066193456448800,1.13144873046875,-0.2653663754463196,0.19046951830387115,0.6464530229568481,-0.6496691703796387,-0.3454757034778595,-0.6771827340126038,0.07351255416870117,0.1689620316028595,0.19076311588287354,0.8655925258093901,0.29408065708035575,-0.27372465362032056,0.2988995090625226
1728066193466479900,1.14147998046875,-0.2784537076950073,0.23271870613098145,0.6140375733375549,-0.6504261493682861,-0.3394954204559326,-0.6794766783714294,0.05411267280578613,0.16310381889343262,0.15848064422607422,0.8653341172850462,0.29170748275836006,-0.2741685501245565,0.30155436018460746
1728066193476510700,1.1515107421875,-0.21120673418045044,0.28090623021125793,0.5254201292991638,-0.6506813168525696,-0.3340858817100525,-0.6819093823432922,0.029526591300964355,0.15555807948112488,0.11609828472137451,0.8651614004632371,0.28948177184609625,-0.2743093497756893,0.3040564229615513
1728066193486540800,1.161540771484375,-0.12848788499832153,0.36524906754493713,0.45302125811576843,-0.6500898599624634,-0.3297511041164398,-0.6845782399177551,0.008137345314025879,0.14438733458518982,0.06072264909744263,0.8651006118687533,0.28758829648902823,-0.2738683245642869,0.30641464836992577
1728066193496572000,1.171572021484375,-0.08616779744625092,0.3936923146247864,0.4050558805465698,-0.648892343044281,-0.3262135982513428,-0.6874032616615295,0.01908588409423828,0.11619165539741516,0.027750670909881592,0.8651111624886356,0.2859494500606173,-0.27300415915068765,0.308681239163925
1728066193506601700,1.181601806640625,-0.09704255312681198,0.35541239380836487,0.35798636078834534,-0.6475427746772766,-0.3231261670589447,-0.6901288628578186,0.05592906475067139,0.07816159725189209,0.034275591373443604,0.8651506890366323,0.2844696743482422,-0.27205254433292225,0.31077103178688276
1728066193516632800,1.1916328125,-0.22114025056362152,0.29822927713394165,0.29748865962028503,-0.6463611125946045,-0.3198920786380768,-0.6927382946014404,0.07667422294616699,0.05036082863807678,0.01088404655456543,0.8652931727385117,0.2828365446273504,-0.2713564747158739,0.3124690085999824
1728066193526663700,1.20166357421875,-0.4178274869918823,0.2274344563484192,0.23526819050312042,-0.6453917026519775,-0.3159481883049011,-0.6954468488693237,0.07871079444885254,0.04336518049240112,0.04433906078338623,0.8656816285349087,0.2806802135111982,-0.27109999171226873,0.31355815275094806
1728066193536694300,1.2116943359375,-0.5678670406341553,0.211500883102417,0.2120843082666397,-0.6446048617362976,-0.31097349524497986,-0.6984125375747681,0.06290930509567261,0.06187376379966736,0.10692083835601807,0.8663254433502038,0.2778494578479407,-0.2712810568973073,0.3141439862031492
1728066193546725400,1.221725341796875,-0.622660219669342,0.2532472610473633,0.23502343893051147,-0.643683910369873,-0.30531546473503113,-0.7017502784729004,0.04355579614639282,0.09108209609985352,0.10214096307754517,0.867117618358386,0.27457408716736825,-0.2715399358961326,0.3146141329818207
1728066193556756200,1.231756103515625,-0.6080160140991211,0.3075246214866638,0.3433229923248291,-0.6425957083702087,-0.2990436851978302,-0.7054385542869568,0.02803272008895874,0.12013435363769531,0.09830665588378906,0.8678911913343124,0.2710265416068951,-0.271708157614777,0.31541089009434525
1728066193566786300,1.241786376953125,-0.4718017578125,0.34623995423316956,0.3743160665035248,-0.641391396522522,-0.29279905557632446,-0.7091444134712219,0.026324868202209473,0.12656980752944946,0.1000136137008667,0.8684820836907019,0.2676378532513202,-0.2716574337870278,0.31671928696784596
1728066193576817200,1.251817138671875,-0.38554197549819946,0.38963961601257324,0.31744664907455444,-0.6397865414619446,-0.2875310182571411,-0.7127405405044556,0.00433427095413208,0.09668934345245361,0.08301031589508057,0.8689905766986756,0.26473133539642546,-0.27119556874546386,0.3181597952812906
1728066193586847200,1.26184716796875,-0.44647443294525146,0.4260423481464386,0.2549702227115631,-0.6376992464065552,-0.2827909588813782,-0.7164977192878723,-0.020610690116882324,0.043868839740753174,0.08244931697845459,0.8696153627405985,0.261929952726968,-0.27045117569978466,0.31940267583972837
1728066193596878300,1.27187841796875,-0.7062010765075684,0.3806096315383911,0.20982807874679565,-0.6353935599327087,-0.2772000730037689,-0.720718502998352,-0.00832897424697876,-0.010931640863418579,0.05323803424835205,0.8705382737025449,0.25847380295812017,-0.2698741368570559,0.320191105473683
1728066193606909200,1.2819091796875,-0.9541121125221252,0.261568158864975,0.15956729650497437,-0.6336072683334351,-0.26989370584487915,-0.7250511050224304,0.024278104305267334,-0.04098886251449585,0.0647270679473877,0.8717423207344643,0.2540335779897083,-0.27007662899621243,0.3202978836272532
1728066193616939300,1.291939208984375,-1.07406747341156,0.13169829547405243,0.044255081564188004,-0.632489025592804,-0.26175180077552795,-0.7290017604827881,0.04086005687713623,-0.03660327196121216,0.05259495973587036,0.8731222687334026,0.24910261807920478,-0.2710110695791714,0.3196221336067673
1728066193626970400,1.301970458984375,-1.055125117301941,0.027285020798444748,-0.0506671704351902,-0.6319306492805481,-0.2538444399833679,-0.7322748899459839,0.01840531826019287,0.005797594785690308,0.029577195644378662,0.8745730652588797,0.24424175519055125,-0.2724123810580636,0.31821256841459933
1728066193637001200,1.312001220703125,-0.6440954804420471,0.004386627580970526,-0.0933629646897316,-0.6317327618598938,-0.24786925315856934,-0.7344892621040344,-0.002468287944793701,0.061971426010131836,-0.0360947847366333,0.8757489214995435,0.24050333571955954,-0.27370332444883677,0.31671485573191954
1728066193647031300,1.32203125,-0.1758609414100647,0.024611204862594604,-0.0766279324889183,-0.6313830614089966,-0.24548840522766113,-0.7355887293815613,-0.023951411247253418,0.11665844917297363,-0.21028828620910645,0.8764068151778646,0.23883206241692695,-0.27416213247622423,0.3157614897809659
1728066193657062400,1.3320625,0.19639378786087036,-0.0016777091659605503,0.09348095208406448,-0.6312217116355896,-0.2454562932252884,-0.7357379198074341,-0.051059722900390625,0.18808326125144958,-0.18946343660354614,0.8764148953435081,0.23880191465539966,-0.27405234363636544,0.31585719997121026
1728066193667092200,1.34209228515625,0.5134527683258057,-0.007870357483625412,0.23562265932559967,-0.6317050457000732,-0.24705509841442108,-0.7347873449325562,-0.03617209196090698,0.21667484939098358,-0.13723713159561157,0.875706366236599,0.24016835312710075,-0.27372519693833347,0.31706765930575126
1728066193677123300,1.352123291015625,0.6461296081542969,-0.03556137531995773,0.30558255314826965,-0.6325726509094238,-0.24965476989746094,-0.7331604361534119,-0.055720746517181396,0.14682577550411224,-0.10221242904663086,0.8745146269694933,0.24242441807505796,-0.273221833813234,0.3190678977030347
1728066193687154200,1.362154296875,0.6256435513496399,0.0012229522690176964,0.23624104261398315,-0.6334791779518127,-0.2525761127471924,-0.7313750386238098,-0.06384742259979248,0.017941683530807495,-0.043878257274627686,0.8732350736581623,0.24489825015173686,-0.27264874182948695,0.3211666778069838
1728066193697184300,1.372184326171875,0.33685117959976196,0.05332743003964424,0.03586399182677269,-0.6336236596107483,-0.25526517629623413,-0.7303155064582825,-0.08114379644393921,-0.08650118112564087,0.025557875633239746,0.8724337795066345,0.2468082950906216,-0.2718968559863286,0.3225168157182108
1728066193707215400,1.38221533203125,0.04151266813278198,0.03821351379156113,-0.14763206243515015,-0.6331512928009033,-0.2569291293621063,-0.7301416993141174,-0.0960051417350769,-0.09182572364807129,0.10262399911880493,0.8723751418821891,0.2475840913577767,-0.2713508467263234,0.32254051927074734
1728066193717246200,1.39224609375,-0.008312945254147053,0.0074034035205841064,-0.1487971842288971,-0.6325711607933044,-0.2579588294029236,-0.730281412601471,-0.08317279815673828,-0.026983797550201416,0.05802494287490845,0.8726682390640957,0.24776829865495717,-0.2710538082676674,0.3218553148373744
1728066193727276300,1.4022763671875,0.03404243290424347,-0.04575526341795921,0.08363284915685654,-0.6326315402984619,-0.2583247721195221,-0.7300996780395508,-0.045652031898498535,0.027444034814834595,0.011029303073883057,0.8726836461474415,0.24792546657424175,-0.2710777251809692,0.321672024794672
1728066193737307400,1.412307373046875,0.043601587414741516,-0.08154308795928955,0.328348845243454,-0.6336929202079773,-0.2572005093097687,-0.7295759916305542,-0.0016372203826904297,0.049650490283966064,-0.005027830600738525,0.872197691862289,0.24789175604114885,-0.2715910102012549,0.32258198241412783
1728066193747337200,1.422337158203125,0.0809323787689209,-0.07232434302568436,0.4125414788722992,-0.635299563407898,-0.25518935918807983,-0.7288846969604492,-0.007568478584289551,0.020158231258392334,-0.05094623565673828,0.871384248665985,0.2477654023823832,-0.27234162468479495,0.32424049921195924
1728066193757368300,1.432368408203125,0.012190066277980804,-0.024117130786180496,0.3377287685871124,-0.6366478800773621,-0.25315597653388977,-0.728417158126831,-0.05411750078201294,-0.05540728569030762,-0.040091753005981445,0.8706201521554753,0.24756996133766096,-0.2729478398209361,0.32592826555943943
1728066193767399400,1.4423994140625,-0.22081468999385834,0.013314608484506607,0.19293777644634247,-0.6373657584190369,-0.25071248412132263,-0.7286344170570374,-0.08347469568252563,-0.11670392751693726,0.022518694400787354,0.8702933918567303,0.24677875138863226,-0.27346485992039204,0.3269658617956013
1728066193777429200,1.45242919921875,-0.5506865978240967,0.019865985959768295,0.0605352520942688,-0.6375890970230103,-0.24709278345108032,-0.729674756526947,-0.07615596055984497,-0.12355847656726837,0.0700373649597168,0.8705777467709854,0.2449060417676144,-0.27419636484979915,0.3270041931928036
1728066193787460400,1.46246044921875,-0.7789013385772705,0.027267655357718468,-0.006508762016892433,-0.6375055909156799,-0.2418629229068756,-0.7314977645874023,-0.04762929677963257,-0.06941637396812439,0.09909725189208984,0.8714007259017358,0.24182360833209438,-0.27526797117235147,0.3262050621953287
1728066193797491200,1.4724912109375,-0.7306621670722961,0.03659138083457947,-0.06919584423303604,-0.6371917128562927,-0.2365066260099411,-0.7335198521614075,-0.0035095810890197754,-0.009907558560371399,0.05038386583328247,0.8724218264178462,0.2384948873070059,-0.2763336327653774,0.3250231608194123
1728066193807521300,1.482521240234375,-0.5831260085105896,-0.006427883170545101,-0.04526068642735481,-0.6369348764419556,-0.23195885121822357,-0.7351931929588318,0.013643860816955566,0.07052084803581238,-0.028081953525543213,0.8733440514000815,0.23561604392247862,-0.27728772867960627,0.323831295701157
1728066193817552400,1.492552490234375,-0.1488688588142395,-0.061905525624752045,0.00667521683499217,-0.6371839642524719,-0.22919580340385437,-0.7358435988426208,0.043067753314971924,0.12978477776050568,-0.07764816284179688,0.8737658750803159,0.23400614505898593,-0.2780635120385586,0.32319481087874075
1728066193827582500,1.50258251953125,0.2786942422389984,-0.10597433894872665,-0.00868882518261671,-0.6378841996192932,-0.22976799309253693,-0.735058069229126,0.05725675821304321,0.12338370084762573,-0.13998770713806152,0.8735317743935035,0.2345089537517787,-0.27834602233508676,0.3232200873595987
1728066193837613300,1.51261328125,0.39545121788978577,-0.02977198362350464,-0.02153751254081726,-0.6383968591690063,-0.23249612748622894,-0.7337539792060852,0.029205024242401123,0.11392007768154144,-0.09403526782989502,0.8730359459529755,0.23621078316133698,-0.2780781578305637,0.3235508958377991
1728066193847644400,1.52264453125,0.2867923080921173,0.039657216519117355,0.06605944782495499,-0.6384043097496033,-0.23495155572891235,-0.7329649925231934,0.01956886053085327,0.10230688750743866,-0.01203012466430664,0.8726000683038746,0.23770601606473957,-0.2775127959025678,0.3241166254159042
1728066193857674200,1.53267431640625,0.05163414776325226,0.058780841529369354,0.19354364275932312,-0.6383532881736755,-0.2353702038526535,-0.7328751087188721,0.04167360067367554,0.03503754734992981,0.07928013801574707,0.8722450191782369,0.23819744935275436,-0.2771721886820815,0.3250017261941153
1728066193867705300,1.542705322265625,-0.27413123846054077,0.05414976179599762,0.24032659828662872,-0.6385140419006348,-0.23311372101306915,-0.733456015586853,0.06102997064590454,-0.06688933074474335,0.1240505576133728,0.8720727804714953,0.23732354976207728,-0.27739775630426394,0.32590944896360763
1728066193877735200,1.552735107421875,-0.7411596775054932,0.08212573826313019,0.19439904391765594,-0.6385499238967896,-0.22802844643592834,-0.735021710395813,0.053772151470184326,-0.15952953696250916,0.15880411863327026,0.8723922960511536,0.2347293521219816,-0.27819285322755616,0.326255171427785
1728066193887766300,1.562766357421875,-1.3332557678222656,0.11300881952047348,0.156961128115654,-0.638232946395874,-0.2192811667919159,-0.7379528880119324,0.04008841514587402,-0.2142515480518341,0.21166205406188965,0.8734453688943764,0.2298059708850433,-0.2796654587944478,0.32568332347808693
1728066193897797400,1.57279736328125,-1.9355946779251099,0.10731391608715057,0.17898760735988617,-0.6377778649330139,-0.2060685008764267,-0.7421422600746155,0.05222189426422119,-0.2312636524438858,0.24339354038238525,0.8751850108298656,0.2222160749146852,-0.28204413118500216,0.32422560284682334
1728066193907827200,1.5828271484375,-2.4702441692352295,0.07758568227291107,0.24647264182567596,-0.6375374794006348,-0.18821753561496735,-0.7470743060112,0.07174158096313477,-0.24055445194244385,0.2581369876861572,0.8773715549217022,0.21206612336041838,-0.2854659240972134,0.32211205987903213
1728066193917858300,1.5928583984375,-2.900850772857666,0.026278823614120483,0.28658807277679443,-0.6376315951347351,-0.16619554162025452,-0.7522000670433044,0.08799481391906738,-0.24017652869224548,0.24821758270263672,0.8797857274670015,0.1997126602145136,-0.28985310838876,0.31949484522297894
1728066193927889400,1.602889404296875,-3.163485288619995,-0.09314035624265671,0.21878507733345032,-0.6382659673690796,-0.14143997430801392,-0.7567108273506165,0.08728635311126709,-0.21958298981189728,0.18746644258499146,0.8822674910991049,0.18590674186311895,-0.2950987568108328,0.3161636000263641
1728066193937919200,1.612919189453125,-3.1714744567871094,-0.3014160692691803,-0.03427674248814583,-0.6399415135383606,-0.11654391139745712,-0.7595342993736267,0.0726349949836731,-0.15935027599334717,0.07906860113143921,0.8846557388221578,0.17195760940123037,-0.3011036938785854,0.3116910624641962
1728066193947950300,1.622950439453125,-3.007449150085449,-0.4336283802986145,-0.4321732521057129,-0.6425018906593323,-0.09437146037817001,-0.7604507207870483,0.03733837604522705,-0.0015453025698661804,-0.11999660730361938,0.8870223653017755,0.15909834854018773,-0.3073472680895757,0.3056414455526943
1728066193957980200,1.632980224609375,-2.7614083290100098,-0.4634627103805542,-0.45101964473724365,-0.6453219056129456,-0.07501371204853058,-0.7602187395095825,-0.004870295524597168,0.2597518563270569,-0.25133216381073,0.8893320641109214,0.14739304418123403,-0.3133144018230022,0.29866007507512693
1728066193968011300,1.64301123046875,-1.8434579372406006,-0.5359658002853394,-0.19682277739048004,-0.6491090655326843,-0.0594809390604496,-0.7583662867546082,0.050338923931121826,0.4899771213531494,-0.18224650621414185,0.8906591905405342,0.13832895496768333,-0.3188760846560006,0.2931028394409572
1728066193978042400,1.65304248046875,-0.6253603100776672,-0.577680766582489,0.10874352604150772,-0.653292179107666,-0.050214413553476334,-0.7554388046264648,0.05940490961074829,0.567762017250061,-0.24533933401107788,0.8906726599590589,0.13360826779170948,-0.32315541839781947,0.29055376998010773
1728066193988072200,1.663072265625,0.5590675473213196,-0.5346397161483765,0.23044785857200623,-0.657710075378418,-0.04893513396382332,-0.7516799569129944,0.005076408386230469,0.4749147295951843,-0.24075168371200562,0.8894831562787081,0.13409773664767421,-0.32584939852243316,0.2909629798859613
1728066193998103000,1.67310302734375,1.102763295173645,-0.36712318658828735,0.2079782485961914,-0.661236047744751,-0.05405666306614876,-0.7482277750968933,-0.08241629600524902,0.31083154678344727,-0.2065604329109192,0.8878109539206027,0.13831041516323317,-0.32673588868681613,0.29309657548053897
1728066194008134400,1.683134521484375,1.064452052116394,-0.2595491409301758,0.15590038895606995,-0.6636599898338318,-0.06113111972808838,-0.7455323338508606,-0.1254940629005432,0.1522108018398285,-0.0892149806022644,0.8862543716987236,0.1433879585559016,-0.32660943653038976,0.2954986407560183
1728066194018164200,1.693164306640625,0.7419307827949524,-0.23724304139614105,0.10954274237155914,-0.6655667424201965,-0.06705592572689056,-0.7433199286460876,-0.09679287672042847,-0.006888195872306824,0.06291526556015015,0.8849927163050487,0.14758327661577836,-0.3264340987267566,0.29740203059819126
1728066194028195000,1.703195068359375,0.3630896508693695,-0.287653386592865,0.03484347090125084,-0.6675779223442078,-0.0706113651394844,-0.7411839962005615,-0.051706135272979736,-0.15080894529819489,0.09700369834899902,0.8840329344761488,0.15028132250248893,-0.32683866634277897,0.29845904177686533
1728066194038225200,1.71322509765625,-0.13319122791290283,-0.3481481671333313,-0.05005703866481781,-0.670002818107605,-0.07155050337314606,-0.7389023900032043,-0.03628075122833252,-0.22332561016082764,0.08399522304534912,0.8834123792588451,0.15131823947923873,-0.32810300420821287,0.2983854193012025
1728066194048256300,1.72325634765625,-0.5963243246078491,-0.2937324643135071,-0.15661276876926422,-0.6723431348800659,-0.06944765895605087,-0.7369746565818787,-0.04921442270278931,-0.18786132335662842,0.10703080892562866,0.883309496189404,0.15030608754513627,-0.3300314419456492,0.2970715873268834
1728066194058287000,1.733287109375,-0.7563976049423218,-0.19661763310432434,-0.22206315398216248,-0.6741124987602234,-0.06562474370002747,-0.7357076406478882,-0.07788640260696411,-0.07219266891479492,0.07576501369476318,0.8836836139633875,0.14793796671867224,-0.33205503020184896,0.294884815933605
1728066194068317200,1.743317138671875,-0.5120466947555542,-0.09094010293483734,-0.22687654197216034,-0.6750190258026123,-0.06224551424384117,-0.7351698875427246,-0.09217756986618042,0.06094849109649658,-0.04441690444946289,0.8842689122081616,0.1455747338377702,-0.33350120770156166,0.29266597116531184
1728066194078348000,1.75334814453125,0.14358657598495483,-0.007411654572933912,-0.17310573160648346,-0.675274670124054,-0.06214664503931999,-0.7349434494972229,-0.08027952909469604,0.1748327761888504,-0.1587638258934021,0.8846277892877743,0.1451008077837679,-0.3338772685164371,0.29138517048182516
1728066194088379100,1.763379150390625,0.8367653489112854,0.07122498750686646,-0.1112532839179039,-0.6749593615531921,-0.06670687347650528,-0.734833300113678,-0.060209035873413086,0.2547408938407898,-0.20465028285980225,0.8845153641588356,0.14747410851854503,-0.33291849405131474,0.29163197500913435
1728066194098409200,1.7734091796875,1.6162137985229492,0.2188519984483719,-0.14208069443702698,-0.6738693118095398,-0.07647831737995148,-0.7348817586898804,-0.052174389362335205,0.3213208317756653,-0.10555708408355713,0.8839953176694079,0.15287254867483294,-0.3304377687496499,0.2932457164262542
1728066194108440000,1.783440185546875,2.1978492736816406,0.3086389899253845,-0.2421652227640152,-0.6717236638069153,-0.09195718169212341,-0.7350722551345825,-0.07417166233062744,0.3803940415382385,-0.04216468334197998,0.8832011936910052,0.1613223578461053,-0.3262498714148318,0.2957901767923573
1728066194118470100,1.79347021484375,2.465442657470703,0.27766937017440796,-0.23728631436824799,-0.6693105101585388,-0.11087527126073837,-0.7346632480621338,-0.0921335220336914,0.4494982957839966,0.03381180763244629,0.8820904160270746,0.1716498576007939,-0.3212548819257764,0.29874427536507214
1728066194128501200,1.803501220703125,2.7231709957122803,0.21273189783096313,-0.059965863823890686,-0.6673333644866943,-0.13096930086612701,-0.7331529259681702,-0.048563241958618164,0.4384338855743408,-0.018571317195892334,0.8804138159743725,0.1829678218560886,-0.3161428680986584,0.3024036176855776
1728066194138532000,1.813531982421875,3.053786039352417,0.1057889387011528,0.25368791818618774,-0.6662967205047607,-0.15145039558410645,-0.7301447987556458,0.04012185335159302,0.24924395978450775,-0.20750778913497925,0.8777809344298528,0.19526958769004074,-0.3111228019636706,0.3075272002013264
1728066194148562200,1.823562255859375,3.0859110355377197,-0.04428700730204582,0.3080715239048004,-0.6666381359100342,-0.17200413346290588,-0.7252641320228577,0.14391785860061646,-0.08486233651638031,-0.28141921758651733,0.8741764976622463,0.20839045100731865,-0.30649853519300263,0.31376322794310063
1728066194158593300,1.83359326171875,2.373246192932129,-0.065189890563488,-0.05073641240596771,-0.6673269867897034,-0.19117844104766846,-0.7198092937469482,0.14816200733184814,-0.35360610485076904,-0.14434170722961426,0.8708700149260961,0.2204228322767925,-0.30250476361242895,0.31857487138766977
1728066194168623000,1.843623046875,1.1856136322021484,-0.14286039769649506,-0.3135637938976288,-0.6677122712135315,-0.2053253948688507,-0.7155430316925049,0.034121572971343994,-0.4001433849334717,0.24061322212219238,0.8690279756191054,0.22865663609838102,-0.2999077048824861,0.32025291750760987
1728066194178654200,1.853654296875,0.46439263224601746,-0.05594361200928688,-0.2462339997291565,-0.6679025888442993,-0.21285568177700043,-0.7131609916687012,-0.0023702383041381836,-0.3628126382827759,0.47057676315307617,0.8684211499449317,0.23267137479577357,-0.29880349244276827,0.3200394299368434
1728066194188685000,1.86368505859375,0.21018464863300323,0.11870516091585159,-0.14583681523799896,-0.6673163771629333,-0.21638476848602295,-0.7126474976539612,0.01596444845199585,-0.33694469928741455,0.36151230335235596,0.8683869301553921,0.23429657881561908,-0.2979619940529621,0.31973105292101206
1728066194198715100,1.873715087890625,0.07060517370700836,0.3394652307033539,-0.2294963002204895,-0.6653136610984802,-0.21853724122047424,-0.7138621807098389,-0.004135191440582275,-0.24983130395412445,0.23693346977233887,0.868838443732349,0.23479753785373986,-0.29654514586420344,0.31945392365845876
1728066194208746200,1.883746337890625,-0.009979750961065292,0.42317813634872437,-0.3547072410583496,-0.6618743538856506,-0.22064563632011414,-0.7164062261581421,-0.026861608028411865,-0.09977369010448456,0.1662811040878296,0.8698685393644376,0.23469547413483688,-0.29447395778001556,0.3186407199974184
1728066194218777000,1.893777099609375,0.19781020283699036,0.37805673480033875,-0.3412715792655945,-0.6581885814666748,-0.22348825633525848,-0.7189163565635681,0.00779801607131958,0.02558174729347229,0.1311936378479004,0.8709389546502236,0.23488111355408564,-0.29218603773582447,0.31768453253431045
1728066194228807200,1.90380712890625,0.4269053041934967,0.30529215931892395,-0.25338298082351685,-0.6550500988960266,-0.227801114320755,-0.7204276919364929,0.08812510967254639,0.07962299883365631,0.03629988431930542,0.8715324014242529,0.23619022774482665,-0.2898281251477372,0.3172462391183302
1728066194238838300,1.91383837890625,0.4121417999267578,0.2851354777812958,-0.11788961291313171,-0.6525376439094543,-0.2321079522371292,-0.7213324904441833,0.12668925523757935,0.11362345516681671,0.01832956075668335,0.8717308011849834,0.23787401817965537,-0.2876624881898332,0.3174141023809067
1728066194248868400,1.923868408203125,0.3237147331237793,0.22486364841461182,-0.010205496102571487,-0.6505324840545654,-0.23513135313987732,-0.7221639156341553,0.14682459831237793,0.10974986851215363,0.04195761680603027,0.8717565652373739,0.23914392593939243,-0.28588147285082266,0.317997571687612
1728066194258899200,1.933899169921875,0.18608470261096954,0.19422531127929688,0.02510029636323452,-0.6491197347640991,-0.23687341809272766,-0.7228654623031616,0.1284899115562439,0.03280237317085266,0.06019151210784912,0.8717055109426703,0.23992048723891513,-0.2846145089990935,0.3186882518080781
1728066194268930300,1.943930419921875,-0.12003780901432037,0.20415645837783813,-0.01612517051398754,-0.6476686596870422,-0.2371729165315628,-0.7240679264068604,0.07213765382766724,-0.04982966184616089,0.07476067543029785,0.8719336648857332,0.23978758643448866,-0.28366873693063266,0.31900735414866443
1728066194278960000,1.953960205078125,-0.5388877987861633,0.2143888622522354,0.026590334251523018,-0.6462029218673706,-0.2347760945558548,-0.7261556386947632,0.0055474042892456055,-0.0999559760093689,0.12822473049163818,0.8726138629613553,0.2380247094768839,-0.28331327850858345,0.31878356379059397
1728066194288991200,1.9639912109375,-0.9712561964988708,0.2883044481277466,0.15264947712421417,-0.644618570804596,-0.22865551710128784,-0.7295091152191162,-0.010334432125091553,-0.16700488328933716,0.1955735683441162,0.873713346566701,0.2341860473459751,-0.2835530536064034,0.31840148674237906
1728066194299022000,1.97402197265625,-1.4398902654647827,0.41371244192123413,0.2781522572040558,-0.642559289932251,-0.21838892996311188,-0.7344548106193542,0.008571863174438477,-0.2605234384536743,0.22801560163497925,0.8752551793826485,0.22803245448221446,-0.28420731485845024,0.3180499354803145
1728066194309052200,1.98405224609375,-2.0865824222564697,0.45929282903671265,0.31500375270843506,-0.6399155855178833,-0.20352904498577118,-0.7410019636154175,0.034416377544403076,-0.3528521955013275,0.24585425853729248,0.877358831784601,0.21922832029071962,-0.285373350879793,0.3173995679313161
1728066194319083300,1.994083251953125,-3.038473606109619,0.2599054276943207,0.2585282325744629,-0.6377046704292297,-0.18257549405097961,-0.7483307719230652,0.061334431171417236,-0.3854787349700928,0.26210951805114746,0.8801568269569087,0.2069627888199883,-0.2880989665596989,0.31541925993021996
1728066194329113300,2.00411328125,-3.9358081817626953,-0.04497857764363289,0.10173355787992477,-0.6372449994087219,-0.1548943817615509,-0.7549347281455994,0.09369641542434692,-0.316403865814209,0.23555612564086914,0.8835051447340624,0.19100542867308884,-0.2933420325278395,0.3112649279832968
1728066194339144200,2.014144287109375,-4.349304676055908,-0.24853169918060303,-0.24007810652256012,-0.6383578181266785,-0.1234654113650322,-0.7597733736038208,0.11551541090011597,-0.120797298848629,0.0535050630569458,0.8871803326724262,0.1727479564124006,-0.30045206861056056,0.3046272324417689
1728066194349175300,2.02417529296875,-3.9565184116363525,-0.36538833379745483,-0.4403664767742157,-0.6403865814208984,-0.09365128725767136,-0.7623217701911926,0.06059837341308594,0.19826552271842957,-0.08499878644943237,0.890707457171416,0.15500601372882908,-0.30791598347507704,0.2963125413292924
1728066194359205000,2.034205078125,-2.7498795986175537,-0.2965429425239563,-0.17033790051937103,-0.6427958011627197,-0.06978129595518112,-0.7628526091575623,-0.015056312084197998,0.5119962692260742,-0.11344438791275024,0.8931744894642626,0.14082607529901564,-0.3142319456731618,0.2892500585575301
1728066194369236200,2.044236328125,-1.0210540294647217,-0.08444806188344955,0.31938436627388,-0.6443654894828796,-0.05474267154932022,-0.7627557516098022,-0.03423863649368286,0.6799104809761047,-0.23135435581207275,0.8940416553946032,0.1324835679751996,-0.31791545037345936,0.28647394150642874
1728066194379266300,2.054266357421875,0.42528989911079407,0.14557874202728271,0.5161619186401367,-0.6443208456039429,-0.04992205649614334,-0.7631241083145142,-0.05602705478668213,0.6658888459205627,-0.38201749324798584,0.8936232205656971,0.13058530905011823,-0.3184107652817984,0.288096526105548
1728066194389297200,2.064297119140625,0.8543061017990112,0.175449937582016,0.43181344866752625,-0.6432378888130188,-0.052205052226781845,-0.7638845443725586,-0.09980404376983643,0.5199937224388123,-0.31184476613998413,0.8927366588453761,0.13271814132350646,-0.3169284099726047,0.2914848311673105
1728066194399328300,2.074328369140625,0.7264946103096008,0.012863149866461754,0.3535096049308777,-0.6426879167556763,-0.05578092485666275,-0.7640946507453918,-0.07647395133972168,0.31246423721313477,-0.03543531894683838,0.8917808794882081,0.13551643075987202,-0.31557561340386764,0.29457440958215675
1728066194409358300,2.0843583984375,0.514499306678772,-0.2701254189014435,0.30251964926719666,-0.643858015537262,-0.05845392495393753,-0.7629088759422302,0.009367108345031738,0.05856071040034294,0.033752381801605225,0.8906568713680175,0.13798897851695555,-0.3154434927560835,0.29695927286445634
1728066194419389200,2.09438916015625,0.07351521402597427,-0.5014294981956482,0.2065209597349167,-0.6470491290092468,-0.05909688398241997,-0.7601546049118042,0.049331843852996826,-0.16853375732898712,-0.0190812349319458,0.8894267304139136,0.13952913605507686,-0.31694530518800007,0.29832434869695434
1728066194429420300,2.104420166015625,-0.4336800277233124,-0.5765606760978699,0.05618790537118912,-0.6512678265571594,-0.05688593536615372,-0.7567127346992493,0.0162886381149292,-0.28338509798049927,0.004378199577331543,0.8884879522010427,0.13933680309596752,-0.3197325247446633,0.29823710946237236
1728066194439450400,2.114450439453125,-0.8625336289405823,-0.5933748483657837,0.02636636234819889,-0.6557631492614746,-0.051635563373565674,-0.7531987428665161,-0.044691503047943115,-0.2811128795146942,0.03782093524932861,0.8879474262808406,0.13720327994851358,-0.3233819555774709,0.2968981922563842
1728066194449481200,2.124481201171875,-0.8809003829956055,-0.5947935581207275,0.09817956387996674,-0.6602540016174316,-0.04443489760160446,-0.7497267127037048,-0.044717252254486084,-0.21377435326576233,0.004441678524017334,0.8875045348094494,0.13396704934955772,-0.3273980432963679,0.29529472646368865
1728066194459511300,2.13451123046875,-0.8041864037513733,-0.6069663763046265,0.1785324662923813,-0.6648592948913574,-0.03729956969618797,-0.7460367679595947,-0.014523029327392578,-0.14272364974021912,-0.08375144004821777,0.8868512152404258,0.13094519739679417,-0.3314135983300474,0.2941313293295464
1728066194469542100,2.144542236328125,-0.8658523559570312,-0.5886232256889343,0.2844974994659424,-0.6694096922874451,-0.029480064287781715,-0.7423082590103149,-0.020455360412597656,-0.07011407613754272,-0.07777535915374756,0.8860457258780944,0.1277145623628418,-0.33546215751537306,0.29338900805656304
1728066194479573200,2.1545732421875,-0.9232384562492371,-0.5360652208328247,0.33262109756469727,-0.6737488508224487,-0.020762521773576736,-0.73866868019104,-0.02748405933380127,-0.04756636545062065,-0.07599806785583496,0.8851750699292983,0.12407761699321776,-0.33951496369093165,0.29291537392387623
1728066194489603300,2.164603271484375,-1.1883273124694824,-0.44641628861427307,0.2948947548866272,-0.6774367094039917,-0.010816419497132301,-0.7355015277862549,-0.0450669527053833,-0.062151141464710236,-0.06183123588562012,0.8844955007408363,0.11959523714434692,-0.3434329733323992,0.29226442180941925
1728066194499634200,2.17463427734375,-1.614768385887146,-0.47147610783576965,0.1753595769405365,-0.6808010339736938,0.0011777974432334304,-0.7324674725532532,-0.06730687618255615,-0.0509062223136425,0.01605212688446045,0.8841939558151092,0.11358572014511195,-0.3476557792983732,0.2905768059757332
1728066194509665300,2.184665283203125,-1.380474328994751,-0.4433255195617676,0.18486972153186798,-0.6842741966247559,0.013695534318685532,-0.7290961742401123,-0.07070010900497437,0.0026923734694719315,0.055222272872924805,0.8839533320013706,0.10713024339097513,-0.35210087703404136,0.28840002765651823
1728066194519695400,2.1946953125,-0.8045012950897217,-0.2189808487892151,0.22638840973377228,-0.6866900324821472,0.023114655166864395,-0.7265827655792236,-0.027345001697540283,0.05412530153989792,-0.006144285202026367,0.8836271164050584,0.10240191267659063,-0.3552780135248799,0.2872185462445182
1728066194529726200,2.204726318359375,-0.49795854091644287,-0.020154081284999847,0.16900634765625,-0.6874924302101135,0.029095200821757317,-0.7256084084510803,-0.0109633207321167,0.12695640325546265,0.005149424076080322,0.8834409472992703,0.099424185299427,-0.3568061484760247,0.28694291645265735
1728066194539756500,2.214756591796875,-0.3082970082759857,0.055316973477602005,0.07598664611577988,-0.6873013377189636,0.032939206808805466,-0.7256250977516174,-0.0165255069732666,0.23987264931201935,0.03159439563751221,0.883502974610802,0.0973519612058176,-0.3573654206736729,0.2867662776765696
1728066194549787600,2.22478759765625,-0.04314536228775978,0.057703375816345215,0.012919798493385315,-0.6868976950645447,0.034486059099435806,-0.7259353399276733,0.0067830681800842285,0.2648303210735321,0.08938449621200562,0.8836268667565249,0.09642877189795421,-0.35739867987651147,0.28665490169266356
1728066194559818500,2.234818603515625,0.1781177818775177,0.08371713757514954,0.12394510954618454,-0.6863999366760254,0.034458957612514496,-0.7264074087142944,0.04536294937133789,0.20527184009552002,0.07888543605804443,0.8836301044881809,0.09649327901452523,-0.3570508872986377,0.28705668732629824
1728066194569848600,2.2448486328125,0.5000835061073303,0.12197680026292801,0.21467529237270355,-0.685623049736023,0.033268555998802185,-0.7271961569786072,0.08821094036102295,0.08848129212856293,0.06984758377075195,0.8833722987989797,0.09752026615528911,-0.3562186249771343,0.28853342222691686
1728066194579879400,2.25487939453125,0.5372055768966675,0.15510785579681396,0.10221132636070251,-0.6845646500587463,0.030425388365983963,-0.7283169031143188,0.07959944009780884,-0.04421936720609665,-0.004806876182556152,0.8831019047313686,0.09944846617776763,-0.3548965391539829,0.29032637107636916
1728066194589909500,2.264909423828125,0.3524336516857147,0.22624365985393524,0.0024596997536718845,-0.6832140684127808,0.027534963563084602,-0.7296988368034363,0.007509112358093262,-0.06255391985177994,-0.01225978136062622,0.8831376206165373,0.10104386522526994,-0.35346953943775866,0.291405932582997
1728066194599940600,2.274940673828125,0.36553773283958435,0.35236406326293945,0.01481676660478115,-0.6811296343803406,0.02503632754087448,-0.7317346930503845,-0.02606940269470215,0.011111710220575333,0.06838929653167725,0.8834566018252566,0.10215022312990978,-0.35170725832941535,0.2921846241451591
1728066194609971500,2.284971435546875,0.6050901412963867,0.489553838968277,0.021232588216662407,-0.6780335307121277,0.02174246497452259,-0.7347092628479004,-0.02887558937072754,0.10919317603111267,0.08714151382446289,0.8839170186878708,0.10357483562981022,-0.34916703616309447,0.2933346562459385
1728066194620001500,2.29500146484375,0.969395637512207,0.5990145802497864,0.03707573190331459,-0.6740261316299438,0.016131987795233727,-0.7385312914848328,-0.04425078630447388,0.21084246039390564,0.08499741554260254,0.8844099061180726,0.10620374651459077,-0.345622802815815,0.29510101390245386
1728066194630032600,2.30503271484375,1.2830288410186768,0.6411253809928894,0.14115633070468903,-0.6693535447120667,0.00830766186118126,-0.742897629737854,-0.04820626974105835,0.28266215324401855,0.062813401222229,0.8847551783201539,0.11013387718643197,-0.3412062754054973,0.29775346042874806
1728066194640063500,2.3150634765625,1.4968284368515015,0.5405793190002441,0.3307906985282898,-0.6648480296134949,-0.0005652768304571509,-0.7469784021377563,0.0049664974212646484,0.2638861835002899,-0.017975211143493652,0.8846316274868676,0.11503688461475556,-0.33656696125131585,0.30152284606198915
1728066194650093600,2.325093505859375,1.565940022468567,0.2752538025379181,0.44841188192367554,-0.6617971062660217,-0.009440929628908634,-0.7496235370635986,0.1106191873550415,0.10984373092651367,-0.12194323539733887,0.8837985766584622,0.120560695462238,-0.3326459813681613,0.3061239629098884
1728066194660124400,2.33512451171875,1.428760051727295,0.02928052470088005,0.31868237257003784,-0.6607592105865479,-0.018172964453697205,-0.750377893447876,0.18921685218811035,-0.12866239249706268,-0.14384818077087402,0.8824801846546791,0.12637892745168974,-0.3299081826315246,0.31051190255849737
1728066194670154500,2.345154541015625,0.8634406924247742,-0.09649508446455002,0.09154137223958969,-0.6611407399177551,-0.025721140205860138,-0.7498208284378052,0.1594012975692749,-0.31572481989860535,-0.07740390300750732,0.8813343332065858,0.13133211185039875,-0.32839226067142224,0.31330497570223653
1728066194680185600,2.355185546875,0.032059378921985626,-0.16599293053150177,0.06179226189851761,-0.6621664762496948,-0.028538372367620468,-0.7488131523132324,0.0745963454246521,-0.3386796712875366,0.08160734176635742,0.8807215706988021,0.13334891062118262,-0.3283466123829331,0.3142230565314301
1728066194690216400,2.365216552734375,-0.4145340919494629,-0.22503526508808136,0.11331404745578766,-0.6637114882469177,-0.026305876672267914,-0.7475259304046631,0.028320252895355225,-0.2532809376716614,0.14062285423278809,0.8803884810793456,0.13256024351573503,-0.32964347684586415,0.31413202550566505
1728066194700246500,2.37524658203125,-0.526758074760437,-0.16119743883609772,0.08262244611978531,-0.6652857661247253,-0.021915540099143982,-0.7462670207023621,-0.024960756301879883,-0.1268271654844284,0.044530630111694336,0.8802053506462632,0.13053701353639866,-0.33140092340948857,0.31364308447303574
1728066194710277600,2.385277587890625,-0.25316810607910156,0.04504004493355751,0.009351162239909172,-0.6657896041870117,-0.01844455488026142,-0.7459114789962769,-0.0978516936302185,0.04465913027524948,-0.02546602487564087,0.8803011613883017,0.1286943759913301,-0.3323883544930994,0.3130901841978328
1728066194720308500,2.39530859375,0.33839452266693115,0.19333390891551971,-0.02772057242691517,-0.6648414731025696,-0.018841104581952095,-0.746746838092804,-0.12710487842559814,0.18897657096385956,-0.07454222440719604,0.8805018807500657,0.12870402663793282,-0.3317557319256469,0.3131930359429322
1728066194730338600,2.405338623046875,0.8159052133560181,0.18266911804676056,-0.0013779154978692532,-0.6633904576301575,-0.023351363837718964,-0.7479090094566345,-0.08783024549484253,0.2749992907047272,-0.0999913215637207,0.880468655480601,0.13101698600589334,-0.3299697577842256,0.3142126372012678
1728066194740369700,2.41536962890625,1.1527658700942993,0.10569311678409576,0.0410291962325573,-0.6622981429100037,-0.03064696677029133,-0.7486132979393005,-0.012933731079101562,0.3112408220767975,-0.07932853698730469,0.8800123650940336,0.13512775273839273,-0.3277710111816405,0.3160456744305015
1728066194750399500,2.4253994140625,1.4171208143234253,0.009591083973646164,0.05944788455963135,-0.6619263887405396,-0.039916351437568665,-0.7485052943229675,0.04905712604522705,0.26458674669265747,-0.10499507188796997,0.879124080858673,0.14061400119780945,-0.3255381143465989,0.31842348011314847
1728066194760430600,2.4354306640625,1.6544606685638428,-0.0572981983423233,0.015789620578289032,-0.6621432304382324,-0.05123969912528992,-0.7476235032081604,0.06776762008666992,0.13420170545578003,-0.1347312331199646,0.877888919155639,0.14740883578949185,-0.32320099506408817,0.32112752273523437
1728066194770461400,2.44546142578125,1.551326870918274,-0.0692993700504303,-0.08605365455150604,-0.6626553535461426,-0.06360288709402084,-0.7462188005447388,0.037930071353912354,-0.013209879398345947,-0.12499701976776123,0.8766009537386191,0.154706769969087,-0.3208682401116394,0.3235429590258634
1728066194780491500,2.455491455078125,1.21492600440979,-0.026123132556676865,-0.07546199858188629,-0.6629844307899475,-0.07455721497535706,-0.7449113726615906,-0.00994342565536499,-0.08564483374357224,-0.0490339994430542,0.8755643632085038,0.16102339141281485,-0.3187723256587275,0.3253348126806667
1728066194790522600,2.465522705078125,0.8298574090003967,-0.048546094447374344,0.029286252334713936,-0.6632065773010254,-0.08235079795122147,-0.7438919544219971,0.0018450021743774414,-0.12443632632493973,-0.016148269176483154,0.8747127910782357,0.16560355548026354,-0.31722150734726307,0.3268383381702538
1728066194800552700,2.475552734375,0.36913028359413147,-0.14066830277442932,0.12390623241662979,-0.6639998555183411,-0.08628661930561066,-0.742737352848053,0.04153287410736084,-0.16360658407211304,-0.0075678229331970215,0.8739223406090739,0.16826670989816486,-0.31672960487577395,0.3280676245864788
1728066194810583600,2.48558349609375,-0.01958157867193222,-0.1554340422153473,0.10705374926328659,-0.6652798652648926,-0.08668006211519241,-0.7415452003479004,0.04731416702270508,-0.18288172781467438,0.01753091812133789,0.8733301788990281,0.16904608513588343,-0.31725514738488464,0.3287354597003152
1728066194820614700,2.49561474609375,-0.290569931268692,-0.14125829935073853,0.05899807810783386,-0.6664430499076843,-0.08495621383190155,-0.7406997680664062,0.011688470840454102,-0.18416306376457214,0.02588653564453125,0.873098319840548,0.16846133559390053,-0.318230902156508,0.3287084983540647
1728066194830644500,2.50564453125,-0.5927824378013611,-0.20183514058589935,0.09130008518695831,-0.667770266532898,-0.08115778863430023,-0.7399299144744873,-0.01188671588897705,-0.15565863251686096,0.024780988693237305,0.8730818571564725,0.166671614745493,-0.31977432718228105,0.3281660164367778
1728066194840675600,2.515675537109375,-0.7646418213844299,-0.20505782961845398,0.13799862563610077,-0.669387698173523,-0.07521926611661911,-0.7390955090522766,0.02294909954071045,-0.10764208436012268,0.0010126829147338867,0.8731256023478585,0.16378758500466686,-0.32190971751937164,0.3274132368595736
1728066194850706700,2.525706787109375,-0.843171238899231,-0.2039179503917694,0.12597231566905975,-0.6710245609283447,-0.06826602667570114,-0.7382857203483582,0.04117226600646973,-0.07646360993385315,-0.02827000617980957,0.8732177774274851,0.16034928378445432,-0.3242610632337939,0.3265480915669612
1728066194860736500,2.535736572265625,-0.8491963744163513,-0.20701387524604797,0.08848193287849426,-0.6726728677749634,-0.06123350188136101,-0.7374019026756287,0.037876784801483154,-0.05506901443004608,-0.009759902954101562,0.8733736436683112,0.15678747218477807,-0.326675257731416,0.32545254898138287
1728066194870767600,2.545767578125,-0.7765771746635437,-0.19564302265644073,0.0697316825389862,-0.6741887927055359,-0.05463150143623352,-0.7365356683731079,0.023309946060180664,-0.03199266642332077,0.02407228946685791,0.873551232440885,0.15339078270251308,-0.3289429061889614,0.32430842568031043
1728066194880797400,2.55579736328125,-0.6397277116775513,-0.19233031570911407,0.019190743565559387,-0.6756399273872375,-0.04900669306516647,-0.7356011271476746,0.01881009340286255,-0.004994183778762817,0.03651970624923706,0.8736867248783309,0.15049407580006646,-0.3309848562606174,0.32322122102540635
1728066194890828500,2.56582861328125,-0.5322661995887756,-0.1637014001607895,-0.004366515204310417,-0.676975667476654,-0.044668279588222504,-0.7346487045288086,0.005390584468841553,0.034704264253377914,0.032332420349121094,0.8738227240850762,0.14821231765915466,-0.3327292572394048,0.3221152024248512
1728066194900859600,2.575859619140625,-0.4147683084011078,-0.11261983215808868,0.05603876709938049,-0.6780409812927246,-0.04100767895579338,-0.7338792681694031,-0.02967691421508789,0.07547725737094879,0.033607661724090576,0.8738945232454219,0.14632277718162187,-0.3341407025617445,0.3213222250432131
1728066194910889500,2.585889404296875,-0.35871773958206177,-0.024700362235307693,0.04609772190451622,-0.6785600185394287,-0.03780936822295189,-0.7335711717605591,-0.050718486309051514,0.0599193312227726,0.022008121013641357,0.8739672063501495,0.1446629258335887,-0.33509258194347596,0.320884362982558
1728066194920920600,2.595920654296875,-0.45308366417884827,0.023861844092607498,-0.010061951354146004,-0.6785627603530884,-0.03472466021776199,-0.733721137046814,-0.07175761461257935,0.011668603867292404,0.027513861656188965,0.8742244531537496,0.1428723494511011,-0.33574830677863005,0.32029996761094454
1728066194930951700,2.60595166015625,-0.5568045377731323,0.008986120112240314,-0.06125989183783531,-0.6783932447433472,-0.03125987946987152,-0.7340335845947266,-0.04523950815200806,-0.024114292114973068,0.05861854553222656,0.8746821567496391,0.1406826579683976,-0.336439581711627,0.319292604563603
1728066194940981500,2.6159814453125,-0.6255450248718262,-0.13025406002998352,-0.07040145993232727,-0.6788020730018616,-0.02729037031531334,-0.7338139414787292,0.013595163822174072,-0.04944610595703125,0.07963919639587402,0.8751039416156232,0.13825897828980677,-0.3376055006453476,0.31796221071583564
1728066194951012600,2.6260126953125,-0.5856079459190369,-0.15232037007808685,-0.10166537016630173,-0.6799001097679138,-0.023350387811660767,-0.7329328656196594,0.0676565170288086,-0.07294785976409912,0.061088383197784424,0.8754007011336977,0.135951464329601,-0.33919133956254977,0.31644915682097696
1728066194961042400,2.63604248046875,-0.5859336256980896,-0.11197695136070251,-0.11703234165906906,-0.6808758974075317,-0.0198405459523201,-0.7321299910545349,0.03394901752471924,-0.09382220357656479,0.03823655843734741,0.8757365059949156,0.13380668522190703,-0.34063289727336005,0.31488187759603486
1728066194971073300,2.6460732421875,-0.5692446231842041,-0.10008108615875244,-0.1520979106426239,-0.6816369891166687,-0.016416901722550392,-0.73150634765625,-0.0077245235443115234,-0.09260717779397964,0.0676422119140625,0.8761459046242625,0.13162070228565526,-0.34193979078212267,0.3132437103832463
1728066194981104600,2.656104736328125,-0.5343119502067566,-0.11817885935306549,-0.20308999717235565,-0.6824401021003723,-0.013621028512716293,-0.7308145761489868,-0.00946962833404541,-0.0779012143611908,0.07667034864425659,0.8765894865017717,0.12969773424223097,-0.3431781056514478,0.31144514780682153
1728066194991134500,2.666134521484375,-0.5496491193771362,-0.1422247439622879,-0.2082892805337906,-0.6833683252334595,-0.011052864603698254,-0.7299901247024536,-0.0015834569931030273,-0.03833986446261406,0.06812489032745361,0.8770407663727079,0.12786262751268168,-0.34446492995740907,0.30950699212908833
1728066195001165300,2.676165283203125,-0.4557383358478546,-0.18724122643470764,-0.20669430494308472,-0.6845881342887878,-0.008705517277121544,-0.7288780212402344,0.011553525924682617,0.00838505569845438,0.08854299783706665,0.8773992118449948,0.12621385756235282,-0.3458772000975265,0.30758656698658626
1728066195011195400,2.6861953125,-0.2811424136161804,-0.19442197680473328,-0.18167151510715485,-0.6859732270240784,-0.007357883267104626,-0.7275895476341248,0.0009299516677856445,0.023455876857042313,0.05948352813720703,0.8775947156673894,0.125232050245841,-0.34716302189839665,0.3059774144970511
1728066195021226500,2.6962265625,-0.2369195520877838,-0.22804836928844452,-0.15798643231391907,-0.6875282526016235,-0.006684655789285898,-0.7261267900466919,-0.02153235673904419,0.010117853060364723,0.0034095048904418945,0.8776321523323393,0.12475177751585603,-0.3483871282204862,0.304672115075931
1728066195031257300,2.70625732421875,-0.2513893246650696,-0.19555221498012543,-0.15909883379936218,-0.689082145690918,-0.005994804203510284,-0.7246584296226501,-0.038304269313812256,-0.009431860409677029,-0.02303755283355713,0.8776481366595132,0.12428068825170656,-0.34960707906598393,0.30341866233946563
1728066195041287400,2.716287353515625,-0.19201332330703735,-0.1392868012189865,-0.1521919220685959,-0.6903241276741028,-0.005430706311017275,-0.7234798073768616,-0.07110470533370972,-0.0332961305975914,-0.05307042598724365,0.8777276697411386,0.1238152176718556,-0.35061357336648136,0.3022150236065014
1728066195051318500,2.726318603515625,-0.1887761950492859,-0.12277498841285706,-0.13339853286743164,-0.6912389397621155,-0.005108354613184929,-0.722608208656311,-0.07806336879730225,-0.07788422703742981,-0.09036481380462646,0.8778247657114719,0.12347131921087279,-0.35135556400482854,0.30121055529469243
1728066195061349400,2.736349365234375,-0.37025731801986694,-0.1445399522781372,-0.1490882784128189,-0.692233145236969,-0.0040554325096309185,-0.7216624617576599,-0.04053962230682373,-0.12494239956140518,-0.06865113973617554,0.8779581749497781,0.12270355842472369,-0.3522961698187568,0.3000341330902635
1728066195071379500,2.74637939453125,-0.5061763525009155,-0.09924501180648804,-0.18675681948661804,-0.693153977394104,-0.0020113568753004074,-0.7207866907119751,-0.007483780384063721,-0.14396950602531433,0.010459542274475098,0.8782541509162098,0.12123947115977923,-0.35342276341166495,0.29843406041000015
1728066195081410300,2.756410400390625,-0.578174352645874,-0.10078831762075424,-0.22315610945224762,-0.6938446760177612,0.0005727311363443732,-0.7201244831085205,0.0067871809005737305,-0.13909204304218292,0.05470395088195801,0.8787177397380269,0.11930972750418918,-0.3545461344081781,0.29650849195630113
1728066195091440400,2.7664404296875,-0.5679242014884949,-0.14807924628257751,-0.23507481813430786,-0.6948089003562927,0.003168093040585518,-0.7191874384880066,0.022659242153167725,-0.10454751551151276,0.09859722852706909,0.8791600961790923,0.1173614313458117,-0.35585471323689766,0.29439973658985863
1728066195101471500,2.776471435546875,-0.45479416847229004,-0.053401995450258255,-0.27077770233154297,-0.6955906748771667,0.005122354719787836,-0.7184200286865234,0.030749976634979248,-0.041926585137844086,0.08769798278808594,0.8796391986348577,0.11570044949651132,-0.35693610917628366,0.2923095351241163
1728066195111502300,2.78650244140625,-0.3664567768573761,-0.08994871377944946,-0.265282541513443,-0.696069598197937,0.00620648730546236,-0.7179474830627441,0.007196366786956787,0.015369409695267677,0.04193735122680664,0.880160902933912,0.11445399870259179,-0.3576682189923155,0.29032822298955785
1728066195121532400,2.796532470703125,-0.18313062191009521,-0.11619842797517776,-0.24825426936149597,-0.6969031095504761,0.0064470344223082066,-0.7171362638473511,0.01785653829574585,0.039054643362760544,0.026737093925476074,0.8804775741105753,0.11384939191033644,-0.3584273650950783,0.28866477219683834
1728066195131563500,2.8065634765625,-0.10736476629972458,-0.08859594166278839,-0.3017510771751404,-0.6976675987243652,0.0055593764409422874,-0.7163999080657959,0.025960564613342285,0.04589322954416275,-0.049225032329559326,0.880765452877601,0.11386328935757835,-0.35893619633431434,0.2871444590052117
1728066195141594400,2.816594482421875,-0.032596781849861145,-0.1396508514881134,-0.270999550819397,-0.69851154088974,0.0040072305127978325,-0.7155875563621521,-0.018407344818115234,0.059484560042619705,-0.0395546555519104,0.88101048295745,0.11425935766660718,-0.3593758776146868,0.28568224366019196
1728066195151624400,2.82662451171875,-0.11124325543642044,-0.10206060856580734,-0.28006014227867126,-0.6994593739509583,0.002608009148389101,-0.7146676182746887,-0.05371445417404175,0.02232482098042965,-0.02178257703781128,0.8811917414758215,0.11463941796265265,-0.3598944203447865,0.2843148077171919
1728066195161655600,2.836655517578125,-0.27814731001853943,-0.010839089751243591,-0.27392342686653137,-0.6998624205589294,0.001956006744876504,-0.7142750024795532,-0.10920435190200806,-0.025179915130138397,-0.07257497310638428,0.8816030690648408,0.11440378027575954,-0.36024196938242564,0.2826897915057401
1728066195171685400,2.846685302734375,-0.5238142013549805,0.054198071360588074,-0.20378054678440094,-0.699711799621582,0.0031509336549788713,-0.7144182920455933,-0.1677808165550232,-0.05124666914343834,-0.06574833393096924,0.88220837487187,0.11303257792098423,-0.3605752379998502,0.28092265657447946
1728066195181716500,2.856716552734375,-0.6994789242744446,0.157834991812706,-0.1848345547914505,-0.6990104913711548,0.006256405264139175,-0.7150840759277344,-0.17315137386322021,-0.07016024738550186,-0.045322418212890625,0.8830005574824084,0.11049798564953328,-0.36089911501428695,0.2790197629562434
1728066195191747300,2.866747314453125,-0.8230438828468323,0.1844308078289032,-0.20538590848445892,-0.6977103352546692,0.010382242500782013,-0.7163046598434448,-0.13940197229385376,-0.0910249799489975,-0.0858803391456604,0.8840142877929595,0.10721557671698805,-0.36104360335109553,0.27689515117919355
1728066195201777400,2.87677734375,-0.9027435183525085,0.06048062816262245,-0.23720428347587585,-0.6968488693237305,0.015069418586790562,-0.7170596122741699,-0.052845895290374756,-0.07994982600212097,-0.0478176474571228,0.885002136481222,0.10359913264400648,-0.3615762895407902,0.27441003670473546
1728066195211808500,2.88680859375,-0.8481841683387756,-0.04841293767094612,-0.24163338541984558,-0.696897566318512,0.01981572061777115,-0.7168968319892883,0.04894840717315674,-0.012750934809446335,0.0009086132049560547,0.8857838078700403,0.10007192610427418,-0.3626805808581606,0.2717265746309258
1728066195221838600,2.896838623046875,-0.6111753582954407,-0.051312319934368134,-0.21329282224178314,-0.697381854057312,0.023499391973018646,-0.7163143754005432,0.09131801128387451,0.07327181100845337,-0.03808015584945679,0.8863506051173511,0.09730062900603194,-0.3638343023458688,0.2693318553534157
1728066195231869400,2.906869384765625,-0.39733919501304626,0.0019169189035892487,-0.17486581206321716,-0.6976115107536316,0.025735562667250633,-0.7160138487815857,0.05932110548019409,0.11607959121465683,-0.08501148223876953,0.8868006107713837,0.09547408022308143,-0.3645240206101005,0.2675660547746507
1728066195241900500,2.916900634765625,-0.3504047095775604,0.07036256045103073,-0.17269985377788544,-0.6974305510520935,0.027142072096467018,-0.7161381840705872,0.02267169952392578,0.09393638372421265,-0.055544495582580566,0.8872621368076645,0.09412876990379301,-0.3647885345553234,0.2661485215154366
1728066195251930400,2.926930419921875,-0.46006128191947937,0.062335629016160965,-0.18491019308567047,-0.6969792246818542,0.028837954625487328,-0.7165112495422363,0.03760117292404175,0.022950341925024986,-0.007548809051513672,0.8878150122311507,0.09254436245526569,-0.36493823993118846,0.2646509480027937
1728066195261961500,2.93696142578125,-0.5656306147575378,0.03389333188533783,-0.22779187560081482,-0.6967122554779053,0.031073208898305893,-0.7166773676872253,0.09910190105438232,-0.04675928130745888,0.029482543468475342,0.8884051970306792,0.09058484862914082,-0.3653159058911105,0.26282089915544077
1728066195271992300,2.946992431640625,-0.6829060912132263,-0.013004187494516373,-0.2856599688529968,-0.6967352628707886,0.03378964588046074,-0.7165321707725525,0.14722049236297607,-0.06719116866588593,0.058847784996032715,0.8890402036951913,0.08824603066354338,-0.36598710760204334,0.26052582291069715
1728066195282022400,2.9570224609375,-0.6868046522140503,-0.0906960517168045,-0.2948406934738159,-0.6972087621688843,0.03672695532441139,-0.7159266471862793,0.14836543798446655,-0.02192596346139908,0.1095271110534668,0.8896281399511934,0.08575765193548354,-0.36699086112286033,0.25792439851408006
1728066195292053500,2.967053466796875,-0.5523262619972229,-0.0861978679895401,-0.29121825098991394,-0.6980351805686951,0.039177194237709045,-0.7149909138679504,0.13033199310302734,0.04361696168780327,0.10738593339920044,0.8900829123273203,0.0836347002957412,-0.368116539654551,0.25543653685192336
1728066195302083600,2.97708349609375,-0.36467456817626953,-0.11297009140253067,-0.34473422169685364,-0.6988330483436584,0.04026702046394348,-0.7141504883766174,0.11169016361236572,0.09755032509565353,0.038140296936035156,0.8905056590105808,0.08227847995878391,-0.36899189576340874,0.2531301205917133
1728066195312114400,2.987114501953125,-0.11665540188550949,-0.2368115484714508,-0.375717431306839,-0.7002144455909729,0.039468083530664444,-0.7128407955169678,0.1005135178565979,0.11618678271770477,0.0064351558685302734,0.890743644985188,0.08208062716857785,-0.36992211397678476,0.25099023591467023
1728066195322145500,2.9971455078125,-0.019548553973436356,-0.3411475718021393,-0.383413702249527,-0.7024192810058594,0.03717999905347824,-0.7107915878295898,0.10522085428237915,0.09358778595924377,-0.0034265518188476562,0.8907033552346347,0.08291224786456355,-0.37111959779310294,0.24908470823971007
1728066195332175600,3.007175537109375,0.008145390078425407,-0.38592302799224854,-0.40078631043434143,-0.705184817314148,0.03449156880378723,-0.7081840634346008,0.07492059469223022,0.06076901778578758,0.00711899995803833,0.8905060971555444,0.0840556947211513,-0.37261589332060957,0.24716576475809812
1728066195342206500,3.01720654296875,0.022574663162231445,-0.391155868768692,-0.41649389266967773,-0.7081354260444641,0.03143846243619919,-0.7053763270378113,0.018316149711608887,0.028696388006210327,0.010887861251831055,0.890260190441321,0.08540578134326211,-0.37418937639114835,0.24520364111167287
1728066195352236500,3.027236572265625,0.027100972831249237,-0.3649525046348572,-0.42866960167884827,-0.7109311819076538,0.028259607031941414,-0.7026935815811157,-0.02466452121734619,0.03163110464811325,-0.029102683067321777,0.8900612920664533,0.08676436653016825,-0.3756662802832672,0.24318234782949175
1728066195362267400,3.037267333984375,0.06464381515979767,-0.3412381112575531,-0.36464959383010864,-0.7135115265846252,0.025067739188671112,-0.7001948952674866,-0.04304969310760498,0.0646539032459259,-0.04933208227157593,0.8898590178529486,0.08816452803217992,-0.37700077140636234,0.24134664133875547
1728066195372298500,3.047298583984375,0.049892570823431015,-0.3537200689315796,-0.31816092133522034,-0.7160660624504089,0.022210609167814255,-0.6976790428161621,-0.01945328712463379,0.07169194519519806,-0.06397867202758789,0.8895745026835508,0.08950083506172087,-0.3783517923243842,0.23978468506403763
1728066195382328600,3.05732861328125,-0.032600972801446915,-0.37671566009521484,-0.28648024797439575,-0.7186278700828552,0.019966552034020424,-0.6951080560684204,-0.0018920302391052246,0.03382064402103424,0.012017905712127686,0.8892483157598704,0.09055505789668002,-0.379796979076872,0.23830944769056805
1728066195392359400,3.067359375,-0.057833895087242126,-0.4645126461982727,-0.31390759348869324,-0.7216411828994751,0.018228963017463684,-0.6920271515846252,0.012382268905639648,0.0015616491436958313,0.08581078052520752,0.888819985185635,0.09136270746280474,-0.3816271572276745,0.2366694312075359
1728066195402390500,3.077390625,0.07666532695293427,-0.520235538482666,-0.2649480402469635,-0.7251340746879578,0.016046635806560516,-0.6884207129478455,0.012533426284790039,0.025319905951619148,0.06351226568222046,0.8882126222620231,0.09254318828033085,-0.383699635128447,0.23513534474923994
1728066195412420600,3.087420654296875,0.16637350618839264,-0.5140882134437561,-0.18828174471855164,-0.7287549376487732,0.013512590900063515,-0.6846412420272827,-0.011799812316894531,0.06471918523311615,-0.024999260902404785,0.8874111777785618,0.09416858010342613,-0.38576112881523245,0.23414112828321426
1728066195422451500,3.097451416015625,0.08219045400619507,-0.5484073162078857,-0.1598125547170639,-0.7324078679084778,0.011372167617082596,-0.6807712316513062,-0.027662932872772217,0.04822862893342972,-0.04710358381271362,0.8865187798130743,0.09570240576556731,-0.38788586763807337,0.23338840436703864
1728066195432481500,3.1074814453125,-0.059477727860212326,-0.4994892179965973,-0.14949840307235718,-0.7360222339630127,0.010203341953456402,-0.676880419254303,-0.044006943702697754,-0.013896003365516663,0.012375414371490479,0.885660219224748,0.09665114069928629,-0.3901517168654586,0.23247812924749386
1728066195442512600,3.1175126953125,-0.16039900481700897,-0.47688961029052734,-0.12986718118190765,-0.7393219470977783,0.009964990429580212,-0.673278272151947,-0.04156172275543213,-0.06811627000570297,0.0503993034362793,0.8849219424671871,0.0969777454520362,-0.3923724959349618,0.23141334127140775
1728066195452543500,3.12754345703125,-0.18675924837589264,-0.5220314860343933,-0.11085434257984161,-0.7426958084106445,0.01024632528424263,-0.6695504784584045,0.0037279725074768066,-0.06537636369466782,0.04865509271621704,0.8841623053662492,0.09701647841459532,-0.3947309970767446,0.2302871486763048
1728066195462573600,3.137573486328125,-0.19156251847743988,-0.50815749168396,-0.06637822091579437,-0.746200680732727,0.010875988751649857,-0.6656321883201599,0.040542781352996826,-0.013317430391907692,0.03721421957015991,0.8833222020345234,0.09693816725844517,-0.39722399383925167,0.22925510775189653
1728066195472604400,3.1476044921875,-0.08478135615587234,-0.4570714235305786,-0.04881121218204498,-0.7494187355041504,0.011454996652901173,-0.6619971990585327,0.039976656436920166,0.019154097884893417,0.038217902183532715,0.8824898950398056,0.09694954593992319,-0.39950241256312313,0.22849547302879242
1728066195482635500,3.157635498046875,-0.02355607971549034,-0.4540785849094391,-0.04296530783176422,-0.7524587512016296,0.011369715444743633,-0.658541202545166,0.03323572874069214,0.0007457258179783821,0.018679141998291016,0.8816474331241715,0.09738112433872595,-0.4015548837599598,0.22796554053884263
1728066195492665600,3.16766552734375,-0.06564667820930481,-0.46704426407814026,-0.007410774473100901,-0.7554934024810791,0.011473516933619976,-0.6550557017326355,0.03935271501541138,-0.025801554322242737,0.006801307201385498,0.8807695136136587,0.0977590797800626,-0.4036276855055221,0.2275363627925669
1728066195502696400,3.177696533203125,-0.15850204229354858,-0.5078915953636169,0.006099974270910025,-0.7586574554443359,0.012182371690869331,-0.6513758301734924,0.06122398376464844,-0.04523294419050217,-0.001654505729675293,0.8798376674468268,0.09784042974311565,-0.40588092381436086,0.22709833383782643
1728066195512726500,3.1877265625,-0.2948949635028839,-0.5590876936912537,0.0052299196831882,-0.7621675729751587,0.013747137039899826,-0.647233784198761,0.06812161207199097,-0.03854270279407501,-0.02473282814025879,0.8788428086025063,0.09741486894982607,-0.40852595941637077,0.22638934735256774
1728066195522757600,3.197757568359375,-0.3245024085044861,-0.49332118034362793,-0.02495461329817772,-0.7656301259994507,0.015766598284244537,-0.6430878639221191,0.048573851585388184,0.014811977744102478,-0.02723073959350586,0.8779101074741392,0.09661854764517387,-0.4112431622066661,0.2254279397473611
1728066195532788500,3.20778857421875,-0.18928539752960205,-0.4195089638233185,-0.09878809005022049,-0.7685312032699585,0.01699056662619114,-0.6395865678787231,0.012824535369873047,0.07521826028823853,-0.03215104341506958,0.877174725444843,0.0960965330183221,-0.4134878209804357,0.2244049972688975
1728066195542819300,3.2178193359375,-0.0009003027807921171,-0.42593225836753845,-0.14940865337848663,-0.7712235450744629,0.016610709950327873,-0.6363475322723389,0.026899874210357666,0.10895383358001709,-0.04333996772766113,0.8764923923814016,0.09642150861420057,-0.41536623986006954,0.22346080358588544
1728066195552850400,3.227850341796875,0.07726967334747314,-0.42580267786979675,-0.18680289387702942,-0.7739862203598022,0.015041286125779152,-0.6330236792564392,0.07327216863632202,0.11571124196052551,-0.04915100336074829,0.8757610987792657,0.09744057795434195,-0.417125276297158,0.22260772989314287
1728066195562881500,3.237881591796875,0.061362069100141525,-0.3926151692867279,-0.1911907196044922,-0.7766455411911011,0.013109124265611172,-0.6298014521598816,0.04866403341293335,0.10711483657360077,-0.030568420886993408,0.8750660610586165,0.09861765326297918,-0.41877658511797056,0.22172090481548556
1728066195572911400,3.247911376953125,0.04617253318428993,-0.29623088240623474,-0.22210469841957092,-0.7788451910018921,0.011205454356968403,-0.6271161437034607,-0.02459108829498291,0.06670588999986649,-0.03120899200439453,0.8745379071907128,0.09965478462620321,-0.4201319326739934,0.2207749683309005
1728066195582942500,3.2579423828125,-0.02110450714826584,-0.2348780483007431,-0.23962083458900452,-0.7805171608924866,0.009281269274652004,-0.6250655055046082,-0.0837559700012207,0.020686956122517586,-0.05575120449066162,0.8742331610073439,0.10050802265168962,-0.4211477032018534,0.21965709512718742
1728066195592972300,3.26797216796875,-0.08226107060909271,-0.2473040521144867,-0.25252464413642883,-0.7820303440093994,0.007712000980973244,-0.623192548751831,-0.07702416181564331,0.003732055425643921,-0.06609272956848145,0.8740244719767748,0.10104594179850487,-0.4221296580695906,0.2183514584069903
1728066195603003100,3.278003173828125,-0.09328549355268478,-0.2833821475505829,-0.29311442375183105,-0.7837117314338684,0.006188254337757826,-0.6210938096046448,-0.02773529291152954,0.0032263812609016895,-0.05622851848602295,0.873800175564984,0.10149545587426206,-0.42326323640321384,0.21684112045935267
1728066195613034500,3.288034423828125,-0.1008138507604599,-0.29176363348960876,-0.2955983579158783,-0.7855399250984192,0.004440739285200834,-0.6187949776649475,-0.00042492151260375977,0.016341693699359894,-0.06081622838973999,0.8735506042268212,0.10202722013282496,-0.4244914208829317,0.2151900015406893
1728066195623064300,3.298064208984375,-0.1075923964381218,-0.2516087591648102,-0.27336549758911133,-0.787274181842804,0.002882847562432289,-0.6165964007377625,0.0034455060958862305,0.046250417828559875,-0.04171353578567505,0.8733178181538944,0.10245257462361887,-0.4256821243447327,0.21357505416593936
1728066195633095200,3.30809521484375,0.006597028113901615,-0.22820144891738892,-0.2841595709323883,-0.7887354493141174,0.0010496069444343448,-0.6147318482398987,-0.006857812404632568,0.059146277606487274,-0.005995631217956543,0.8731368621894867,0.10304849050419661,-0.42663224479888473,0.21212704904342491
1728066195643126500,3.31812646484375,0.02730230614542961,-0.19446691870689392,-0.2387678325176239,-0.7900791168212891,-0.001202883431687951,-0.6130037307739258,-0.0064449310302734375,0.04646041616797447,-0.01697063446044922,0.8729350953971814,0.10396233024690901,-0.42742246018658187,0.2109176128273288
1728066195653156400,3.32815625,-0.04013252630829811,-0.20073920488357544,-0.20428575575351715,-0.7912843823432922,-0.0028819087892770767,-0.6114413738250732,0.008691728115081787,0.03137002885341644,0.007101833820343018,0.8727463566628202,0.10460273978824854,-0.4281793629710776,0.20984361568234008
1728066195663187200,3.338187255859375,-0.04263243451714516,-0.20387640595436096,-0.20825545489788055,-0.7925373315811157,-0.0042345644906163216,-0.609808623790741,0.017467200756072998,0.002861236222088337,0.05850863456726074,0.8725435198432726,0.10506128411488315,-0.4290195808583283,0.20873933144987955
1728066195673217300,3.34821728515625,-0.06905598938465118,-0.19158314168453217,-0.17216137051582336,-0.793769121170044,-0.005393222440034151,-0.6081952452659607,0.01113063097000122,-0.011513550765812397,0.05565929412841797,0.8723349542589417,0.10542970476427112,-0.42986851783624536,0.20767607236558253
1728066195683248400,3.358248291015625,-0.0728192999958992,-0.14718692004680634,-0.15514136850833893,-0.7947592735290527,-0.0061976248398423195,-0.6068930625915527,0.02148967981338501,0.0011774464510381222,0.038060665130615234,0.8721816352509913,0.10562123352464078,-0.43057825851449755,0.2067500761502262
1728066195693279200,3.368279296875,-0.08589242398738861,-0.16783882677555084,-0.1517075002193451,-0.7957388162612915,-0.006953382398933172,-0.6055999994277954,0.035698533058166504,-0.002613913267850876,0.05008852481842041,0.8720328218970438,0.1057774685608755,-0.43129008137425134,0.20581213677688076
1728066195703309300,3.378309326171875,-0.1139935702085495,-0.20029211044311523,-0.09851458668708801,-0.7968568205833435,-0.007335965521633625,-0.604123592376709,0.04577350616455078,0.01206615474075079,0.06594616174697876,0.8718130022140651,0.10579605345908069,-0.43214048303424935,0.20494814946216658
1728066195713340200,3.388340087890625,-0.08223237842321396,-0.18734154105186462,-0.09174536168575287,-0.7980345487594604,-0.007444457150995731,-0.6025657057762146,0.02493274211883545,0.03729061782360077,0.0677756667137146,0.8715387238131076,0.10574128711882166,-0.4330541899634835,0.2042132365701962
1728066195723370200,3.398370361328125,-0.08344198763370514,-0.1935027539730072,-0.07465452700853348,-0.799192488193512,-0.007664598058909178,-0.6010262966156006,-0.03222835063934326,0.04033362865447998,0.044965505599975586,0.8712468589621073,0.10578963972254135,-0.4339301818371527,0.203573284462325
1728066195733401300,3.4084013671875,-0.09277470409870148,-0.1782400757074356,-0.027221230790019035,-0.800325870513916,-0.0074743847362697124,-0.5995185971260071,-0.06113952398300171,0.06449644267559052,0.02055436372756958,0.8709334747579796,0.10567259426814346,-0.4348264060079747,0.2030617418627017
1728066195743432200,3.41843212890625,-0.038773246109485626,-0.11830829083919525,-0.03760170191526413,-0.8012701272964478,-0.007310557644814253,-0.5982580780982971,-0.06161433458328247,0.08082737028598785,-0.0035638809204101562,0.870652058188045,0.10561231927586329,-0.43556516122750977,0.20271663593988107
1728066195753462300,3.428462158203125,-0.11512188613414764,-0.07177988439798355,-0.061999719589948654,-0.8018177151679993,-0.007298517972230911,-0.5975240468978882,-0.05418503284454346,0.06270314007997513,-0.008036255836486816,0.8705393870464847,0.10551137444931685,-0.4360107036895122,0.20229445615310168
1728066195763493400,3.438493408203125,-0.11213142424821854,-0.06325830519199371,-0.061163753271102905,-0.8022143840789795,-0.007051934488117695,-0.5969943404197693,-0.004578709602355957,0.07673878967761993,0.08031648397445679,0.870522366944226,0.10516965377521827,-0.43639682131931945,0.20171221337601034
1728066195773524200,3.448524169921875,-0.015600418671965599,-0.0674922987818718,-0.06486181914806366,-0.8027496933937073,-0.0072967493906617165,-0.5962713956832886,0.07473766803741455,0.08722225576639175,0.11099612712860107,0.8704246965928774,0.10517911897978387,-0.43680848197202704,0.20123722772237812
1728066195783554300,3.45855419921875,-0.0340619832277298,-0.056840989738702774,-0.05205520987510681,-0.8033316135406494,-0.007346209604293108,-0.595486581325531,0.11415326595306396,0.06430723518133163,0.108181893825531,0.8702697316834552,0.10517698831666482,-0.43725795244527216,0.2009322963758902
1728066195793585400,3.46858544921875,-0.04383372142910957,-0.01845887489616871,-0.0020317216403782368,-0.8040000796318054,-0.006557848304510117,-0.5945929884910583,0.1051323413848877,0.03530536964535713,0.14638125896453857,0.8700333976254315,0.10484438865018852,-0.4378483413348734,0.20084396157257914
1728066195803615200,3.478615234375,-0.09865462779998779,0.04964854195713997,0.01788073405623436,-0.8042477369308472,-0.005556351505219936,-0.594268262386322,0.07979094982147217,-0.005811485927551985,0.14141792058944702,0.8699446657102399,0.1043401970636287,-0.4381540733593224,0.2008243846626296
1728066195813646300,3.488646240234375,-0.13946883380413055,0.07879327237606049,0.05147171393036842,-0.8041587471961975,-0.0038746001664549112,-0.5944018959999084,0.05641704797744751,-0.021973827853798866,0.16004526615142822,0.8699784159463102,0.10341277274691259,-0.43829766091999894,0.20084428456708076
1728066195823677200,3.49867724609375,-0.08856384456157684,0.08319015055894852,0.07454267889261246,-0.8038374185562134,-0.0020064034033566713,-0.5948457717895508,0.07291090488433838,0.00487501872703433,0.13415241241455078,0.8700590517173807,0.10242707937020204,-0.43827596413604325,0.20104777134511245
1728066195833707300,3.508707275390625,-0.04862281680107117,0.09709664434194565,0.10519380122423172,-0.803388774394989,-0.000409013795433566,-0.5954545736312866,0.07041770219802856,0.03942570462822914,0.038997113704681396,0.8701448153696022,0.10165425543511178,-0.4381085732209551,0.20143275394786897
1728066195843738400,3.51873828125,-0.009219485335052013,0.15370985865592957,0.09669911116361618,-0.8030023574829102,0.0012055138358846307,-0.5959745645523071,0.03131967782974243,0.044555556029081345,0.02264082431793213,0.8701606775781027,0.10098193449448369,-0.4379673166186015,0.20200883058689004
1728066195853769200,3.528769287109375,-0.039172522723674774,0.13212941586971283,0.10518714040517807,-0.8024282455444336,0.0029209929052740335,-0.5967414975166321,0.0021505355834960938,0.023308830335736275,0.02630692720413208,0.8702400450864258,0.10023063079511164,-0.43770203165778176,0.20261547523495319
1728066195863799300,3.53879931640625,-0.11479111760854721,0.14796216785907745,0.17119200527668,-0.8017359972000122,0.005140069872140884,-0.5976561307907104,0.0012752413749694824,0.029405787587165833,0.05812060832977295,0.8703551201204605,0.0991940092175348,-0.4374156813390194,0.20324842578212826
1728066195873830400,3.548830322265625,-0.1258622109889984,0.2127402126789093,0.18611395359039307,-0.8011170625686646,0.0076051559299230576,-0.5984592437744141,0.0037996768951416016,0.03533304110169411,0.06110578775405884,0.8704427548498203,0.09802931064466344,-0.43721920138594444,0.2038599420723704
1728066195883860200,3.558860107421875,-0.13499552011489868,0.29712194204330444,0.18526174128055573,-0.8000149726867676,0.009683731943368912,-0.5999017953872681,-0.0040468573570251465,0.0027063684538006783,0.07116955518722534,0.8707256820533072,0.09694795215569037,-0.43663508746425356,0.2044199839106379
1728066195893891300,3.568891357421875,-0.1254161298274994,0.273889422416687,0.1919257789850235,-0.7987958192825317,0.011649267747998238,-0.6014893054962158,0.047834575176239014,-0.022483043372631073,0.10690617561340332,0.8710520908446256,0.0958995809746554,-0.4359571423748775,0.20497006672978554
1728066195903922400,3.57892236328125,-0.11103479564189911,0.24818192422389984,0.20689913630485535,-0.7974868416786194,0.013949442654848099,-0.6031751036643982,0.12317049503326416,-0.008608901873230934,0.10059630870819092,0.8713690413394731,0.09473118136736429,-0.4352452869364866,0.20567836714004523
1728066195913952300,3.5889521484375,-0.054974257946014404,0.3255695402622223,0.20940835773944855,-0.7957389950752258,0.01625450700521469,-0.6054214239120483,0.1103295087814331,0.015331149101257324,0.06109464168548584,0.871803323921889,0.09355926974373702,-0.4342072543476927,0.20656618422583534
1728066195923983400,3.5989833984375,-0.024180658161640167,0.3665960729122162,0.20740540325641632,-0.7935833930969238,0.018231647089123726,-0.608188271522522,0.024494647979736328,0.01449841819703579,0.04838907718658447,0.8723566720908236,0.09254174414160914,-0.4328300903698886,0.20757621344633934
1728066195934013400,3.609013427734375,-0.11731113493442535,0.35524505376815796,0.28410202264785767,-0.7914493680000305,0.020571894943714142,-0.6108883619308472,0.015173792839050293,0.010067716240882874,0.015139460563659668,0.8728707309926035,0.09137235678598225,-0.43151698378427844,0.2086643328777531
1728066195944044300,3.619044189453125,-0.20679867267608643,0.38548630475997925,0.3350541591644287,-0.7893304824829102,0.024084804579615593,-0.613495945930481,0.02811533212661743,0.006905756890773773,0.028458774089813232,0.873334054609596,0.08962159476801587,-0.4303719274225931,0.20984638408770112
1728066195954075400,3.629075439453125,-0.303172767162323,0.37106621265411377,0.371389776468277,-0.7868838310241699,0.028429461643099785,-0.6164458990097046,0.008426249027252197,-0.005190365016460419,0.024343907833099365,0.8738999188097984,0.08734562101976817,-0.429124447939607,0.21100187282475594
1728066195964105500,3.63910546875,-0.3808707594871521,0.4008081257343292,0.41553035378456116,-0.784354031085968,0.03366415947675705,-0.6193991899490356,0.001517176628112793,-0.002124279737472534,0.008193135261535645,0.8744610515327567,0.08458737698158313,-0.42795486595216525,0.21217294793693575
1728066195974136300,3.64913623046875,-0.39835789799690247,0.4258527457714081,0.42667195200920105,-0.7816704511642456,0.039401825517416,-0.6224457621574402,0.007912635803222656,-0.0027502551674842834,-0.011511147022247314,0.875045028395306,0.0815388309827026,-0.4267652171765212,0.2133516452907313
1728066195984167400,3.65916748046875,-0.5224775075912476,0.4785386025905609,0.40625348687171936,-0.7786200046539307,0.0455399751663208,-0.6258410811424255,-0.01283806562423706,-0.006416480988264084,0.007005572319030762,0.8757611789554618,0.07814169742152338,-0.42540962086674955,0.21438972816244103
1728066195994197200,3.669197265625,-0.4710775315761566,0.4995725154876709,0.3815889060497284,-0.7753742933273315,0.05179671570658684,-0.6293741464614868,-0.019105076789855957,0.009101074188947678,0.045496582984924316,0.876563587863614,0.07455599686846504,-0.42397443956990927,0.21522861263272242
1728066196004228400,3.679228271484375,-0.37710973620414734,0.539475679397583,0.30308130383491516,-0.7717999815940857,0.05721030756831169,-0.6332863569259644,-0.005345284938812256,0.04209384694695473,0.04899686574935913,0.8774782503453492,0.07135420449712795,-0.42221487188372886,0.21604382796390642
1728066196014258400,3.689258544921875,-0.3004916310310364,0.5075358748435974,0.34034159779548645,-0.7683073282241821,0.06171075627207756,-0.6370993256568909,0.004391372203826904,0.09189943224191666,0.08706581592559814,0.8783609287520342,0.06866823894947377,-0.4203986258610244,0.2168676829260066
1728066196024289300,3.699289306640625,-0.2521853446960449,0.5217909812927246,0.32060012221336365,-0.7648226618766785,0.06599444150924683,-0.6408516764640808,0.05867654085159302,0.09355141222476959,0.11175322532653809,0.8791616139874805,0.06622803187684753,-0.4185546717787323,0.21794610978319442
1728066196034320400,3.7093203125,-0.22316673398017883,0.5744368433952332,0.33167195320129395,-0.7610538005828857,0.06995551288127899,-0.644905686378479,0.06108742952346802,0.03919056057929993,0.090950608253479,0.8800385207386221,0.06392410830192154,-0.4164863157710415,0.2190550625694779
1728066196044350500,3.7193505859375,-0.20555497705936432,0.6389822959899902,0.3576098084449768,-0.7568697333335876,0.07394804060459137,-0.6493688821792603,0.032336652278900146,-0.003086268901824951,0.11148130893707275,0.880989418507255,0.061604254582587004,-0.4141503173407574,0.22032270593619319
1728066196054381300,3.72938134765625,-0.2315344512462616,0.6958876252174377,0.36737480759620667,-0.7522348761558533,0.07807853072881699,-0.6542525291442871,0.04454755783081055,-0.055556610226631165,0.12376552820205688,0.8820356471616683,0.05917030540585763,-0.4115490489115284,0.22167366025499416
1728066196064412400,3.739412353515625,-0.2603543698787689,0.7248372435569763,0.3577142059803009,-0.7471820712089539,0.08252742886543274,-0.6594757437705994,0.08511847257614136,-0.10327941924333572,0.15814822912216187,0.8831825270722827,0.05648214145216404,-0.408744285220146,0.22299456586003774
1728066196074442500,3.7494423828125,-0.11952555179595947,0.6819790601730347,0.3732862174510956,-0.7422012090682983,0.08647230267524719,-0.6645750403404236,0.14184415340423584,-0.09817583858966827,0.2530606985092163,0.8842773338476871,0.054104478572002394,-0.40593742580666237,0.22436836433102375
1728066196084473300,3.759473388671875,-0.08252865076065063,0.5647478103637695,0.496493935585022,-0.7376710176467896,0.0902990996837616,-0.6690945029258728,0.2085268497467041,-0.031583331525325775,0.1670650839805603,0.8850794870476723,0.05210236069348871,-0.4034081046700862,0.2262331386674516
1728066196094503400,3.76950341796875,-0.12679564952850342,0.5812221169471741,0.6553528308868408,-0.7333130836486816,0.09522183984518051,-0.6731898784637451,0.19156509637832642,0.03475247323513031,0.08685570955276489,0.8855838156623359,0.04986501762697987,-0.4011465425126886,0.2287706948895348
1728066196104534300,3.7795341796875,-0.27553319931030273,0.6655141115188599,0.667899489402771,-0.7283971309661865,0.10145991295576096,-0.6776012778282166,0.05281424522399902,-0.030491329729557037,0.08227968215942383,0.8861179079580694,0.046926463200836085,-0.3987446040391468,0.2315074258851358
1728066196114565400,3.7895654296875,-0.3926866054534912,0.6734477281570435,0.6751736402511597,-0.7231353521347046,0.10863751918077469,-0.6821092963218689,-0.056939661502838135,-0.11266589164733887,0.10488462448120117,0.8867551057966326,0.043292717304258065,-0.3963219487854973,0.2339229440136715
1728066196124595500,3.799595458984375,-0.49643614888191223,0.6405030488967896,0.7688053250312805,-0.7177444100379944,0.11691130697727203,-0.6864216923713684,-0.008909642696380615,-0.10088962316513062,0.06879168748855591,0.8873158657299657,0.03909591912581563,-0.3940312949298858,0.2363926017147601
1728066196134626300,3.809626220703125,-0.5399820804595947,0.5983791947364807,0.7908709645271301,-0.7125853896141052,0.12612706422805786,-0.6901550889015198,0.07815545797348022,-0.04606424272060394,0.08544927835464478,0.8876815149775442,0.03450247279865132,-0.3920867769689361,0.23895408258800063
1728066196144657400,3.819657470703125,-0.4881646931171417,0.6097000241279602,0.7776986956596375,-0.7073168158531189,0.13537463545799255,-0.693813145160675,0.07421445846557617,-0.02050653100013733,0.10782986879348755,0.8880183144714263,0.02988126336798499,-0.39012888728539,0.24151615886059632
1728066196154687500,3.8296875,-0.3665643632411957,0.5510740876197815,0.7422844767570496,-0.7021704912185669,0.1436813473701477,-0.6973608732223511,0.06305617094039917,0.0018569380044937134,0.07417666912078857,0.8882889135438969,0.025819124259644666,-0.38814035799967195,0.24417846005567279
1728066196164718300,3.83971826171875,-0.352568656206131,0.4902651011943817,0.7116613388061523,-0.6974863409996033,0.15117371082305908,-0.7004707455635071,0.08887428045272827,0.052286937832832336,0.00132828950881958,0.8884487473650743,0.02223312637732419,-0.3863551634163867,0.24676736698455884
1728066196174748400,3.84974853515625,-0.3616841733455658,0.4960254430770874,0.7241382598876953,-0.6929051280021667,0.15872076153755188,-0.703342080116272,0.08047842979431152,0.11523549258708954,-0.04146993160247803,0.8885411206438252,0.018629429637841186,-0.3846841625371314,0.24933024947352297
1728066196184779500,3.859779541015625,-0.3200845420360565,0.49224427342414856,0.6544233560562134,-0.6882891058921814,0.16593503952026367,-0.7062036991119385,0.027202129364013672,0.11098141968250275,-0.04103446006774902,0.8886506384431396,0.015151261088893517,-0.3829733526472563,0.25179740026811126
1728066196194810400,3.869810302734375,-0.21666774153709412,0.3729933798313141,0.6039159893989563,-0.6840161085128784,0.17221342027187347,-0.7088472843170166,0.010065913200378418,0.08187589049339294,-0.0918576717376709,0.8887431529436023,0.012139594757257618,-0.38135153592390636,0.2540849695615467
1728066196204840400,3.87984033203125,-0.025192860513925552,0.21742960810661316,0.6107898354530334,-0.680908203125,0.1772240549325943,-0.710602343082428,0.0413970947265625,0.11022096872329712,-0.17008918523788452,0.8885204760125762,0.010077854190815414,-0.3802594764193616,0.25657849665422483
1728066196214871300,3.889871337890625,0.14495576918125153,0.14657290279865265,0.5243849158287048,-0.6786324381828308,0.1806647777557373,-0.7119116187095642,0.004087209701538086,0.1295463591814041,-0.24635553359985352,0.8881073660205314,0.009053885136092387,-0.37942352003603985,0.2592702024444147
1728066196224901400,3.8999013671875,0.1981891691684723,0.10476154088973999,0.4431646466255188,-0.6767920851707458,0.1826338917016983,-0.7131600379943848,-0.08904647827148438,0.10746614634990692,-0.32213348150253296,0.8877336825508573,0.008764245937240603,-0.3786068779376827,0.26174184157346936
1728066196234932500,3.909932373046875,0.24204304814338684,0.13866038620471954,0.40573978424072266,-0.6751585602760315,0.1838909387588501,-0.7143843173980713,-0.13798224925994873,0.08785277605056763,-0.20488137006759644,0.8873960492709189,0.008801257056141766,-0.3777967449676995,0.26404587384430755
1728066196244963300,3.91996337890625,0.398160457611084,0.05597749352455139,0.384645938873291,-0.673559308052063,0.1843504160642624,-0.7157742381095886,-0.09357631206512451,0.10797742009162903,-0.14625579118728638,0.8870861440904598,0.00926505715516089,-0.37686474852373153,0.26639295432689897
1728066196254993400,3.929993408203125,0.7061741948127747,0.04925050586462021,0.3340562582015991,-0.6725897789001465,0.18278798460960388,-0.7170854806900024,-0.0030236244201660156,0.09991155564785004,-0.19564950466156006,0.8866617037985147,0.010990448618575031,-0.3759474251765034,0.2690237862958359
1728066196265024500,3.9400244140625,0.8191894292831421,-0.03545612469315529,0.3535141348838806,-0.6718319654464722,0.17937026917934418,-0.7186571359634399,0.007799983024597168,0.10618266463279724,-0.32522714138031006,0.8861945836206565,0.013839752662749238,-0.3748064723407326,0.2720066369923759
1728066196275055400,3.950055419921875,0.6788852214813232,0.0482487827539444,0.3412526547908783,-0.6712522506713867,0.17628638446331024,-0.7199606895446777,-0.061230599880218506,0.05515885353088379,-0.26034015417099,0.8856353943047369,0.01655570766138606,-0.3738255635241575,0.2750093268727506
1728066196285085400,3.96008544921875,0.5541640520095825,0.22795437276363373,0.20265750586986542,-0.6697741150856018,0.17371253669261932,-0.721960186958313,-0.1906537413597107,-0.045142024755477905,-0.10294520854949951,0.8854643511866003,0.018558707891861828,-0.37239158897746477,0.27736754263864144
1728066196295116500,3.970116455078125,0.5974055528640747,0.3721885085105896,0.19682945311069489,-0.667205274105072,0.17091377079486847,-0.7250003814697266,-0.2529759407043457,-0.07308973371982574,-0.013799607753753662,0.8857176210975728,0.02026904566920193,-0.37025529359588905,0.279292533117272
1728066196305146400,3.980146484375,0.6320015788078308,0.3684891164302826,0.2361731231212616,-0.6640353202819824,0.1677931696176529,-0.7286306023597717,-0.10300874710083008,-0.06244651973247528,0.03539329767227173,0.8860529464895538,0.02211723780088455,-0.36768944195624037,0.28147021148758744
1728066196315177500,3.990177490234375,0.4928274154663086,0.3356427550315857,0.26859256625175476,-0.6610743999481201,0.16527892649173737,-0.7318903803825378,0.07258868217468262,-0.10341984033584595,0.10307568311691284,0.8862694192779419,0.023701769557514903,-0.36536699141227397,0.28367536834088847
1728066196325208300,4.000208251953125,0.40605735778808594,0.40712785720825195,0.27149754762649536,-0.6579108834266663,0.16384275257587433,-0.73505699634552,0.10700762271881104,-0.1802459955215454,0.20118248462677002,0.8864960666954625,0.02464024672689077,-0.3631313293453318,0.28575021618504737
1728066196335238400,4.01023828125,0.19579391181468964,0.34260323643684387,0.2860724925994873,-0.6546138525009155,0.16333821415901184,-0.7381065487861633,0.05900228023529053,-0.22309167683124542,0.21569138765335083,0.8867622654479406,0.0249788374709159,-0.36100245981196033,0.28758639966679095
1728066196345269500,4.02026953125,0.12077213823795319,0.3475676476955414,0.29478663206100464,-0.6515522003173828,0.16411153972148895,-0.7406396865844727,0.015474319458007812,-0.15634486079216003,0.20020389556884766,0.8869434073559497,0.024639061479811698,-0.3592674069071502,0.28922529323719476
1728066196355300400,4.03030029296875,0.05912421643733978,0.3202955424785614,0.2519872188568115,-0.6485903859138489,0.1652570515871048,-0.7429808378219604,-0.029067635536193848,-0.015995636582374573,0.032440125942230225,0.8871437765068606,0.024035517290915555,-0.3576756692068579,0.2906305724151936
1728066196365330400,4.040330322265625,0.005311120767146349,0.3154117166996002,0.2746827006340027,-0.6458349823951721,0.1666109412908554,-0.7450757622718811,-0.1060265302658081,0.08927889168262482,-0.11091172695159912,0.88732126403272,0.02330796416013252,-0.35625672786465507,0.29188817011149665
1728066196375361500,4.050361572265625,-0.16129723191261292,0.29547542333602905,0.31113311648368835,-0.6430000066757202,0.16904334723949432,-0.7469774484634399,-0.13138353824615479,0.0942927896976471,-0.18544137477874756,0.8874562025429851,0.022008072633895127,-0.35500269823048847,0.29310445215651687
1728066196385391400,4.060391357421875,-0.1822565793991089,0.22293277084827423,0.29943758249282837,-0.6404610276222229,0.1724146604537964,-0.748386800289154,-0.10065829753875732,0.023492872714996338,-0.12433958053588867,0.8874955808863072,0.020245423577224538,-0.3541139948335586,0.2941850849828255
