time,seconds_elapsed,rotationRateX,rotationRateY,rotationRateZ,gravityX,gravityY,gravityZ,accelerationX,accelerationY,accelerationZ,quaternionW,quaternionX,quaternionY,quaternionZ
1728063923585795300,0.07779541015625,-0.17975319921970367,-0.07527843117713928,0.043775711208581924,0.037588391453027725,-0.3332613408565521,-0.9420849084854126,-0.0006468743085861206,0.010126054286956787,0.020850777626037598,0.985414826006542,0.16909697819275854,0.01907236980012701,-3.093008304837062e-17
1728063923595826400,0.087826416015625,-0.178791806101799,-0.0991203784942627,0.07925833761692047,0.03634827584028244,-0.33213964104652405,-0.9425296187400818,0.010816629976034164,0.019487112760543823,0.02095973491668701,0.9855275933620394,0.16850307553421207,0.018490797829649058,0.00029111412355266314
1728063923605856500,0.0978564453125,-0.178678959608078,-0.11868055164813995,0.059737637639045715,0.035352837294340134,-0.33098551630973816,-0.9429733753204346,0.021959159523248672,0.02667960524559021,0.01246190071105957,0.9856400391926508,0.1678935083093544,0.018030302998737695,0.0005656560990908406
1728063923615887400,0.107887451171875,-0.1737574338912964,-0.13515593111515045,0.03352493792772293,0.03439510241150856,-0.32970961928367615,-0.9434556365013123,0.014585599303245544,0.02729576826095581,-0.003123342990875244,0.9857623285028692,0.1672237984419143,0.017560801173856312,0.0006770823908067451
1728063923625917400,0.11791748046875,-0.1768142133951187,-0.13559561967849731,0.03191106393933296,0.03348461911082268,-0.3284423053264618,-0.9439303278923035,-0.003867320716381073,0.017041057348251343,-0.016961395740509033,0.9858826366084751,0.16656040316186888,0.017102022141566028,0.0007101106418611042
1728063923635948500,0.127948486328125,-0.1790805608034134,-0.14797212183475494,0.028339767828583717,0.03288240730762482,-0.32707375288009644,-0.9444265365600586,-0.005675993859767914,0.014604359865188599,-0.029526710510253906,0.9860085586533461,0.16584560392627654,0.016791619314071356,0.0006962945694904935
1728063923645978400,0.137978271484375,-0.16767163574695587,-0.16114912927150726,0.04830494895577431,0.031966131180524826,-0.32583674788475037,-0.9448854923248291,0.0001383572816848755,0.01710575819015503,-0.041290104389190674,0.9861248605380115,0.16519886838253664,0.016327620605592046,0.0007143385192580924
1728063923656009500,0.148009521484375,-0.14662893116474152,-0.16513347625732422,0.06968454271554947,0.03032120317220688,-0.3247402012348175,-0.9453170895576477,0.012571245431900024,0.01402553915977478,-0.048808276653289795,0.9862341752426905,0.16462261070997206,0.01551905795630691,0.0008797317957644223
1728063923666039300,0.158039306640625,-0.13270214200019836,-0.1625891476869583,0.08010336011648178,0.02869882620871067,-0.3235609829425812,-0.9457719922065735,0.022463887929916382,0.01042020320892334,-0.047407329082489014,0.9863492113212055,0.1640028672056667,0.014733037310279815,0.001112827817509698
1728063923676070400,0.1680703125,-0.09187348186969757,-0.14418163895606995,0.07335784286260605,0.027398167178034782,-0.32248419523239136,-0.9461782574653625,0.02065175399184227,0.01155593991279602,-0.03516024351119995,0.9864518395478389,0.1634373186615598,0.014110896502656551,0.0013499765656093024
1728063923686100200,0.178100341796875,-0.06455564498901367,-0.14924266934394836,0.047264453023672104,0.02643677406013012,-0.3215474486351013,-0.9465243220329285,0.008841540664434433,0.012831687927246094,-0.03133517503738403,0.9865393405370588,0.16294696997346594,0.013642382724275835,0.0014750804578951276
1728063923696131300,0.18813134765625,-0.03741190582513809,-0.1642964482307434,0.05421876534819603,0.025240642949938774,-0.32074758410453796,-0.9468283653259277,-0.003283252939581871,0.00890377163887024,-0.03653961420059204,0.9866163054996093,0.1625287095233449,0.013047947546760872,0.0015566233451093335
1728063923706161200,0.1981611328125,-0.000378855736926198,-0.1672600656747818,0.058363176882267,0.023548021912574768,-0.3203504979610443,-0.947006344795227,-0.00035467371344566345,0.003456026315689087,-0.03291308879852295,0.9866611182957195,0.16231962307035347,0.012213189293729113,0.0017020003320944886
1728063923716192300,0.208192138671875,0.009364851750433445,-0.17534862458705902,0.059966132044792175,0.021823856979608536,-0.3200817108154297,-0.9471385478973389,0.01246262900531292,-0.0020617246627807617,-0.03780102729797363,0.9866944017052929,0.16217780903631593,0.011361760084054314,0.0018415376830915476
1728063923726222300,0.218222412109375,0.008201450109481812,-0.1737353354692459,0.07217459380626678,0.020204974338412285,-0.31961360573768616,-0.947332501411438,0.012784520164132118,-0.0011718273162841797,-0.03193080425262451,0.9867432263221447,0.1619323833591578,0.010566237028568865,0.00199883407777779
1728063923736253200,0.228253173828125,0.011723214760422707,-0.14568080008029938,0.09322688728570938,0.01892746612429619,-0.3192063868045807,-0.9474961757659912,0.015465840697288513,0.0020983219146728516,-0.012129068374633789,0.9867841437230511,0.16171813560339063,0.00995758202150805,0.002240014946509067
1728063923746283300,0.238283203125,-0.006037340499460697,-0.12516528367996216,0.09295391291379929,0.01805594377219677,-0.31885063648223877,-0.9476329684257507,0.007685629650950432,-0.004788219928741455,-0.005614101886749268,0.9868180897651239,0.1615302766457072,0.009564639375288234,0.0025418589404076364
1728063923756314400,0.248314453125,-0.025535672903060913,-0.12451467663049698,0.06996790319681168,0.01714114099740982,-0.3183841109275818,-0.9478068351745605,-0.005834383890032768,-0.01328083872795105,0.002997875213623047,0.986861450417852,0.16128547283707462,0.00914293377069393,0.0028039610955113937
1728063923766344200,0.25834423828125,-0.04348597675561905,-0.09795726835727692,0.04861067980527878,0.016210045665502548,-0.31771978735923767,-0.948046088218689,-0.013768648728728294,-0.020079225301742554,0.021196722984313965,0.9869216059717592,0.16093885919359102,0.008697126163739537,0.0029722992985653815
1728063923776375300,0.268375244140625,-0.04694515839219093,-0.07548364996910095,0.023922646418213844,0.015397152863442898,-0.3170149624347687,-0.948295533657074,-0.02516278252005577,-0.02282869815826416,0.023399293422698975,0.9869844723383097,0.16057188183151697,0.008300458813845968,0.0030755552381825234
1728063923786405400,0.2784052734375,-0.06365735828876495,-0.08160194009542465,0.02052605152130127,0.014748352579772472,-0.31632134318351746,-0.9485374689102173,-0.027962468564510345,-0.01757141947746277,0.01848369836807251,0.9870455649942729,0.1602112290151146,0.007977338874374022,0.003119759674981202
1728063923796436200,0.288436279296875,-0.0884426012635231,-0.039916280657052994,0.009869946166872978,0.01459355466067791,-0.31547942757606506,-0.9488202333450317,-0.011602838523685932,-0.014339238405227661,0.016279280185699463,0.9871172236709337,0.15977329619142702,0.007898837600033985,0.003131320698476324
1728063923806466300,0.29846630859375,-0.11877307295799255,0.0027907020412385464,-0.0018865792080760002,0.014910572208464146,-0.3143879771232605,-0.9491774439811707,-0.0020321644842624664,-0.01753637194633484,0.01147913932800293,0.9872076846220524,0.15920563994336082,0.008051753561784798,0.003099555577120485
1728063923816497400,0.308497314453125,-0.16745460033416748,0.013067733496427536,0.0056301928125321865,0.015603643842041492,-0.3130287826061249,-0.9496154189109802,-0.012826550751924515,-0.01723235845565796,0.011688172817230225,0.987318697699748,0.1584985818069441,0.008395062845437277,0.0030711978381489265
1728063923826528300,0.3185283203125,-0.22355355322360992,0.007834622636437416,0.007357518654316664,0.016001209616661072,-0.31148168444633484,-0.9501174092292786,-0.0020699389278888702,-0.018657386302947998,0.025007545948028564,0.9874457435117339,0.15769399399279502,0.008596109094697055,0.003091977753375738
1728063923836558300,0.328558349609375,-0.3044060468673706,-0.003610312007367611,0.020620593801140785,0.015827206894755363,-0.30965766310691833,-0.9507163763046265,0.00667949952185154,-0.026813805103302002,0.031359076499938965,0.9875971478271487,0.15674581844713936,0.008518167051022055,0.003182947632148868
1728063923846588400,0.33858837890625,-0.42033398151397705,0.0013482272624969482,0.075108602643013,0.015305319800972939,-0.3072241544723511,-0.9515140652656555,0.014907079748809338,-0.02618032693862915,0.04273110628128052,0.9877980377489782,0.15548056157101595,0.00829166324440217,0.0034591392847075153
1728063923856619300,0.348619384765625,-0.5537971258163452,-0.00005797483026981354,0.2660713493824005,0.01409216970205307,-0.3038041889667511,-0.9526302814483643,0.03931358456611633,-0.01869022846221924,0.04543423652648926,0.9880771585179753,0.1537009361285857,0.007803016735499879,0.00431941322101222
1728063923866649300,0.3586494140625,-0.861644983291626,-0.07887901365756989,0.9086151719093323,0.012334993109107018,-0.29767975211143494,-0.9545860886573792,0.10671406984329224,-0.027072995901107788,0.04992300271987915,0.9885518583175635,0.15050649786427092,0.007399300693494014,0.007621569848578167
1728063923876680400,0.368680419921875,-1.1668592691421509,-0.38515108823776245,0.9236761331558228,0.006737803108990192,-0.2879248261451721,-0.9576293230056763,0.3196171820163727,-0.10062488913536072,0.106173574924469,0.9892768507823901,0.1454595999065147,0.00518183832232229,0.012081506970821755
1728063923886711300,0.378711181640625,-1.197750210762024,-0.34258320927619934,0.7394386529922485,0.0008373851887881756,-0.2763332426548004,-0.9610615372657776,0.14657777547836304,-0.04794645309448242,0.11172676086425781,0.990088742345783,0.1395066252630333,0.002672905446385889,0.015968567670684827
1728063923896741400,0.388741455078125,-0.9278490543365479,-0.1886247992515564,0.5801451206207275,-0.0036066286265850067,-0.2659431993961334,-0.9639819264411926,-0.07332818955183029,0.053113698959350586,0.014549553394317627,0.9907720857367814,0.13419556809318853,0.0007559602209533716,0.019019246228333
1728063923906772500,0.3987724609375,-0.6765686273574829,0.00315821822732687,0.49594610929489136,-0.005850690416991711,-0.25821101665496826,-0.966070830821991,-0.12178908288478851,0.08571052551269531,-0.06914645433425903,0.9912460218842715,0.1302481398373005,-0.00011276921520336518,0.021601561008734657
1728063923916802300,0.40880224609375,-0.5885410308837891,0.06935055553913116,0.4998607039451599,-0.0066557773388922215,-0.2520987391471863,-0.9676786065101624,-0.07635203748941422,0.08260419964790344,-0.06772178411483765,0.9915949229027838,0.12712439953062377,-0.0002716864588690756,0.02405899889224056
1728063923926833400,0.41883349609375,-0.5870658755302429,0.0030784299597144127,0.6171702742576599,-0.0076411329209804535,-0.24635937809944153,-0.9691483974456787,0.023708635941147804,0.0614229291677475,-0.01670670509338379,0.9918942246139071,0.12419961914313205,-0.0004918583759541361,0.026833375819434763
1728063923936863500,0.428863525390625,-0.6834113001823425,-0.07538256049156189,0.7856330275535583,-0.0097650196403265,-0.24019116163253784,-0.9706764817237854,0.11923156678676605,0.03021503984928131,0.0173378586769104,0.9921798444342814,0.12107953808950207,-0.0012247598645514105,0.03028858242020981
1728063923946894300,0.438894287109375,-0.8747298121452332,-0.0939173549413681,0.9057565331459045,-0.012707089073956013,-0.23252514004707336,-0.9725073575973511,0.15604814887046814,0.023327216506004333,0.047504305839538574,0.9925045476441421,0.11722152179837199,-0.002330079524075697,0.03447259409146439
1728063923956924400,0.44892431640625,-1.0746692419052124,0.008638044819235802,0.8246297240257263,-0.015356410294771194,-0.22291645407676697,-0.9747166037559509,0.1397002786397934,0.022492334246635437,0.07868999242782593,0.9928988873207841,0.11238587243224624,-0.003334398379998831,0.03886150891982221
1728063923966955500,0.45895556640625,-1.410447359085083,0.6919038891792297,-0.49933579564094543,-0.014016845263540745,-0.2108650505542755,-0.9774146676063538,0.08612988144159317,-0.018489733338356018,0.06947094202041626,0.9934833009639997,0.1062339405418253,-0.002647919770784796,0.04120866105893907
1728063923976985300,0.4689853515625,-1.192135214805603,-0.4696753919124603,-1.205216646194458,-0.01144806295633316,-0.19826537370681763,-0.9800814986228943,-0.04267486184835434,-0.1504131406545639,0.03502839803695679,0.9943338978779407,0.09977426815234104,-0.002082475788226894,0.03661620497306675
1728063923987016400,0.479016357421875,-1.3310819864273071,-1.0513767004013062,-0.52518630027771,-0.01734461635351181,-0.18615441024303436,-0.9823673963546753,0.1740523725748062,-0.29518401622772217,0.07050216197967529,0.9950831599374425,0.09371911786654159,-0.0057472256448994905,0.03151267818055487
1728063923997046300,0.48904638671875,-1.5771287679672241,-1.1643452644348145,0.5347342491149902,-0.02872687578201294,-0.1716701239347458,-0.9847355484962463,0.43689948320388794,-0.06143832206726074,0.09314924478530884,0.9956947325848183,0.08657123881846719,-0.011731913847145918,0.030980651031777617
1728063924007077400,0.499077392578125,-1.4258431196212769,-0.6992926001548767,1.095885992050171,-0.039501868188381195,-0.15623055398464203,-0.9869304299354553,0.3052031695842743,0.0951801985502243,0.07714033126831055,0.9961210990580499,0.07901508516519117,-0.017070882700827898,0.03475624915567195
1728063924017107200,0.509107177734375,-1.0376814603805542,-0.17812661826610565,1.0586742162704468,-0.045434046536684036,-0.14354437589645386,-0.9886004328727722,0.029351286590099335,0.08566787838935852,-0.03915530443191528,0.9963433409582783,0.07283361569794743,-0.019876171654227448,0.04000257138872408
1728063924027138300,0.51913818359375,-0.76486736536026,0.056022658944129944,0.7676252722740173,-0.04696355387568474,-0.13428935408592224,-0.9898286461830139,-0.12414850294589996,0.03350512683391571,-0.09789413213729858,0.996462293545073,0.06829863302604779,-0.020517366936399464,0.044466404674120295
1728063924037168400,0.52916845703125,-0.6916972994804382,-0.10576437413692474,0.707428514957428,-0.0480695478618145,-0.1268245130777359,-0.9907597303390503,-0.0354723185300827,0.0018245875835418701,-0.06777298450469971,0.9965330729747822,0.06464415853729123,-0.02100627378016733,0.047975380064313816
1728063924047199200,0.53919921875,-0.7806763648986816,-0.3392567038536072,0.8615850806236267,-0.051232822239398956,-0.11915551871061325,-0.9915528893470764,0.15708304941654205,0.002029120922088623,-0.000298917293548584,0.9965447331789481,0.06095422947713426,-0.022541751433479532,0.05171992568712445
1728063924057229300,0.549229248046875,-0.8939794898033142,-0.556082010269165,1.0007739067077637,-0.056821759790182114,-0.11030105501413345,-0.9922726154327393,0.2818126082420349,-0.019474878907203674,0.03899502754211426,0.9964844330689839,0.056771799062785386,-0.025311069505297466,0.056168604128032255
1728063924067260200,0.55926025390625,-1.0197019577026367,-0.6678298711776733,1.0436608791351318,-0.06408444046974182,-0.10014866292476654,-0.9929065704345703,0.2799200117588043,-0.06052631884813309,0.03529548645019531,0.9963600903729596,0.05203089220365932,-0.02897425699064651,0.06099119193005317
1728063924077290200,0.569290283203125,-1.1290812492370605,-0.6668546199798584,1.048774242401123,-0.07177292555570602,-0.08867638558149338,-0.9934712648391724,0.18441331386566162,-0.08461760729551315,0.026140332221984863,0.9961900699853089,0.04668609575031879,-0.0329359669386839,0.06588638021778186
1728063924087321300,0.5793212890625,-1.1992475986480713,-0.637366533279419,1.0818722248077393,-0.07913844287395477,-0.07621446251869202,-0.9939458966255188,0.10236232727766037,-0.09361578524112701,0.009998142719268799,0.9959685855263402,0.04088075984191357,-0.03682134178048216,0.07084805381251487
1728063924097351400,0.589351318359375,-1.243327260017395,-0.6058149933815002,1.1582471132278442,-0.0861356109380722,-0.06309565901756287,-0.9942834377288818,0.0758969783782959,-0.09365780651569366,-0.01877802610397339,0.995667757261034,0.03478696433761418,-0.04059727212827968,0.07607482817055926
1728063924107382300,0.59938232421875,-1.2622144222259521,-0.5888034701347351,1.2580571174621582,-0.09274415671825409,-0.04945027455687523,-0.9944612383842468,0.07675295323133469,-0.0699039027094841,-0.043411076068878174,0.9952629216309089,0.028477591364571585,-0.044253793277972804,0.08174560999531298
1728063924117412400,0.609412353515625,-1.2321103811264038,-0.6102320551872253,1.3458727598190308,-0.09925935417413712,-0.03568600118160248,-0.9944214820861816,0.10011386126279831,-0.04126400128006935,-0.05982351303100586,0.9947298820565148,0.022172369052327577,-0.04793374108855082,0.08788207346931451
1728063924127443200,0.619443115234375,-1.1701719760894775,-0.6688788533210754,1.4011266231536865,-0.10604380071163177,-0.022251753136515617,-0.9941124320030212,0.13299083709716797,-0.02570655196905136,-0.07662731409072876,0.9940554828984351,0.016112017318354665,-0.051809033475466226,0.09439207715747401
1728063924137474300,0.629474365234375,-1.108651876449585,-0.7480517029762268,1.425236463546753,-0.1133195236325264,-0.009304095059633255,-0.9935150146484375,0.155433788895607,-0.009784583002328873,-0.0843353271484375,0.9932460054948017,0.010382224798912291,-0.055988330251098596,0.10109349299719737
1728063924147504400,0.63950439453125,-1.0344586372375488,-0.8231839537620544,1.460055947303772,-0.12117859721183777,0.0031009952072054148,-0.992625892162323,0.16370485723018646,0.006252708844840527,-0.0871623158454895,0.9923020259939013,0.005019550276565113,-0.06051335320453213,0.1079333274460543
1728063924157533200,0.649533203125,-0.931391716003418,-0.8743035793304443,1.5016343593597412,-0.12951107323169708,0.014764221385121346,-0.991468071937561,0.16404172778129578,0.017080936580896378,-0.09219586849212646,0.991218886142651,0.00012846285772987338,-0.06531429862778984,0.11497399283783226
1728063924167563300,0.659563232421875,-0.8129445314407349,-0.906562864780426,1.536757230758667,-0.13806934654712677,0.025500375777482986,-0.9900942444801331,0.15296193957328796,0.028851497918367386,-0.10811132192611694,0.9900012944138613,-0.0042042278521814995,-0.07025105150592478,0.12224723829578867
1728063924177594000,0.669593994140625,-0.6971175074577332,-0.9104641079902649,1.5451631546020508,-0.14661498367786407,0.035228632390499115,-0.9885661005973816,0.13443849980831146,0.03929535672068596,-0.12579846382141113,0.9886739861093958,-0.007956622705411068,-0.07519061172645845,0.12964131247959632
1728063924187624200,0.679624267578125,-0.5952056646347046,-0.8958030939102173,1.5287282466888428,-0.15497611463069916,0.04396888241171837,-0.9869392514228821,0.11026790738105774,0.043296195566654205,-0.13508522510528564,0.9872620818514235,-0.011157361356304123,-0.08003670163817511,0.1370521312487855
1728063924197655300,0.6896552734375,-0.5282711386680603,-0.881196141242981,1.5276340246200562,-0.1630125790834427,0.05198755860328674,-0.9852533936500549,0.08790883421897888,0.04026714339852333,-0.14356130361557007,0.9857814954517259,-0.013954684765716015,-0.08472652521636428,0.1444354000293608
1728063924207685000,0.69968505859375,-0.4854791760444641,-0.8844913840293884,1.5336815118789673,-0.17084339261054993,0.059579212218523026,-0.9834952354431152,0.07759696245193481,0.02515290677547455,-0.14434289932250977,0.9842205471498305,-0.01648453350936245,-0.08933447704942823,0.15184719099500124
1728063924217716200,0.70971630859375,-0.47822314500808716,-0.907238781452179,1.5476585626602173,-0.17869825661182404,0.06705980747938156,-0.9816159605979919,0.07577775418758392,0.008684881031513214,-0.14985370635986328,0.9825622011889816,-0.018884606066771968,-0.0939967264373296,0.15930983847866642
1728063924227746300,0.719746337890625,-0.49547675251960754,-0.9189635515213013,1.544311285018921,-0.186557337641716,0.07471605390310287,-0.9795988202095032,0.0736575722694397,-0.0022672638297080994,-0.14823931455612183,0.9808087535381891,-0.021301929819733553,-0.09872594643578167,0.16677388347263647
1728063924237777200,0.729777099609375,-0.48926037549972534,-0.943702220916748,1.54147469997406,-0.19444316625595093,0.08255369961261749,-0.9774337410926819,0.07499739527702332,-0.0027043968439102173,-0.12747043371200562,0.9789609304467077,-0.023738421420896133,-0.10353556196666974,0.1742190079527923
1728063924247807000,0.739806884765625,-0.4531346261501312,-0.9758391976356506,1.5052887201309204,-0.2024766206741333,0.09027629345655441,-0.9751171469688416,0.07926192879676819,-0.0055899471044540405,-0.10279422998428345,0.977030670128376,-0.026043017260649205,-0.10845828746574716,0.1815750470304992
1728063924257838300,0.74983837890625,-0.4022442698478699,-0.992392361164093,1.4281753301620483,-0.2106790393590927,0.0975794792175293,-0.9726728796958923,0.0719766765832901,0.0020299553871154785,-0.08181619644165039,0.9750611278960968,-0.028083438760925776,-0.11346746605357352,0.18865910972940286
1728063924267868200,0.7598681640625,-0.33142587542533875,-0.9969486594200134,1.355445146560669,-0.21894598007202148,0.1042395755648613,-0.9701529741287231,0.05750802159309387,0.015938706696033478,-0.07563865184783936,0.9730863569718273,-0.029770815643304326,-0.1184787673805077,0.19539545827762927
1728063924277899000,0.76989892578125,-0.2688056528568268,-0.9656500816345215,1.3054661750793457,-0.22702297568321228,0.110178641974926,-0.9676369428634644,0.04259002208709717,0.03177393227815628,-0.08451759815216064,0.9711208746038518,-0.031089354102765587,-0.1233490377913407,0.2018483519452011
1728063924287929000,0.77992919921875,-0.17430071532726288,-0.9405928254127502,1.2911865711212158,-0.23471003770828247,0.11546942591667175,-0.965182900428772,0.03127990663051605,0.05166015028953552,-0.09870564937591553,0.9691528881225352,-0.032082638324119644,-0.1279814807499757,0.20816864400123705
1728063924297960000,0.7899599609375,-0.0720616951584816,-0.8986145257949829,1.2621551752090454,-0.24202844500541687,0.1197960376739502,-0.9628453254699707,0.02747465670108795,0.05477982014417648,-0.11807197332382202,0.9671782580959474,-0.03258588765620672,-0.1323461064981676,0.2144502558407444
1728063924307990000,0.799989990234375,0.021345414221286774,-0.8630024790763855,1.2033549547195435,-0.24890796840190887,0.12326100468635559,-0.9606516361236572,0.014761880040168762,0.061446696519851685,-0.13889670372009277,0.9652331692164698,-0.03268005634731803,-0.13640454842958602,0.2205690837843387
1728063924318021000,0.810021240234375,0.10916741192340851,-0.8203191757202148,1.1610069274902344,-0.2553555369377136,0.12584353983402252,-0.9586224555969238,0.0016934573650360107,0.08202700316905975,-0.14344358444213867,0.9633365105913388,-0.03236777603405677,-0.14014675165653015,0.22648194012025633
1728063924328051200,0.82005126953125,0.20458708703517914,-0.7954719662666321,1.1515666246414185,-0.2614605724811554,0.1275859922170639,-0.9567445516586304,0.004350036382675171,0.10335583984851837,-0.12791121006011963,0.9614601786957987,-0.031649364027867784,-0.14361766265858028,0.23230704913438216
1728063924338082000,0.83008203125,0.31591734290122986,-0.793220579624176,1.172753930091858,-0.26743414998054504,0.12836989760398865,-0.9549869894981384,0.013985693454742432,0.10821768641471863,-0.09495502710342407,0.9595494004636946,-0.0304164348348401,-0.1469059247322056,0.23824005957032557
1728063924348112100,0.840112060546875,0.40159761905670166,-0.7824093103408813,1.1763834953308105,-0.27338626980781555,0.12818904221057892,-0.9533244371414185,0.01635199785232544,0.09590159356594086,-0.08029067516326904,0.9575919707777257,-0.028651713189330002,-0.1500561751379412,0.24429432141584415
1728063924358143000,0.85014306640625,0.4335821866989136,-0.7616952061653137,1.1655442714691162,-0.27917802333831787,0.12750953435897827,-0.9517357349395752,0.006915479898452759,0.079414963722229,-0.0679328441619873,0.9556112598181382,-0.026621167980036935,-0.15304718133806827,0.2503494554064142
1728063924368173000,0.860173095703125,0.4478704333305359,-0.7298911213874817,1.1543298959732056,-0.2847478687763214,0.1266569197177887,-0.950198233127594,0.0043829381465911865,0.06563439965248108,-0.055630624294281006,0.9536165218361348,-0.0245038850594801,-0.15588601089285326,0.25634853535100777
1728063924378204200,0.8702041015625,0.47589993476867676,-0.7489926218986511,1.1385695934295654,-0.29025840759277344,0.12568114697933197,-0.9486592411994934,0.016058027744293213,0.05756169557571411,-0.04867047071456909,0.9515957102230468,-0.022305708745948737,-0.15865953674100577,0.26228838866479365
1728063924388234200,0.880234130859375,0.5096362829208374,-0.7741222381591797,1.087425947189331,-0.296070396900177,0.12429897487163544,-0.9470438361167908,0.026295095682144165,0.05070412904024124,-0.04262590408325195,0.949550104312184,-0.019851760591332108,-0.16150534807307562,0.26809789853258276
1728063924398265000,0.89026513671875,0.5282179713249207,-0.7916584014892578,1.0098809003829956,-0.3021557927131653,0.12259092926979065,-0.9453429579734802,0.01753365993499756,0.06109441816806793,-0.0462493896484375,0.9475363336389494,-0.017218236976601204,-0.16441424285654174,0.27358068571900696
1728063924408296200,0.900296142578125,0.564688503742218,-0.7836625576019287,0.9575976133346558,-0.3084084391593933,0.12045731395483017,-0.9435964822769165,0.0009286105632781982,0.0834459438920021,-0.039908766746520996,0.9455626219656207,-0.014368560020963676,-0.16731800706210453,0.2787642772550805
1728063924418326000,0.910325927734375,0.5920538306236267,-0.7788033485412598,0.9486499428749084,-0.3145917057991028,0.11803847551345825,-0.9418593049049377,-0.007979035377502441,0.10475516319274902,-0.052311837673187256,0.9435989811363388,-0.011378410686566157,-0.1701201657513045,0.28381455979723325
1728063924428357000,0.920357177734375,0.6529991626739502,-0.7852558493614197,0.9604573249816895,-0.3208652138710022,0.11524654179811478,-0.940087080001831,-0.017589956521987915,0.122882179915905,-0.048224687576293945,0.9415824838990268,-0.008151506445766761,-0.17288725476892638,0.2889047756361717
1728063924438387200,0.93038720703125,0.6755369305610657,-0.7573614120483398,0.9621654748916626,-0.3270028531551361,0.11212415248155594,-0.9383481740951538,-0.024406999349594116,0.13230644166469574,-0.07390463352203369,0.9395279161228441,-0.004741615506537956,-0.17550906405133315,0.2940429102719569
1728063924448418000,0.94041796875,0.7243649363517761,-0.7499247789382935,0.9817173480987549,-0.33295878767967224,0.10882352292537689,-0.936640739440918,-0.03251966834068298,0.1456168293952942,-0.06395435333251953,0.9374283347960518,-0.0012276110904093445,-0.17798347553812582,0.2992466743485069
1728063924458448100,0.9504482421875,0.7956154346466064,-0.7580897808074951,0.9737313389778137,-0.33894437551498413,0.10500022768974304,-0.9349287152290344,-0.02535918354988098,0.14072737097740173,-0.058220088481903076,0.9352662054457337,0.0025929777725259917,-0.1803577759801989,0.3045349117667173
1728063924468479200,0.960479248046875,0.8119492530822754,-0.773012101650238,0.932771623134613,-0.34506699442863464,0.10076363384723663,-0.933153510093689,-0.02099129557609558,0.13718198239803314,-0.060178399085998535,0.9330888169235338,0.006647293278844646,-0.18269937568020453,0.309712776132666
1728063924478509300,0.97050927734375,0.8246029615402222,-0.8082374930381775,0.8943381905555725,-0.3515235185623169,0.09633391350507736,-0.9312094449996948,-0.021126538515090942,0.13892614841461182,-0.037860989570617676,0.930896377954171,0.010847007980726714,-0.185142194241347,0.3147008087375815
1728063924488540200,0.9805400390625,0.8185620307922363,-0.8277502655982971,0.860369086265564,-0.35831111669540405,0.09180743247270584,-0.9290772676467896,-0.01375916600227356,0.13994310796260834,-0.02510058879852295,0.9286832843710426,0.015148969667481063,-0.18770158279164617,0.3195088250875355
1728063924498570200,0.9905703125,0.843472957611084,-0.8534436225891113,0.8319107890129089,-0.3653584122657776,0.08717866986989975,-0.9267756342887878,-0.012021899223327637,0.14611300826072693,-0.009595215320587158,0.9264476949040941,0.019550610424539087,-0.19034166749946083,0.32416418814423215
1728063924508601000,1.00060107421875,0.8517653346061707,-0.8906427025794983,0.8036367893218994,-0.3726947009563446,0.08236483484506607,-0.9242914915084839,-0.01123163104057312,0.1485159546136856,-0.012949168682098389,0.9241818420810873,0.02410187978429017,-0.19306312043939922,0.32868493081467065
1728063924518631200,1.010631103515625,0.8574106693267822,-0.9413151741027832,0.7603548765182495,-0.3805508315563202,0.07742389291524887,-0.9215131998062134,-0.018191814422607422,0.1539451777935028,0.007923722267150879,0.921873230937379,0.028809749854885765,-0.19599334039912655,0.3330260364436147
1728063924528662300,1.020662353515625,0.8080388903617859,-0.9436415433883667,0.7224010825157166,-0.3886723220348358,0.07261248677968979,-0.9185103178024292,-0.03100535273551941,0.1626475751399994,0.0140761137008667,0.9195667878693246,0.03349391080390462,-0.19905524569417452,0.3371231431323148
1728063924538692400,1.0306923828125,0.7937811017036438,-0.9736218452453613,0.7380346059799194,-0.3969484865665436,0.06818025559186935,-0.9153050780296326,-0.04291653633117676,0.17081820964813232,0.03937429189682007,0.9172228410303739,0.03804401941795877,-0.20223779131763983,0.34110821574129224
1728063924548723200,1.04072314453125,0.7775908708572388,-0.9560410976409912,0.7979328632354736,-0.4052591919898987,0.06408627331256866,-0.9119528532028198,-0.03805434703826904,0.14628669619560242,0.05422574281692505,0.9147588265566808,0.0425164561555284,-0.2054651770489391,0.3452431343552543
1728063924558753300,1.050753173828125,0.7481397986412048,-0.9802688956260681,0.8358898162841797,-0.41354554891586304,0.06054098159074783,-0.9084684252738953,-0.023557662963867188,0.10120223462581635,0.059393107891082764,0.9121548622160057,0.046815270874956655,-0.20874414120021004,0.3495823510775353
1728063924568784100,1.0607841796875,0.6866437792778015,-1.0010991096496582,0.8216027617454529,-0.42200952768325806,0.05752561613917351,-0.9047644734382629,-0.018877863883972168,0.04701239988207817,0.06691962480545044,0.909466155768314,0.0509441055086991,-0.21218497710432785,0.3539117090159521
1728063924578814000,1.07081396484375,0.5859973430633545,-1.0437736511230469,0.7617868185043335,-0.43081173300743103,0.05517040565609932,-0.9007538557052612,-0.022969305515289307,0.014302905648946762,0.07233893871307373,0.9067825915921431,0.05480874982916474,-0.2159145240971794,0.3579417549858125
1728063924588845300,1.08084521484375,0.4531702697277069,-1.0624765157699585,0.7175285816192627,-0.43989303708076477,0.05375780910253525,-0.8964397311210632,-0.020662933588027954,0.014876279979944229,0.07797354459762573,0.9041565280133277,0.058235104987743966,-0.21997454741269587,0.36155344058291006
1728063924598875100,1.090875244140625,0.4500543773174286,-1.1370558738708496,0.7279961109161377,-0.44929200410842896,0.053064726293087006,-0.8918076157569885,-0.0068389177322387695,0.021138817071914673,0.08942419290542603,0.9014927046159243,0.06139514167974419,-0.22433641571402183,0.364985934445511
1728063924608906000,1.100906005859375,0.45929425954818726,-1.1474512815475464,0.7207869291305542,-0.4591331481933594,0.052296727895736694,-0.8868268132209778,0.01519399881362915,0.005259472876787186,0.05828982591629028,0.898699431405219,0.06474727646987029,-0.22889819908850936,0.36844634704286716
1728063924618936000,1.11093603515625,0.4159747362136841,-1.136696696281433,0.7027198076248169,-0.46885091066360474,0.05180312693119049,-0.8817569017410278,0.011041522026062012,0.005692046135663986,0.020932316780090332,0.8959161330494627,0.06796486960967071,-0.23345731108737816,0.3717698351125874
1728063924628967200,1.12096728515625,0.4244864284992218,-1.1051793098449707,0.7178114056587219,-0.4783259332180023,0.051537491381168365,-0.8766688108444214,-0.0012119710445404053,0.011725500226020813,0.03949534893035889,0.8931173988954972,0.07107037687560164,-0.23793822269995218,0.37506767172180916
1728063924638997000,1.1309970703125,0.38980832695961,-1.0888804197311401,0.7185323238372803,-0.4875130355358124,0.05146602541208267,-0.8715975284576416,0.0034280121326446533,-0.0037059634923934937,0.0252840518951416,0.8902896982593963,0.07408267140899816,-0.24230762846423604,0.37839523374664613
1728063924649028000,1.141028076171875,0.3288751244544983,-1.0852992534637451,0.6963127255439758,-0.4965958297252655,0.05186831206083298,-0.8664307594299316,-0.0010389983654022217,-0.007633034139871597,0.03461313247680664,0.8874697568025323,0.076866314778129,-0.24673101904377817,0.3815924145547223
1728063924659058200,1.15105810546875,0.24829481542110443,-1.0771089792251587,0.6851732730865479,-0.505547821521759,0.05291401594877243,-0.861174464225769,0.0038999319076538086,0.003604590892791748,0.03393447399139404,0.8846888667248213,0.07931462130215422,-0.25124084117092893,0.38459419831033986
1728063924669089000,1.161089111328125,0.2804602086544037,-1.1207355260849,0.6871961951255798,-0.5146384835243225,0.054255660623311996,-0.8556889295578003,0.019857048988342285,0.017048709094524384,0.04163253307342529,0.8818511594901292,0.08169186698632133,-0.2558944600123853,0.38753436633305227
1728063924679120100,1.1711201171875,0.3497122526168823,-1.1087629795074463,0.6729522943496704,-0.5237614512443542,0.055186767131090164,-0.8500755429267883,0.03914237022399902,0.014378096908330917,0.025734663009643555,0.8789444243918931,0.08433470670951254,-0.2604801310385736,0.39050542397942345
1728063924689150200,1.181150146484375,0.41569337248802185,-1.0928136110305786,0.6321704983711243,-0.532713770866394,0.05547419190406799,-0.8444753289222717,0.04025167226791382,0.02045358717441559,0.009499132633209229,0.8760454032121225,0.08727914952170605,-0.26484840028025014,0.3934235335022447
1728063924699181000,1.19118115234375,0.4582967162132263,-1.0387699604034424,0.5748329162597656,-0.5413641929626465,0.05505695194005966,-0.8389836549758911,0.03407055139541626,0.03602281212806702,0.012720167636871338,0.873224193807287,0.09048978314184389,-0.268923379263982,0.39619591213476885
1728063924709211100,1.201211181640625,0.4429653584957123,-0.9627721905708313,0.5646697878837585,-0.5493869185447693,0.05443974584341049,-0.8337926864624023,0.03586769104003906,0.05282958596944809,0.014807701110839844,0.8705369271956078,0.09364073396410788,-0.2726445654206629,0.3988254412460278
1728063924719242000,1.211241943359375,0.47418108582496643,-0.9552007913589478,0.6174498796463013,-0.55698561668396,0.05400819331407547,-0.8287642002105713,0.04833400249481201,0.04306827113032341,0.06078934669494629,0.8678171928655394,0.0966834168824222,-0.2761706404885417,0.40159094278282925
1728063924729272000,1.22127197265625,0.4182696044445038,-0.9195437431335449,0.5974990725517273,-0.5643817782402039,0.053742654621601105,-0.8237626552581787,0.06779986619949341,-0.007279593497514725,0.07562422752380371,0.8650462896273344,0.09966861008123275,-0.2796155139626174,0.404445689197197
1728063924739303200,1.23130322265625,0.3057747483253479,-0.9090074896812439,0.5433863401412964,-0.5715040564537048,0.05413060262799263,-0.8188118934631348,0.055421411991119385,-0.03354645520448685,0.09124237298965454,0.8624242999214464,0.10221255393213154,-0.28310181746660606,0.4069768673013391
1728063924749333200,1.241333251953125,0.27704083919525146,-0.9396528601646423,0.501873254776001,-0.5787028670310974,0.05491713061928749,-0.8136873245239258,0.04543876647949219,-0.04412911832332611,0.11512470245361328,0.8598861388516179,0.10452686657818173,-0.28675856214567097,0.40919359961013174
1728063924759364000,1.251364013671875,0.18521210551261902,-0.9240603446960449,0.43015456199645996,-0.5859416723251343,0.05590569227933884,-0.8084225058555603,0.04910701513290405,-0.054669685661792755,0.09225118160247803,0.8574459775269704,0.106689994148448,-0.29052709801886845,0.4110933299778539
1728063924769394200,1.261394287109375,0.0958004742860794,-0.879675567150116,0.3918777406215668,-0.5928167700767517,0.057506319135427475,-0.8032816052436829,0.027738094329833984,-0.007243819534778595,0.11871123313903809,0.8552160044905553,0.10836986532700892,-0.2943045771874125,0.4126092876138335
1728063924779425000,1.271425048828125,0.09604814648628235,-0.8201687932014465,0.4289870262145996,-0.5992565155029297,0.059473369270563126,-0.7983448505401611,0.013547956943511963,0.04002924636006355,0.13588446378707886,0.853066576133426,0.10976558314898635,-0.29795821117001264,0.41406489020699067
1728063924789455000,1.281455078125,0.13666321337223053,-0.7531274557113647,0.5194935202598572,-0.6051250100135803,0.061667606234550476,-0.7937385439872742,0.012244820594787598,0.042672038078308105,0.1247626543045044,0.8508431960433259,0.11103883435903077,-0.30133220994869314,0.41585478131655657
1728063924799486200,1.291486328125,0.2192726731300354,-0.6811391115188599,0.6071346998214722,-0.6103597283363342,0.06389421224594116,-0.7895432710647583,0.0003286600112915039,0.006967648863792419,0.13410192728042603,0.848474590951528,0.11232969188209099,-0.30431958759593564,0.4181656441439852
1728063924809516300,1.301516357421875,0.209589421749115,-0.5951626896858215,0.6501085162162781,-0.6149141192436218,0.06612763553857803,-0.7858166098594666,-0.009734809398651123,-0.05540066957473755,0.10683101415634155,0.8460449959316578,0.11358428241174959,-0.30690438701008277,0.4208516976013902
1728063924819547100,1.311547119140625,0.1329149603843689,-0.5567867755889893,0.6686432957649231,-0.6189159750938416,0.06894034147262573,-0.7824258804321289,-0.017222881317138672,-0.11665453761816025,0.1009225845336914,0.8436643809753919,0.11445917086392733,-0.3093317875162612,0.4236075967349618
1728063924829577200,1.3215771484375,-0.032990463078022,-0.5535714626312256,0.7002949714660645,-0.6228551864624023,0.07269855588674545,-0.7789521217346191,-0.01027768850326538,-0.17590895295143127,0.11841434240341187,0.8412757757548301,0.11487846592883125,-0.3119725667430619,0.42629949490258545
1728063924839608300,1.3316083984375,-0.1827346831560135,-0.6432267427444458,0.687170147895813,-0.6268985867500305,0.07799440622329712,-0.775187075138092,0.010474085807800293,-0.22376158833503723,0.12558990716934204,0.8389498323858022,0.1145222082391064,-0.3151049239946294,0.4286686167428476
1728063924849638100,1.34163818359375,-0.24701480567455292,-0.6258491277694702,0.7036372423171997,-0.631263256072998,0.08405440300703049,-0.7710003852844238,-0.00028270483016967773,-0.2372831106185913,0.12582826614379883,0.83656218600429,0.11388289876933243,-0.3186384963497208,0.4308874528653435
1728063924859669200,1.351669189453125,-0.45651236176490784,-0.5049924850463867,0.7811576128005981,-0.6351097226142883,0.09124802052974701,-0.7670133709907532,-0.025900959968566895,-0.22940106689929962,0.0886075496673584,0.8342312855022931,0.11258329937294737,-0.32220851073759926,0.4330876365298846
1728063924869699300,1.36169921875,-0.4833870530128479,-0.44689038395881653,0.9100626111030579,-0.6379483342170715,0.10048794001340866,-0.7634946703910828,-0.03554403781890869,-0.17655295133590698,0.139257550239563,0.8318751151232521,0.11017045656408885,-0.3257531879525162,0.43558140965221226
1728063924879730200,1.371730224609375,-0.31737464666366577,-0.32534289360046387,1.0081417560577393,-0.6398601531982422,0.10971467941999435,-0.7606192827224731,-0.03442561626434326,-0.13878265023231506,0.13392549753189087,0.8293584913200411,0.10776089016994576,-0.3287521138554731,0.4387188526639587
1728063924889760300,1.38176025390625,-0.14706949889659882,-0.2807875871658325,1.068358063697815,-0.6409072279930115,0.11823923885822296,-0.7584571838378906,-0.04831695556640625,-0.14646795392036438,0.09515762329101562,0.8266864057069807,0.10569676642365651,-0.3310582895430596,0.44251331398174903
1728063924899791400,1.391791259765625,0.004078476689755917,-0.18836471438407898,1.087802529335022,-0.6413492560386658,0.12569443881511688,-0.7568831443786621,-0.05712175369262695,-0.1505509614944458,0.14065688848495483,0.8239336211903616,0.10413402050729546,-0.33273794021490394,0.44673816473690686
1728063924909821000,1.401821044921875,0.09187224507331848,-0.12744171917438507,1.139657735824585,-0.6410945057868958,0.13244184851646423,-0.7559477090835571,-0.07194864749908447,-0.15748149156570435,0.15031111240386963,0.8211404049327617,0.10284720718221382,-0.33383916799020463,0.4513338644323512
1728063924919852300,1.411852294921875,0.09912842512130737,-0.08371015638113022,1.2321826219558716,-0.6402658224105835,0.1393221914768219,-0.7554131746292114,-0.06807762384414673,-0.17664514482021332,0.16793447732925415,0.8182190430854912,0.10149598617272466,-0.3346520401785214,0.456315889998552
1728063924929882000,1.421882080078125,0.06042424216866493,-0.005571037996560335,1.3157284259796143,-0.6388068199157715,0.1468510925769806,-0.7552222609519958,-0.07686084508895874,-0.1968235969543457,0.18812930583953857,0.8151578253120988,0.09981871705924061,-0.33529850427970065,0.4616589543907603
1728063924939913000,1.431912841796875,-0.14260371029376984,0.13435304164886475,1.403184175491333,-0.6361767649650574,0.1559322476387024,-0.7556217312812805,-0.09938830137252808,-0.2062709629535675,0.17624551057815552,0.8121384084733044,0.09715086845973528,-0.33578391438047955,0.46716375291989903
1728063924949943000,1.441943115234375,-0.2655874192714691,0.2837257981300354,1.4178073406219482,-0.6323723196983337,0.16649219393730164,-0.7565617561340332,-0.11849737167358398,-0.20045822858810425,0.20861858129501343,0.8092467045479791,0.09345489900491928,-0.33613288449556,0.4726528492677646
1728063924959974100,1.45197412109375,-0.44534388184547424,0.4644729495048523,1.4072942733764648,-0.6270871758460999,0.17811694741249084,-0.7583112716674805,-0.14834916591644287,-0.19767868518829346,0.18694591522216797,0.8066721325270925,0.08874082001773402,-0.3361092420994944,0.4779494297688393
1728063924970005000,1.4620048828125,-0.570254385471344,0.639000415802002,1.320555329322815,-0.6204015016555786,0.19056487083435059,-0.7607805132865906,-0.15691161155700684,-0.1788613349199295,0.18692797422409058,0.8045068406079597,0.08306528307019599,-0.3357229430634488,0.48286548060734275
1728063924980035000,1.47203515625,-0.6737520098686218,0.7699791789054871,1.1935327053070068,-0.6124842762947083,0.2031116634607315,-0.7639428377151489,-0.1672702431678772,-0.11555670201778412,0.15780270099639893,0.8029007442856748,0.07670173402421784,-0.3348811981919119,0.48715697591801244
1728063924990066200,1.482066162109375,-0.6402604579925537,0.8666417002677917,1.1233272552490234,-0.6037797331809998,0.21526916325092316,-0.7675345540046692,-0.17177867889404297,-0.03225521743297577,0.14982819557189941,0.8016822497473738,0.07008259770541338,-0.33364826335322717,0.490991785148308
1728063925000096000,1.492095947265625,-0.5564859509468079,1.020768404006958,1.03279447555542,-0.5941162109375,0.2263772338628769,-0.7718674540519714,-0.14730829000473022,0.035036370158195496,0.09764254093170166,0.8007856868638781,0.06354786503050264,-0.33170460897264004,0.494647453472127
1728063925010127000,1.502127197265625,-0.41736656427383423,1.1915168762207031,1.0217928886413574,-0.5831473469734192,0.23620308935642242,-0.7772691249847412,-0.13744890689849854,0.12247003614902496,0.06768965721130371,0.8002373480370045,0.057130120466053355,-0.32878805756168805,0.4982516773901723
1728063925020157200,1.5121572265625,-0.24046023190021515,1.2667466402053833,1.193905234336853,-0.5708025097846985,0.24515680968761444,-0.7836342453956604,-0.09553343057632446,0.19626471400260925,0.0722694993019104,0.7995995602928087,0.05089235199538527,-0.324950534787647,0.5024515741699938
1728063925030188000,1.52218798828125,-0.030038880184292793,1.257567048072815,1.3573427200317383,-0.5576134324073792,0.25346729159355164,-0.7904565334320068,-0.0220220685005188,0.17142897844314575,0.08218932151794434,0.7984235877238784,0.04508339942187563,-0.32052959662863134,0.5076888143735259
1728063925040218000,1.532218017578125,0.07891610264778137,1.2234714031219482,1.3229671716690063,-0.5442454814910889,0.26068755984306335,-0.7973950505256653,0.004389643669128418,0.056359559297561646,0.08281069993972778,0.796929353245723,0.039878509962444214,-0.3157723693752563,0.5134209032808041
1728063925050249200,1.542249267578125,-0.07802584767341614,1.2818961143493652,1.1296253204345703,-0.5309886336326599,0.2671101689338684,-0.8041785955429077,-0.030702590942382812,-0.06477862596511841,0.08396375179290771,0.7957007207101576,0.034826245820481994,-0.31096275824497444,0.5186034467042827
1728063925060279000,1.552279052734375,-0.507698655128479,1.4054194688796997,1.0019419193267822,-0.5172699689865112,0.27496472001075745,-0.8104481101036072,-0.0716429352760315,-0.11343517899513245,0.10298961400985718,0.7950793518846987,0.028549696690927582,-0.3065303382170135,0.522563743361421
1728063925070310100,1.56231005859375,-0.8645204305648804,1.4897140264511108,1.015689492225647,-0.502602219581604,0.2857877016067505,-0.8159144520759583,-0.051764726638793945,-0.1025296151638031,0.14275765419006348,0.7947342237483535,0.02042497452400694,-0.3026971986566614,0.5256945732257079
1728063925080340200,1.57234033203125,-1.1267863512039185,1.4920070171356201,0.9548172950744629,-0.48744237422943115,0.29890474677085876,-0.820399820804596,0.015106618404388428,-0.07739287614822388,0.11436039209365845,0.7944519758004817,0.011000326295758974,-0.2994646530524235,0.5282480063131324
1728063925090371000,1.58237109375,-1.241892695426941,1.422408938407898,0.9205533266067505,-0.4725237488746643,0.31327515840530396,-0.8237596154212952,0.05164062976837158,0.009219348430633545,0.09565597772598267,0.7942032090326303,0.0009496238389177591,-0.29684892621153686,0.5302083520716389
1728063925100401200,1.592401123046875,-1.1382068395614624,1.2491077184677124,0.9889169335365295,-0.45837512612342834,0.3276531994342804,-0.8261571526527405,0.09678769111633301,0.10197329521179199,0.0860447883605957,0.7936316047545082,-0.008812359354821067,-0.2946926806137789,0.5321911385038202
1728063925110432300,1.602432373046875,-0.9548335075378418,1.0704580545425415,1.098707675933838,-0.44526445865631104,0.3410874903202057,-0.8278881907463074,0.1466194987297058,0.1342695951461792,0.03293579816818237,0.7924788343701319,-0.017623892470881263,-0.2928229728546014,0.5347161760234354
1728063925120462000,1.612462158203125,-0.8599317669868469,0.9421040415763855,1.196956753730774,-0.43297508358955383,0.35364314913749695,-0.8291375637054443,0.146628737449646,0.10251837968826294,-0.013727426528930664,0.790742340530524,-0.02556388245564724,-0.2911661195116318,0.5378617772905432
1728063925130493200,1.6224931640625,-0.9514480829238892,0.9185858368873596,1.2032228708267212,-0.42092445492744446,0.3662651777267456,-0.8298628330230713,0.11992970108985901,0.006842702627182007,-0.045015037059783936,0.7886936950633513,-0.033373123309428876,-0.2897495546911783,0.541196428757634
1728063925140523300,1.632523193359375,-1.135562539100647,0.9044162034988403,1.156028151512146,-0.40887048840522766,0.37985339760780334,-0.8297808766365051,0.08872592449188232,-0.10134997963905334,-0.04486817121505737,0.7866125607101643,-0.04169823509296572,-0.28874005568839645,0.544179217432483
1728063925150554600,1.6425546875,-1.368703842163086,0.774722695350647,1.112671971321106,-0.3974427878856659,0.3948236107826233,-0.8283438682556152,0.09307581186294556,-0.1563134491443634,-0.012705385684967041,0.784451485991278,-0.05057286284180962,-0.28856621772086416,0.5466331152786276
1728063925160584700,1.652584716796875,-1.5652868747711182,0.5874915719032288,1.1404670476913452,-0.38724803924560547,0.41149505972862244,-0.8250519633293152,0.13469991087913513,-0.12577423453330994,0.032800376415252686,0.7819409375414099,-0.05987438419455767,-0.28963611419934526,0.5487206095950035
1728063925170615600,1.662615478515625,-1.5586869716644287,0.35860389471054077,1.1543943881988525,-0.37848368287086487,0.4289315640926361,-0.8202242851257324,0.18205735087394714,-0.04653102159500122,0.05672025680541992,0.7789454608366023,-0.06903207193447705,-0.2917574911562307,0.5507778260912183
1728063925180645600,1.672645751953125,-1.4612301588058472,0.19778969883918762,1.1031484603881836,-0.3713085353374481,0.44551798701286316,-0.8146432638168335,0.1963513195514679,0.03841450810432434,0.007987380027770996,0.7756722953670129,-0.07731236401171039,-0.29445059546990177,0.5528599388641356
1728063925190676700,1.6826767578125,-1.4173463582992554,0.03302498534321785,1.0891029834747314,-0.36539486050605774,0.46130698919296265,-0.8085063695907593,0.17568239569664001,0.14652690291404724,-0.046306312084198,0.7722160257572964,-0.08485670632431985,-0.297567079589839,0.5549195189360735
1728063925200706600,1.69270654296875,-1.256514310836792,-0.1477743536233902,1.0587583780288696,-0.3608042597770691,0.4760320782661438,-0.8020060658454895,0.17673754692077637,0.2131769061088562,-0.0758625864982605,0.7685482061551261,-0.09148540551769034,-0.301043828022483,0.5570786663272083
1728063925210737700,1.702737548828125,-1.184213638305664,-0.25769463181495667,1.0382821559906006,-0.35744157433509827,0.48951444029808044,-0.7953685522079468,0.16704249382019043,0.20033544301986694,-0.12203562259674072,0.7647226114921353,-0.09714118958588597,-0.3047610754507147,0.5593599818592517
1728063925220767500,1.712767578125,-1.227394938468933,-0.28688499331474304,1.0571184158325195,-0.35443049669265747,0.5027747750282288,-0.788413941860199,0.12882941961288452,0.15265119075775146,-0.11164098978042603,0.7607615586784902,-0.10256376016935535,-0.30866439379711724,0.5616482577094628
1728063925230798600,1.722798583984375,-1.3065097332000732,-0.27574294805526733,1.0998996496200562,-0.3511003255844116,0.516583263874054,-0.780941903591156,0.08536860346794128,0.07287901639938354,-0.064852774143219,0.7566059535362967,-0.10828737596808116,-0.3127345183989626,0.5639312650946379
1728063925240828400,1.732828369140625,-1.3911572694778442,-0.28128576278686523,1.0428369045257568,-0.3475937247276306,0.5308903455734253,-0.7728738784790039,0.06327679753303528,-0.019263148307800293,-0.01942354440689087,0.752352037915586,-0.11431377470673011,-0.3170101515691714,0.5660417296215354
1728063925250859500,1.742859619140625,-1.464160442352295,-0.3732820451259613,0.9148101806640625,-0.34477511048316956,0.5452932119369507,-0.764058530330658,0.06093120574951172,-0.06696069240570068,0.02126067876815796,0.7482122271729555,-0.12034138054750135,-0.32169659504731185,0.5676333074850962
1728063925260890400,1.752890380859375,-1.4722250699996948,-0.45554202795028687,0.8115019202232361,-0.34310391545295715,0.559497058391571,-0.7544817924499512,0.07395422458648682,-0.013949573040008545,0.06780576705932617,0.7441822415368643,-0.12610008230323796,-0.32689122017202454,0.5687124223469666
1728063925270920400,1.76292041015625,-1.371284008026123,-0.5166085958480835,0.7300134301185608,-0.3425045311450958,0.5729471445083618,-0.7445952892303467,0.08881199359893799,0.12569177150726318,0.09508967399597168,0.740233572395545,-0.1312922812482624,-0.3323622704575486,0.569518943162181
1728063925280951600,1.77295166015625,-1.2391417026519775,-0.5231314897537231,0.6713107228279114,-0.3422868251800537,0.5850200653076172,-0.7352490425109863,0.07930168509483337,0.2619342803955078,0.10203981399536133,0.7364815825526875,-0.13580597763478455,-0.3375384539313071,0.5702800424528063
1728063925290981600,1.782981689453125,-1.0097581148147583,-0.46214157342910767,0.5877231359481812,-0.34213486313819885,0.5955016016960144,-0.7268573641777039,0.034792423248291016,0.3296540379524231,0.11186707019805908,0.7330524468998009,-0.13965736336821083,-0.34215077222234,0.5710191060829416
1728063925301012500,1.793012451171875,-0.8395466804504395,-0.4216434061527252,0.48394402861595154,-0.34212562441825867,0.6039384007453918,-0.719866931438446,-0.004401415586471558,0.28778523206710815,0.10541075468063354,0.7301326655492273,-0.14266355087537932,-0.34599658903120145,0.571698942252133
1728063925311042600,1.80304248046875,-0.8363696336746216,-0.4081171751022339,0.5126004219055176,-0.3420838415622711,0.6115891933441162,-0.7133983969688416,-0.014590263366699219,0.197981059551239,0.14181941747665405,0.7273939823192761,-0.14536659800630175,-0.3495273385100996,0.5723609356582906
1728063925321073400,1.813073486328125,-0.9167677760124207,-0.4537182152271271,0.4890192151069641,-0.3419930338859558,0.6195784211158752,-0.7065149545669556,0.012265920639038086,0.11034101247787476,0.18995916843414307,0.7245325630140788,-0.14822513508454407,-0.3532305831953254,0.5729834370976615
1728063925331103500,1.823103515625,-0.9916347861289978,-0.48512423038482666,0.3483017683029175,-0.34268176555633545,0.6278041005134583,-0.6988784670829773,-0.013702422380447388,0.025592446327209473,0.19404149055480957,0.7217668555308155,-0.15111320026786063,-0.3573871337479916,0.5731419345398306
1728063925341134600,1.833134521484375,-1.0058085918426514,-0.4580843448638916,0.26590731739997864,-0.34413856267929077,0.6357885003089905,-0.690899133682251,-0.07521864771842957,-0.011124193668365479,0.15525460243225098,0.7192678720879006,-0.15386998412116462,-0.36176574271452705,0.5728030481939665
1728063925351164700,1.84316455078125,-0.9883747100830078,-0.3708301782608032,0.2248842567205429,-0.3452979028224945,0.6435442566871643,-0.6830959916114807,-0.11171799898147583,-0.013783514499664307,0.10773283243179321,0.717039600567119,-0.1567768394938376,-0.36588662218415596,0.5721906710862
1728063925361195500,1.853195556640625,-0.9241962432861328,-0.46449434757232666,0.1284938007593155,-0.3469865620136261,0.6507255434989929,-0.6753937005996704,-0.09449589252471924,0.00819474458694458,0.08239138126373291,0.714992545324444,-0.15936578938652082,-0.37000769595701344,0.5713865160998051
1728063925371225600,1.8632255859375,-0.8095437288284302,-0.4415102005004883,0.10974407941102982,-0.3493941128253937,0.6569462418556213,-0.6680908799171448,-0.09869539737701416,0.013311326503753662,0.11016845703125,0.7131154371301943,-0.16134398926418192,-0.37406240959806564,0.5705364046250982
1728063925381256700,1.873256591796875,-0.7580179572105408,-0.3207007050514221,0.1738399863243103,-0.35097435116767883,0.662700891494751,-0.6615471243858337,-0.11454072594642639,0.008731603622436523,0.09947431087493896,0.7113316878055013,-0.16333057692632347,-0.3775573696150855,0.5698954382799319
1728063925391286500,1.88328662109375,-0.6208981871604919,-0.3131810128688812,0.019416313618421555,-0.35219335556030273,0.6676813364028931,-0.6558669805526733,-0.1101478636264801,0.008206725120544434,0.11018216609954834,0.7098785168133768,-0.16516954485603916,-0.38050694669919594,0.5692152702695511
1728063925401317600,1.893317626953125,-0.5649195909500122,-0.47804373502731323,-0.019096991047263145,-0.35505589842796326,0.6714454293251038,-0.6504586338996887,-0.10412675142288208,-0.03674083948135376,0.17018818855285645,0.7086745817234994,-0.16604112877802105,-0.38366787687512977,0.5683394430423315
1728063925411347700,1.90334765625,-0.4433462917804718,-0.3178838789463043,0.1309013068675995,-0.35737887024879456,0.6750174164772034,-0.6454702615737915,-0.08816242218017578,-0.004714071750640869,0.241615891456604,0.7072363956586255,-0.1667780942091921,-0.38658756646654807,0.5679364501737197
1728063925421378600,1.913378662109375,-0.3215828537940979,-0.1159592717885971,0.039627041667699814,-0.35799136757850647,0.6777530312538147,-0.6422561407089233,-0.13132742047309875,0.0511898398399353,0.20371854305267334,0.7062993508240203,-0.16773833787613956,-0.3882470670262771,0.5676875762312722
1728063925431408600,1.92340869140625,-0.30770349502563477,0.006418566685169935,0.12138687819242477,-0.3579822778701782,0.680059552192688,-0.6398184895515442,-0.19342449307441711,0.029077351093292236,0.2135031819343567,0.7057023614305858,-0.16880897047410534,-0.3893511081430211,0.567356477737849
1728063925441439700,1.933439697265625,-0.2553739845752716,0.1850346475839615,0.19165359437465668,-0.35616934299468994,0.6824812293052673,-0.6382498145103455,-0.1334851086139679,0.016661226749420166,0.2762960195541382,0.7051873276699625,-0.17043810760426492,-0.38964849459098055,0.5673057006967687
1728063925451469600,1.943469482421875,-0.23345963656902313,0.3297114074230194,0.17201784253120422,-0.35331276059150696,0.6846719980239868,-0.6374906897544861,-0.10011735558509827,-0.012369751930236816,0.2703183889389038,0.7049581016918497,-0.17236510777458905,-0.38928772112354837,0.5672560793599699
1728063925461500700,1.953500732421875,-0.1954403519630432,0.47308772802352905,0.19016648828983307,-0.3494708836078644,0.6867259740829468,-0.6373990178108215,-0.11068835854530334,-0.03310048580169678,0.28357821702957153,0.7050484155637592,-0.1746605153244176,-0.3883222757283725,0.5671033620343523
1728063925471530800,1.96353076171875,-0.12367042899131775,0.548154354095459,0.19927822053432465,-0.3448713421821594,0.6884081959724426,-0.6380892395973206,-0.09319314360618591,-0.0382159948348999,0.27180200815200806,0.7053571755649111,-0.17704987094813687,-0.38679288227681313,0.5670236540373714
1728063925481561600,1.9735615234375,-0.13938307762145996,0.6155195236206055,0.24923326075077057,-0.339574933052063,0.6899932026863098,-0.6392167806625366,-0.08036208152770996,-0.04157102108001709,0.2459978461265564,0.7057286726946905,-0.17959138138654124,-0.3848876902206056,0.5670584626366585
1728063925491591700,1.983591796875,-0.3141857981681824,0.5429167747497559,0.2932145595550537,-0.3339196741580963,0.6922921538352966,-0.6397102475166321,-0.06360220909118652,-0.06126493215560913,0.2009284496307373,0.7059037029560373,-0.18255644978817462,-0.3831683978824856,0.5670582835187754
1728063925501622800,1.993622802734375,-0.7801145911216736,0.3158285319805145,0.3697444796562195,-0.3287537693977356,0.6967778205871582,-0.6375120878219604,0.0019258558750152588,-0.1484532356262207,0.09806811809539795,0.7053067399269305,-0.18631553221624544,-0.38279300114678705,0.5668319722997965
1728063925511652600,2.003652587890625,-1.4596065282821655,0.12248893082141876,0.337386816740036,-0.324876606464386,0.705072820186615,-0.6303392052650452,0.10421934723854065,-0.3055519461631775,-0.02453756332397461,0.7036119704471651,-0.1915497408695118,-0.3848884244638841,0.5657736443486909
1728063925521683700,2.01368359375,-2.062669038772583,0.4105132818222046,0.4988439083099365,-0.3204520344734192,0.7174323797225952,-0.618547797203064,0.10856851935386658,-0.45539313554763794,-0.2019783854484558,0.701225548012906,-0.1992528236621939,-0.38861861457976055,0.5635216702419661
1728063925531714600,2.023714599609375,-2.5054917335510254,0.11907880008220673,0.5002809166908264,-0.3147529363632202,0.733249843120575,-0.6027231812477112,0.15584796667099,-0.44511812925338745,-0.4577168822288513,0.6979652444342253,-0.20923826134840848,-0.39351969234038964,0.5605409149396273
1728063925541744600,2.03374462890625,-2.4584667682647705,-0.14579974114894867,0.31832125782966614,-0.31199467182159424,0.749563455581665,-0.5837928056716919,0.1912214159965515,-0.15100693702697754,-0.4570397138595581,0.6940577728377414,-0.21876505553328243,-0.4003066952346618,0.5569383064532866
1728063925551775700,2.043775634765625,-1.7937215566635132,-0.2373533993959427,0.17947442829608917,-0.31114256381988525,0.7627829909324646,-0.5668795704841614,0.15139836072921753,0.2005653977394104,-0.4005734324455261,0.6905427559437662,-0.22621563478898976,-0.40667762802956864,0.5537062361278167
1728063925561805600,2.0538056640625,-1.0097862482070923,-0.3192221522331238,-0.07317647337913513,-0.3123728930950165,0.770835280418396,-0.5551903247833252,0.08977773785591125,0.47937846183776855,-0.3797309994697571,0.6882179721024234,-0.23038074627504998,-0.4114967332603724,0.5513177561854238
1728063925571836700,2.063836669921875,-0.2843431830406189,-0.3168657124042511,-0.14799371361732483,-0.3151209354400635,0.7739842534065247,-0.5492241382598877,-0.00548139214515686,0.6312891840934753,-0.2244880199432373,0.6871434538536839,-0.23143017367611,-0.41452142496546696,0.5499508029686184
1728063925581866500,2.073866455078125,0.19213466346263885,-0.23352393507957458,-0.1485050469636917,-0.3177747428417206,0.7736942172050476,-0.548102617263794,0.012141287326812744,0.5869014263153076,-0.09209513664245605,0.6869453339756926,-0.2304812061075237,-0.41572481154144814,0.549688438153701
1728063925591897600,2.083897705078125,0.49030596017837524,-0.16571904718875885,-0.17670606076717377,-0.3201633393764496,0.771253228187561,-0.5501489639282227,0.007251441478729248,0.38092267513275146,0.020256996154785156,0.6873672149160754,-0.2283748203895425,-0.41565665132257656,0.5500916546273336
1728063925601927400,2.093927490234375,0.5694116950035095,-0.06290346384048462,-0.17888452112674713,-0.3221975862979889,0.7676720023155212,-0.5539571046829224,-0.007407456636428833,0.14224010705947876,0.07570087909698486,0.6882418435433909,-0.22581100722042463,-0.41476600967740773,0.5507283950694323
1728063925611958500,2.10395849609375,0.45804116129875183,0.06125928461551666,-0.1466892957687378,-0.3234834372997284,0.7642463445663452,-0.557930052280426,-0.0032071471214294434,-0.02540057897567749,0.08707427978515625,0.6892731187825344,-0.22366656567057067,-0.41353142541746324,0.5512418690275069
1728063925621988600,2.113988525390625,0.30582019686698914,0.11772815138101578,-0.12398798763751984,-0.32396718859672546,0.7616976499557495,-0.5611255168914795,-0.005424231290817261,-0.10430330038070679,0.08392214775085449,0.6902685791382531,-0.22235610342935727,-0.4123044912448437,0.551445379626192
1728063925632019500,2.12401953125,0.24419566988945007,0.06450924277305603,-0.08345947414636612,-0.3242360055446625,0.7598536610603333,-0.5634655356407166,0.00047510862350463867,-0.13355666399002075,0.05055654048919678,0.6910491018747459,-0.22147644397201227,-0.4113580330533431,0.5515286055675056
1728063925642049500,2.134049560546875,0.24369312822818756,0.018147606402635574,-0.042150113731622696,-0.3244783878326416,0.7582870721817017,-0.5654329061508179,0.019394278526306152,-0.12007302045822144,-0.020657122135162354,0.6915583840039854,-0.22061533111829373,-0.4106244156441347,0.5517819744239549
1728063925652080600,2.14408056640625,0.3839642107486725,0.10748963057994843,-0.06976709514856339,-0.3245176076889038,0.7564411759376526,-0.5678775906562805,0.00791311264038086,-0.07031452655792236,-0.08715170621871948,0.6921399238497778,-0.21964563078067936,-0.4096547464115089,0.5521602864284815
1728063925662110500,2.1541103515625,0.6853184700012207,0.1923840194940567,-0.15045101940631866,-0.3244740962982178,0.75306236743927,-0.5723753571510315,-0.040638089179992676,0.013676464557647705,-0.126767098903656,0.6933508905150393,-0.21801860994545513,-0.40777471650083325,0.5526771813555712
1728063925672141600,2.1641416015625,1.0036417245864868,0.16282851994037628,-0.18460339307785034,-0.32474616169929504,0.7476221323013306,-0.5793107151985168,-0.055304378271102905,0.13313037157058716,-0.11084425449371338,0.6950988808497383,-0.21521167401955515,-0.4050044115568762,0.5536178667380448
1728063925682171600,2.174171630859375,1.3309987783432007,0.2710713744163513,-0.19197741150856018,-0.3248753845691681,0.7402318716049194,-0.5886533856391907,-0.022719770669937134,0.22336065769195557,-0.050659358501434326,0.697275325509769,-0.2113788254882362,-0.40123845211724957,0.5550981110320412
1728063925692202500,2.184202392578125,1.5849519968032837,0.33811426162719727,-0.26491954922676086,-0.324729323387146,0.7307279706001282,-0.6004893779754639,-0.02776387333869934,0.20794695615768433,0.002909362316131592,0.7000519794314828,-0.20662171831756834,-0.39631148166789565,0.5569307028336092
1728063925702232600,2.194232666015625,1.6411106586456299,0.42038145661354065,-0.3052310347557068,-0.3245031237602234,0.7199429273605347,-0.6134980320930481,-0.05577632784843445,0.13026148080825806,0.0880463719367981,0.7032718927201278,-0.20143332595781935,-0.39073723858383597,0.5587107049113336
1728063925712263700,2.204263671875,1.5483675003051758,0.37338927388191223,-0.2688911259174347,-0.3240818381309509,0.7090497016906738,-0.6262742280960083,-0.0357203483581543,0.04940366744995117,0.1610184907913208,0.7064638356308203,-0.19634032377807897,-0.3851147307961861,0.5603979475187033
1728063925722293500,2.21429345703125,1.3843915462493896,0.2964513301849365,-0.22316622734069824,-0.3236844539642334,0.6989707946777344,-0.6377054452896118,0.01989731192588806,-0.017192840576171875,0.16837561130523682,0.709207016973375,-0.19160617020271115,-0.3800451998863807,0.5620303798945606
1728063925732324600,2.22432470703125,1.3021718263626099,0.30144938826560974,-0.2473706305027008,-0.323403924703598,0.6896620988845825,-0.6479012370109558,0.041680991649627686,-0.05385887622833252,0.12020653486251831,0.7116649666843818,-0.18725896152120866,-0.37547764282599744,0.5634567160756511
1728063925742354700,2.234354736328125,1.2677839994430542,0.2777262330055237,-0.3720177710056305,-0.32359185814857483,0.6802579760551453,-0.6576757431030273,0.0029284656047821045,-0.048330485820770264,0.07102108001708984,0.714276464006247,-0.1829238763571157,-0.3710808335486251,0.5644882667783944
1728063925752385500,2.244385498046875,1.336673617362976,0.20340929925441742,-0.4577353298664093,-0.3248836100101471,0.6703490614891052,-0.6671451926231384,-0.025412321090698242,0.0005950927734375,0.05348247289657593,0.717078534536771,-0.17820390673150116,-0.36697516391940993,0.5651290780598975
1728063925762415600,2.25441552734375,1.5385215282440186,0.13695169985294342,-0.456108421087265,-0.32680758833885193,0.6591744422912598,-0.6772634983062744,0.016596496105194092,0.051991939544677734,0.022142648696899414,0.719946338648369,-0.17266856850074813,-0.36270347118004054,0.5659584794079274
1728063925772446700,2.26444677734375,1.645119547843933,0.11420207470655441,-0.4611106216907501,-0.32899168133735657,0.6467245817184448,-0.6881219148635864,0.05631721019744873,0.09294521808624268,-0.026203036308288574,0.7228282206256674,-0.16640150974320142,-0.3581195115299454,0.5670804416997026
1728063925782476500,2.2744765625,1.65449059009552,0.09563398361206055,-0.43008559942245483,-0.3311578631401062,0.6337649822235107,-0.699053943157196,0.062069207429885864,0.12351346015930176,-0.01060187816619873,0.7256405717242856,-0.1599044701316318,-0.3534170390355602,0.5683068464446086
1728063925792507600,2.284507568359375,1.7004368305206299,0.08435598015785217,-0.3971231281757355,-0.33310574293136597,0.6205614805221558,-0.7098900675773621,0.06980019807815552,0.09199339151382446,0.02313774824142456,0.7282827784932618,-0.15332949243961874,-0.3486330910760788,0.5696921028085001
1728063925802537700,2.294537841796875,1.662864089012146,0.028231186792254448,-0.439114511013031,-0.3352101445198059,0.6070274710655212,-0.720521867275238,0.06296291947364807,-0.00889819860458374,0.03418153524398804,0.730855455196358,-0.14659723141293363,-0.3438725157102848,0.5710614585077113
1728063925812568600,2.304568603515625,1.3914140462875366,-0.05314388498663902,-0.45777449011802673,-0.33807557821273804,0.5943443179130554,-0.7296983599662781,0.0442066490650177,-0.07914656400680542,0.056038081645965576,0.7332285607756651,-0.1401394000315709,-0.3398702206330644,0.5720358283381458
1728063925822599700,2.314599609375,1.2162264585494995,-0.12780345976352692,-0.453948050737381,-0.34142398834228516,0.5833397507667542,-0.7369832992553711,0.06118112802505493,-0.09347152709960938,0.0880575180053711,0.7352569947496003,-0.1343708265569641,-0.3368275892293674,0.5726157203318758
1728063925832629800,2.324629638671875,1.0972820520401,-0.14996586740016937,-0.4838106036186218,-0.3452010154724121,0.5730727314949036,-0.743252158164978,0.05793914198875427,-0.11950528621673584,0.0589107871055603,0.7371287735306093,-0.12886657521353528,-0.3343161931287523,0.572945950895693
1728063925842660600,2.33466064453125,0.8815966248512268,-0.0738157108426094,-0.3951750099658966,-0.3486226797103882,0.5641627311706543,-0.7484535574913025,0.04305022954940796,-0.0963435173034668,-0.024541497230529785,0.7388383085402573,-0.12414364750817476,-0.33220713600051827,0.5730138003007086
1728063925852690700,2.344690673828125,0.9228485822677612,0.08377955853939056,-0.32298338413238525,-0.3505772650241852,0.5562213063240051,-0.7534676194190979,0.039816826581954956,-0.04317504167556763,-0.0218009352684021,0.7404049105765407,-0.12026759416441854,-0.32985130234470916,0.5731792803712387
1728063925862721800,2.3547216796875,0.7873911261558533,0.09724769741296768,-0.1593180149793625,-0.35083532333374023,0.5488601922988892,-0.7587272524833679,0.0005393922328948975,-0.048234641551971436,-0.03324967622756958,0.7417563772079725,-0.11703770248382983,-0.3270146134066719,0.573725551220235
1728063925872751600,2.364751708984375,0.6495028734207153,0.12598906457424164,-0.23492568731307983,-0.3512366712093353,0.5427675247192383,-0.762912929058075,0.026331335306167603,-0.012600898742675781,0.02365511655807495,0.7428892038488211,-0.11434310147811338,-0.3247601859090531,0.5740836573902246
1728063925882782700,2.37478271484375,0.7613378167152405,0.10477539151906967,-0.29747775197029114,-0.3518478572368622,0.536435604095459,-0.7670983076095581,-0.03633561730384827,-0.01315075159072876,0.07244199514389038,0.7442665909161431,-0.11162222979115805,-0.32247683853725706,0.5741222188080303
1728063925892812500,2.3848125,0.7896794676780701,0.23884211480617523,-0.29073065519332886,-0.3522763252258301,0.5293508172035217,-0.771808922290802,-0.07457292079925537,-0.021965622901916504,0.06331288814544678,0.7457984580771521,-0.10865566449135163,-0.31982725824664243,0.5741855157825426
1728063925902843600,2.39484375,1.0114949941635132,0.628912627696991,-0.09303592890501022,-0.35011568665504456,0.5217924118041992,-0.7779149413108826,-0.06478598713874817,0.04267597198486328,0.03465932607650757,0.747579223187561,-0.10626482540297465,-0.3158327331031337,0.5745283051404286
1728063925912873500,2.40487353515625,1.3382724523544312,0.6138067841529846,0.01072268933057785,-0.34537529945373535,0.5124914646148682,-0.7861732244491577,-0.028144538402557373,0.10346007347106934,0.054911017417907715,0.7492246639404508,-0.10359756871721863,-0.31013049477694304,0.5759765272493887
1728063925922904600,2.414904541015625,1.4850592613220215,0.5605888366699219,-0.13762949407100677,-0.3409154713153839,0.501015841960907,-0.7954620122909546,0.014331698417663574,0.15663796663284302,0.04317319393157959,0.7510223785261909,-0.09988476276689125,-0.3037960436092537,0.5776645975565208
1728063925932934400,2.424934326171875,1.6459758281707764,0.5201991200447083,-0.2720429599285126,-0.33770039677619934,0.48773637413978577,-0.8050289750099182,-0.004386276006698608,0.16649943590164185,0.004156172275543213,0.7532064086039204,-0.09520689183407134,-0.2973569652377361,0.5789598673614514
1728063925942965500,2.434965576171875,1.723339557647705,0.7030536532402039,-0.30204054713249207,-0.33417463302612305,0.47304466366767883,-0.8152030110359192,0.00321158766746521,0.10431739687919617,-0.03600853681564331,0.7556974412377602,-0.09013980497588586,-0.29029863913423337,0.5801057806595591
1728063925952995600,2.44499560546875,1.7064580917358398,0.8328453898429871,-0.3130551278591156,-0.32919108867645264,0.45795202255249023,-0.8257803320884705,0.0021648108959198,0.06411218643188477,-0.009714663028717041,0.7584803156541008,-0.0854851844939507,-0.2824926890099289,0.5810316257915483
1728063925963026400,2.4550263671875,1.7547180652618408,0.7761805057525635,-0.23727218806743622,-0.32364699244499207,0.44270655512809753,-0.8362197875976562,-0.04212138056755066,0.054760515689849854,0.13124847412109375,0.7611448946845981,-0.08092112230561657,-0.27448474669779693,0.5820380737174061
1728063925973056500,2.465056396484375,1.9164719581604004,0.7098201513290405,-0.17573612928390503,-0.31835705041885376,0.42652106285095215,-0.8465982675552368,-0.025133460760116577,0.04282402992248535,0.12214142084121704,0.76345552293951,-0.0757494005630007,-0.266388637600726,0.5834679695978153
1728063925983087600,2.475087646484375,1.9292958974838257,0.8033894896507263,-0.16577696800231934,-0.3127191662788391,0.40948161482810974,-0.8570481538772583,-0.015115827322006226,0.021335065364837646,0.0385361909866333,0.7656452225177818,-0.07030178462895065,-0.25794104226949616,0.5850739264248059
1728063925993117700,2.48511767578125,1.958555817604065,0.9472362995147705,-0.18076923489570618,-0.3057597279548645,0.39223986864089966,-0.8675591349601746,-0.030131876468658447,-0.001859039068222046,0.03366631269454956,0.7679200233230209,-0.06524867704230854,-0.2489237829502853,0.5865818511494457
1728063926003148500,2.4951484375,1.9376060962677002,0.8559788465499878,-0.12408892065286636,-0.2983975410461426,0.37457266449928284,-0.8778691291809082,-0.038608014583587646,-0.05638110637664795,0.1356968879699707,0.770122394041833,-0.06016561270878326,-0.23967796669205146,0.5880867640093715
1728063926013178600,2.5051787109375,1.751435399055481,0.6737217903137207,-0.02266509458422661,-0.29177582263946533,0.3579884171485901,-0.8869673609733582,0.0003940761089324951,-0.08847242593765259,0.17787623405456543,0.7717778927446258,-0.05522274479863835,-0.23122879319809947,0.5897817104893606
1728063926023209500,2.51520947265625,1.2762054204940796,0.4563772678375244,-0.021334312856197357,-0.2869226336479187,0.34438133239746094,-0.8939110040664673,0.06559395790100098,-0.05588340759277344,0.15636217594146729,0.7728695549837958,-0.05095612616718184,-0.2246062600176133,0.5912935517613217
1728063926033239600,2.525239501953125,1.2642053365707397,0.44526875019073486,-0.18094633519649506,-0.2833058834075928,0.3330913782119751,-0.8993263840675354,0.042919009923934937,-0.0606609582901001,0.0063820481300354,0.773918574552995,-0.04738990536262449,-0.21929662863776478,0.5922104478789613
1728063926043270700,2.535270751953125,1.2865806818008423,0.5811964273452759,-0.3646402955055237,-0.27976301312446594,0.32058534026145935,-0.9049628376960754,-0.0634833574295044,-0.17033201456069946,-0.19856810569763184,0.7756096576794217,-0.04353039597910125,-0.21359704769131724,0.5923774186400961
1728063926053300700,2.54530078125,1.1778682470321655,0.7236600518226624,-0.25534573197364807,-0.2747649848461151,0.30858343839645386,-0.9106483459472656,-0.16470330953598022,-0.13229861855506897,-0.09380722045898438,0.7775244398874849,-0.04040358575520487,-0.20746896293693023,0.5922666271300437
1728063926063331600,2.55533154296875,1.383057713508606,0.6792206764221191,-0.06572707742452621,-0.2688225507736206,0.29643765091896057,-0.9164382815361023,-0.12592223286628723,0.005869477987289429,0.050120532512664795,0.7789705839767208,-0.037337714739580564,-0.20096453390939106,0.5928103023364781
1728063926073361700,2.565361572265625,1.344671368598938,0.6627060770988464,-0.014948852360248566,-0.2626899480819702,0.28387391567230225,-0.9221765398979187,-0.07715374231338501,0.034500718116760254,0.010387599468231201,0.7799461375434136,-0.034014901503399954,-0.1943057258121232,0.5939463255823456
1728063926083392500,2.575392578125,1.4553672075271606,0.7075561285018921,-0.11874422430992126,-0.2565360963344574,0.270682156085968,-0.9278579950332642,-0.06267771124839783,0.03791162371635437,0.020371973514556885,0.7810208278136106,-0.030494335525800036,-0.18745962912092243,0.59492468121971
1728063926093422600,2.585422607421875,1.479687213897705,0.6398472785949707,-0.14229534566402435,-0.2505624294281006,0.25661924481391907,-0.9334693551063538,-0.06608787178993225,0.01378178596496582,0.01611095666885376,0.7822715473737013,-0.026636673580980586,-0.18043230464017915,0.5956389509739687
1728063926103453700,2.59545361328125,1.2523033618927002,0.704833984375,-0.004688757471740246,-0.2446034848690033,0.24337506294250488,-0.9385828375816345,-0.03612762689590454,0.009279966354370117,0.11488288640975952,0.783266589557957,-0.02307213165300443,-0.1737131874988885,0.5964768888789305
1728063926113483800,2.60548388671875,1.28175687789917,0.4847261309623718,-0.0048197852447628975,-0.23856228590011597,0.2317913919687271,-0.9430592656135559,0.020361676812171936,0.004124760627746582,0.1939595341682434,0.7838919309674518,-0.02014920796527103,-0.16752425899538687,0.5975307312403585
1728063926123514600,2.6155146484375,1.0953192710876465,0.3377113938331604,-0.12791427969932556,-0.23531660437583923,0.21990175545215607,-0.9467149972915649,0.023372098803520203,-0.10324828326702118,0.03269827365875244,0.7845554372168924,-0.01631532688351758,-0.16240784023887972,0.5981890900392715
1728063926133544700,2.625544677734375,0.6936888694763184,0.6854386925697327,0.1984204202890396,-0.23045000433921814,0.21168114244937897,-0.9497810006141663,-0.0464816689491272,-0.04937340319156647,0.06316906213760376,0.784989419489617,-0.014437907365507032,-0.15780070022376802,0.5989008036565693
1728063926143575600,2.635575439453125,0.767979621887207,0.6324524283409119,0.43822047114372253,-0.22336387634277344,0.20565563440322876,-0.9527929425239563,0.0203152596950531,0.10092397034168243,0.1064794659614563,0.7845604000607795,-0.013913746582387136,-0.15300309597819817,0.6007175138429677
1728063926153606400,2.6456064453125,0.8073980212211609,0.6050904393196106,0.5452260375022888,-0.21660453081130981,0.1990915983915329,-0.9557431936264038,0.037237539887428284,0.1268056333065033,0.07709634304046631,0.7835924389466196,-0.012961842387786675,-0.14819042239823393,0.6032035891221715
1728063926163637500,2.655637451171875,0.4860612154006958,0.6472861170768738,0.6964986324310303,-0.20950275659561157,0.19381742179393768,-0.9584066867828369,-0.014923438429832458,0.128127783536911,0.19594025611877441,0.7822116444932338,-0.012575621586332181,-0.14366108197021135,0.606092587687242
1728063926173667300,2.665667236328125,0.4402017295360565,0.542449414730072,0.686059296131134,-0.20197422802448273,0.191471129655838,-0.9604921936988831,-0.0335908979177475,0.08189009130001068,0.10894495248794556,0.7804667833013854,-0.013463611210118957,-0.13990225919201182,0.6091943512706017
1728063926183698400,2.675698486328125,0.4975241422653198,0.30184003710746765,0.23233364522457123,-0.19739924371242523,0.18743658065795898,-0.962237536907196,-0.0590398907661438,-0.11507938802242279,-0.34190064668655396,0.7793698222981879,-0.012949528252903445,-0.13679746162270076,0.6113111997989954
1728063926193728500,2.685728515625,0.10309720039367676,0.4485972225666046,0.22857220470905304,-0.19332589209079742,0.1849607229232788,-0.9635427594184875,-0.1524839699268341,-0.11577735841274261,-0.26610201597213745,0.779042459691033,-0.01310195248647326,-0.13437620536568942,0.6122615736258261
1728063926203759400,2.69575927734375,0.005290214903652668,0.43080464005470276,0.4610879719257355,-0.188473179936409,0.1852940320968628,-0.9644397497177124,-0.07040736079216003,0.0966731607913971,0.1045306921005249,0.7782697556197999,-0.01453843073376825,-0.13254723498747967,0.6136091170965173
1728063926213789400,2.70578955078125,0.1906151920557022,0.48102259635925293,0.6546862125396729,-0.1829708069562912,0.18559172749519348,-0.9654415845870972,0.014757975935935974,0.2103280872106552,0.1397884488105774,0.7768254485807967,-0.016022364978896638,-0.13047032467275158,0.6158433754635333
1728063926223820500,2.715820556640625,0.6256508231163025,0.3794131577014923,0.6310389637947083,-0.177482008934021,0.18296262621879578,-0.9669668078422546,-0.0029683560132980347,0.23131351172924042,0.06764429807662964,0.775128868741999,-0.016284099821452864,-0.12748106727609712,0.6185941076206335
1728063926233851400,2.725851318359375,1.0284984111785889,0.2740945518016815,0.4462461769580841,-0.1734275370836258,0.17576952278614044,-0.9690345525741577,-0.06274794042110443,0.19414931535720825,-0.017842888832092285,0.7736935409559169,-0.014349623917018398,-0.12359939561040521,0.6212210674776424
1728063926243881500,2.735881591796875,1.098631739616394,0.34167546033859253,0.3016378879547119,-0.16987039148807526,0.16584672033786774,-0.9714108109474182,-0.13829602301120758,0.17494307458400726,0.022771894931793213,0.7728271384853558,-0.011311029785847087,-0.11902380402526548,0.6232525364998236
1728063926253912600,2.74591259765625,1.1368924379348755,0.3599393367767334,0.4088932275772095,-0.16579018533229828,0.15574786067008972,-0.9737845063209534,-0.16799573600292206,0.17976239323616028,0.17669588327407837,0.7720148691880189,-0.008403298702673177,-0.11418031808216556,0.6252080838310066
1728063926263942400,2.7559423828125,1.3663240671157837,0.33441081643104553,0.39834895730018616,-0.16190236806869507,0.14400771260261536,-0.9762424826622009,-0.05480287969112396,0.08434008061885834,0.18804973363876343,0.7709114584691028,-0.004764424011658257,-0.10888551330247105,0.6275482039367399
1728063926273973500,2.765973388671875,1.019598364830017,0.48739519715309143,0.18894223868846893,-0.1573110669851303,0.13252432644367218,-0.9786166548728943,0.10141819715499878,-0.08509999513626099,0.1804141402244568,0.7702593027062606,-0.0015583771272141434,-0.10338883420480617,0.6292923957903983
1728063926284003600,2.776003662109375,0.09601998329162598,0.3918282091617584,0.23804186284542084,-0.1526033580303192,0.12718228995800018,-0.9800698161125183,0.23297147452831268,-0.188339501619339,0.2927376627922058,0.7698760788995156,-0.0008701306249254158,-0.09982146106203667,0.6303378980645971
1728063926294034400,2.786034423828125,-0.7457379698753357,0.40410158038139343,0.4171042740345001,-0.14838941395282745,0.13112592697143555,-0.9801971912384033,0.3609902262687683,-0.16173505783081055,0.1972230076789856,0.7690348746744495,-0.003608345057838061,-0.09944030982560298,0.6314141787759359
1728063926304064500,2.796064453125,-1.4571199417114258,0.3876376450061798,0.39660778641700745,-0.143839031457901,0.14246393740177155,-0.9792928099632263,0.28885865211486816,-0.07883478701114655,0.06329244375228882,0.7678356724736545,-0.009300597131575465,-0.10132672914661779,0.6325146458535311
1728063926314095600,2.806095703125,-2.3526995182037354,0.3481137752532959,0.17774896323680878,-0.13980750739574432,0.16152219474315643,-0.9769157767295837,0.07910811901092529,-0.01990535855293274,0.06755298376083374,0.7670158092076232,-0.017933015288404238,-0.10592694484048767,0.6325698514382191
1728063926324125400,2.81612548828125,-3.1957406997680664,0.2093157023191452,0.11253240704536438,-0.13684366643428802,0.18895037472248077,-0.9724050164222717,-0.059216439723968506,-0.03576737642288208,0.14496666193008423,0.7664070069864928,-0.029604882817489755,-0.11367071432797854,0.6315241230421336
1728063926334156500,2.826156494140625,-3.8309390544891357,0.0346217080950737,0.19845370948314667,-0.13529254496097565,0.22345706820487976,-0.9652786254882812,-0.06029452383518219,-0.10481998324394226,0.16138464212417603,0.7653576634598676,-0.04365479173953158,-0.12431788862330885,0.6299737445417879
1728063926344186600,2.8361865234375,-4.047977447509766,-0.0840040072798729,0.2318233847618103,-0.13503077626228333,0.2620469927787781,-0.955561637878418,-0.036325350403785706,-0.1345140039920807,0.10210704803466797,0.7636189570023012,-0.05894691141434656,-0.1369103270631721,0.6282251815586678
1728063926354217500,2.846217529296875,-3.731868267059326,-0.16785651445388794,0.15157754719257355,-0.13566458225250244,0.2997511923313141,-0.9443221688270569,-0.03382997214794159,-0.1250227689743042,-0.030622899532318115,0.761594042004054,-0.07371956032110512,-0.14968081328225996,0.6262072736909088
1728063926364247600,2.85624755859375,-2.888746738433838,-0.319492906332016,0.09727861732244492,-0.13755953311920166,0.3313312530517578,-0.9334328770637512,-0.04635457694530487,-0.08500862121582031,-0.2619864344596863,0.7596946968530356,-0.08578053833262686,-0.16101319373347442,0.6241637770230943
1728063926374278700,2.866278564453125,-2.0027565956115723,-0.3518027365207672,-0.03878254443407059,-0.14062683284282684,0.3540598750114441,-0.9245894551277161,-0.05264092981815338,-0.04332989454269409,-0.49910134077072144,0.7582020206312046,-0.09400341141632236,-0.16990769358238378,0.6224342501185166
1728063926384308500,2.87630859375,-1.3884258270263672,-0.35232099890708923,-0.14141623675823212,-0.14424102008342743,0.3694338798522949,-0.9179940819740295,-0.0877077579498291,0.029903888702392578,-0.572377622127533,0.7573930060696413,-0.0992007459312186,-0.17652810356039358,0.6207679350610257
1728063926394339600,2.886339599609375,-1.073766827583313,-0.3041774034500122,-0.16622358560562134,-0.14786377549171448,0.3803601861000061,-0.9129416346549988,-0.06121207773685455,0.0631822943687439,-0.3906624913215637,0.7569625097075446,-0.10264441024834066,-0.1816405803958375,0.6192565555039904
1728063926404369400,2.896369384765625,-1.129653811454773,-0.30514413118362427,-0.18974542617797852,-0.15126574039459229,0.3899209797382355,-0.9083393216133118,0.02875298261642456,-0.011258870363235474,-0.27586477994918823,0.7566688472248922,-0.10563941035621634,-0.18620059666710792,0.6177554659164015
1728063926414400500,2.906400390625,-1.1624128818511963,-0.322927325963974,-0.1376526653766632,-0.15478524565696716,0.4003702700138092,-0.9031861424446106,0.07305924594402313,-0.1482798159122467,-0.2404906153678894,0.7562515935018095,-0.10897789894733055,-0.19113020218665247,0.6161790339135846
1728063926424430300,2.916430419921875,-1.1076862812042236,-0.40051454305648804,-0.15089203417301178,-0.15857066214084625,0.4102308750152588,-0.8980901837348938,0.08839558064937592,-0.3106672763824463,-0.3412744402885437,0.7557111620885412,-0.11197102472658857,-0.19600357304801452,0.6147729242277546
1728063926434461400,2.92646142578125,-1.1346231698989868,-0.4528171420097351,-0.20617473125457764,-0.1631682962179184,0.42013663053512573,-0.8926708698272705,0.057928502559661865,-0.39566153287887573,-0.437483549118042,0.7551886465823542,-0.11477228205059159,-0.20122595411169708,0.6132090906937341
1728063926444491300,2.9364912109375,-1.0745928287506104,-0.49837368726730347,-0.29243531823158264,-0.16846811771392822,0.42953988909721375,-0.8871944546699524,0.0551716685295105,-0.36800119280815125,-0.4206210970878601,0.7548146205609874,-0.11721938187766208,-0.20654877404764282,0.6114345088794676
1728063926454522400,2.9465224609375,-1.2849094867706299,-0.3760777413845062,-0.3815692067146301,-0.17399735748767853,0.4392388164997101,-0.8813592791557312,0.0914778858423233,-0.22491386532783508,-0.4270818829536438,0.7546964837566081,-0.11985721026350116,-0.21202501376605082,0.6091903545736713
1728063926464552400,2.956552490234375,-1.4880257844924927,-0.18292078375816345,-0.23597656190395355,-0.17783963680267334,0.45111319422721863,-0.8745684623718262,0.12426610291004181,0.05500558018684387,-0.20917177200317383,0.754535042204318,-0.12403044280626513,-0.21755971880598524,0.6065979618195904
1728063926474583300,2.966583251953125,-1.2245779037475586,-0.05365787446498871,0.09460853040218353,-0.17911745607852936,0.4630166292190552,-0.8680624961853027,0.21738658845424652,0.22724518179893494,-0.04867023229598999,0.7537500152827071,-0.1288246108096263,-0.2222002872212582,0.6048901633259521
1728063926484613400,2.97661328125,-0.9347178339958191,-0.0012812181375920773,0.2675400972366333,-0.1784118264913559,0.47272196412086487,-0.8629618883132935,0.30664676427841187,0.23441609740257263,-0.17175185680389404,0.7524197777542011,-0.1330389167253439,-0.22543228539018417,0.6044381439426227
1728063926494644500,2.98664453125,-0.5950431227684021,0.02027137205004692,0.32919278740882874,-0.1768728792667389,0.4799730181694031,-0.8592681884765625,0.27901530265808105,0.19223764538764954,-0.20210260152816772,0.7510217599204492,-0.13635700072751933,-0.22753607812506402,0.6046488600299387
1728063926504674600,2.996674560546875,0.1162448301911354,-0.11565104871988297,0.3497936725616455,-0.17555417120456696,0.48290449380874634,-0.8578950762748718,0.21373173594474792,0.08069416880607605,-0.2618711590766907,0.7497298285375256,-0.13763834875560546,-0.22827207902341204,0.6056836502317148
1728063926514705400,3.006705322265625,0.7599908113479614,-0.073199562728405,0.22509518265724182,-0.1749473214149475,0.47941625118255615,-0.8599729537963867,0.12648548185825348,-0.04631078243255615,-0.4071626663208008,0.7490077690843678,-0.13592558474912828,-0.22701929957969877,0.6074320904806734
1728063926524735500,3.016735595703125,0.9679954648017883,0.21391929686069489,0.06471028923988342,-0.17379947006702423,0.47218623757362366,-0.8641955256462097,-0.0493755042552948,-0.06570735573768616,-0.2905133366584778,0.7492452678229662,-0.13301238451635278,-0.2240757600466639,0.608875403716326
1728063926534766300,3.026766357421875,1.1566299200057983,0.5438530445098877,0.16313540935516357,-0.17001008987426758,0.463142991065979,-0.8698247671127319,-0.20648519694805145,-0.041695207357406616,-0.09823858737945557,0.7500905875417883,-0.130316193181664,-0.21932920582628332,0.610144636239025
1728063926544796400,3.03679638671875,1.6362276077270508,0.7358576059341431,0.3991202116012573,-0.16297480463981628,0.4515075385570526,-0.8772571682929993,-0.24606749415397644,-0.10101315379142761,-0.06617850065231323,0.7508026399468101,-0.1274209461667523,-0.2124507277415158,0.6123103747475122
1728063926554827500,3.04682763671875,1.9349647760391235,0.9259381890296936,0.36610954999923706,-0.1538974940776825,0.43623086810112,-0.8865767121315002,-0.24533337354660034,-0.21719098091125488,-0.007435739040374756,0.7515623671613264,-0.12359981152019314,-0.2035552626578623,0.6151767320650222
1728063926564857600,3.056857666015625,1.955844759941101,1.0953800678253174,0.16101285815238953,-0.14367836713790894,0.4190962016582489,-0.8965014815330505,-0.3465254306793213,-0.2030164897441864,0.04100221395492554,0.7529338036679283,-0.11960243042351393,-0.1935058551152442,0.6175285715886564
1728063926574888400,3.066888427734375,2.064362049102783,1.1663649082183838,0.02661830000579357,-0.13294346630573273,0.40127530694007874,-0.9062583446502686,-0.4073396623134613,-0.09710660576820374,0.17476725578308105,0.7549144697062069,-0.11573913850587655,-0.18296249911421936,0.6190585422149524
1728063926584918500,3.07691845703125,2.4419069290161133,1.1598950624465942,-0.07497330754995346,-0.12240675836801529,0.38053059577941895,-0.9166313409805298,-0.37609779834747314,0.042229413986206055,0.10220873355865479,0.7573092683440886,-0.11074005156472533,-0.17152539783919749,0.6203211290693276
1728063926594949400,3.086949462890625,2.5686113834381104,1.2789920568466187,-0.1404511034488678,-0.11165636032819748,0.35707229375839233,-0.9273792505264282,-0.36109137535095215,0.21108874678611755,0.026637673377990723,0.7600258859754002,-0.1048101032753857,-0.15913902194674828,0.621329380838436
1728063926604979500,3.0969794921875,2.620936393737793,1.3493589162826538,-0.07983224838972092,-0.0997437834739685,0.3327338695526123,-0.9377309679985046,-0.3597135543823242,0.4235527515411377,0.08145350217819214,0.7627225810889007,-0.09894258095740546,-0.14609889425412004,0.6221894858590286
1728063926615010600,3.107010498046875,2.810873508453369,1.3791649341583252,0.00736417667940259,-0.08699400722980499,0.30691832304000854,-0.9477516412734985,-0.27430352568626404,0.49104008078575134,0.028684258460998535,0.7651019164080779,-0.09272280602963925,-0.1323882845371215,0.623293543170082
1728063926625040600,3.11704052734375,2.765124797821045,1.2962042093276978,0.05928303301334381,-0.07401803880929947,0.2801525890827179,-0.9570976495742798,-0.16865766048431396,0.3310534954071045,0.016927361488342285,0.7670818097523141,-0.08618259015663426,-0.11842191504130853,0.62460730859321
1728063926635071500,3.127071533203125,2.6383254528045654,1.1507246494293213,-0.10966124385595322,-0.06238413229584694,0.2540934085845947,-0.9651656746864319,-0.09861128777265549,0.08298850059509277,0.045884668827056885,0.7689361674498372,-0.07956421233289507,-0.10529342038952233,0.6255557793674836
1728063926645102600,3.1371025390625,2.2434701919555664,0.9675689339637756,-0.297147274017334,-0.05254192277789116,0.2301677167415619,-0.9717315435409546,-0.08205579221248627,-0.1060984879732132,0.08141171932220459,0.7710606602024305,-0.07333903562599799,-0.09357146834733851,0.6255647591372894
1728063926655132400,3.14713232421875,1.788172960281372,0.8661162853240967,-0.3384803235530853,-0.04449043422937393,0.21031488478183746,-0.9766208529472351,-0.0757182389497757,-0.17129814624786377,0.3237125277519226,0.7732127734774783,-0.06820618448273962,-0.08388980274788255,0.6248619704656233
1728063926665163500,3.15716357421875,1.37840735912323,0.8044904470443726,-0.20571772754192352,-0.036867015063762665,0.19487501680850983,-0.9801349639892578,-0.03906065225601196,-0.08188366889953613,0.3935260772705078,0.7749358815545458,-0.06464495864644339,-0.07585214265396334,0.6241328092465345
1728063926675193600,3.167193603515625,1.2501126527786255,0.7224900126457214,-0.1110072061419487,-0.029711442068219185,0.18192866444587708,-0.9828627705574036,0.006258750334382057,0.04692266881465912,0.37824851274490356,0.776105929958912,-0.06186145577675724,-0.06886061572680145,0.6237714736754946
1728063926685224400,3.177224365234375,1.0907267332077026,0.6828987002372742,-0.11262108385562897,-0.023085419088602066,0.17027577757835388,-0.9851260185241699,0.04682815819978714,0.1468781679868698,0.2877383232116699,0.7770506176577059,-0.05940131007839486,-0.06251789936359699,0.6235024639615646
1728063926695254500,3.187254638671875,0.8156749606132507,0.5828482508659363,-0.04315545782446861,-0.016844511032104492,0.16075778007507324,-0.9868501424789429,0.07865792512893677,0.21543242037296295,0.34044206142425537,0.7777773218987992,-0.057646410242792455,-0.057024744877537316,0.6232876899792247
1728063926705285600,3.19728564453125,0.538383424282074,0.40510061383247375,-0.016330499202013016,-0.0119961928576231,0.15413178503513336,-0.9879774451255798,0.15780924260616302,0.19251738488674164,0.3047041893005371,0.7781694148719138,-0.056572079762452473,-0.053017587522020994,0.6232503522459032
1728063926715315500,3.2073154296875,0.23988594114780426,0.2606489658355713,-0.06023324280977249,-0.008810751140117645,0.15024568140506744,-0.9886094331741333,0.22182351350784302,0.13130950927734375,0.1809006929397583,0.7785015702649872,-0.056057575895640935,-0.0505255711892687,0.6230890342899574
1728063926725346600,3.2173466796875,-0.06314130872488022,0.0547056719660759,0.025319473817944527,-0.0072014001198112965,0.14949560165405273,-0.9887361526489258,0.23615959286689758,0.09052516520023346,0.19946002960205078,0.7786355128162655,-0.05627508397644855,-0.04964908121828812,0.6229726417313407
1728063926735376400,3.22737646484375,-0.1277322769165039,-0.2003439962863922,0.0624023973941803,-0.007963059470057487,0.15050368010997772,-0.9885773658752441,0.2458934187889099,0.03884264826774597,0.29840707778930664,0.7784381879421092,-0.05642002867779563,-0.05028013053154742,0.6231553713201152
1728063926745407500,3.237407470703125,-0.2568146288394928,-0.3039902150630951,0.09086785465478897,-0.010411870665848255,0.15241199731826782,-0.9882621765136719,0.16408319771289825,-0.0016093701124191284,0.3410453796386719,0.7780779060117342,-0.056379300406796735,-0.051867856080904766,0.6234787823218921
1728063926755437300,3.247437255859375,-0.23280823230743408,-0.37877097725868225,0.08134519308805466,-0.01363340299576521,0.15496495366096497,-0.987825870513916,0.06891606003046036,0.003818020224571228,0.3490471839904785,0.7776297353025231,-0.056342963046372596,-0.0539678192425767,0.6238628184471036
1728063926765468400,3.257468505859375,-0.24891583621501923,-0.4423457086086273,0.05799566209316254,-0.017641037702560425,0.1572750359773636,-0.9873972535133362,0.030489005148410797,-0.04715234041213989,0.18708902597427368,0.7772362186026347,-0.0559669998352989,-0.056294439583627745,0.6241813631413764
1728063926775498500,3.26749853515625,-0.4237414300441742,-0.494297057390213,0.05800045281648636,-0.02214249223470688,0.16051562130451202,-0.9867848753929138,0.011507181450724602,-0.12087327241897583,0.1139822006225586,0.7768299123627527,-0.055802028697133944,-0.05910737233278619,0.6244419626399722
1728063926785529300,3.277529296875,-0.6793636083602905,-0.6108242273330688,0.1911444067955017,-0.0274329986423254,0.16592872142791748,-0.9857560992240906,0.028821611776947975,-0.12286840379238129,0.11653918027877808,0.7761787186599828,-0.05622498266296499,-0.06293409607089182,0.6248397954412452
1728063926795559400,3.287559326171875,-1.0312001705169678,-0.7957488894462585,0.33766457438468933,-0.033857472240924835,0.17453549802303314,-0.9840686321258545,0.09098644554615021,-0.09236690402030945,0.06417727470397949,0.7747988145858291,-0.057477501755269604,-0.06827906895904028,0.625876296085186
1728063926805590300,3.29759033203125,-1.191202163696289,-0.9215811491012573,0.12716221809387207,-0.04192400351166725,0.18572761118412018,-0.9817065000534058,0.11495263129472733,-0.031064510345458984,-0.12045109272003174,0.7734006178167807,-0.05922657841567496,-0.07509306107062884,0.6266615314624522
1728063926815620400,3.307620361328125,-1.4491722583770752,-1.0158179998397827,0.09671749174594879,-0.051359761506319046,0.19856394827365875,-0.9787412881851196,-0.004319492727518082,0.04809437692165375,-0.1880677342414856,0.7723547426273536,-0.06123647136540398,-0.08294241849274929,0.6267684586213562
1728063926825651500,3.3176513671875,-1.659533143043518,-1.073303461074829,0.29235702753067017,-0.06116602569818497,0.21415312588214874,-0.9748831391334534,-0.02728911116719246,0.10860079526901245,-0.09655851125717163,0.77077919173972,-0.06415739818470276,-0.09188174513027433,0.6271689023228677
1728063926835681500,3.327681640625,-1.2914339303970337,-0.9996152520179749,0.2353139966726303,-0.07085088640451431,0.22930891811847687,-0.9707716107368469,0.006153695285320282,0.05441300570964813,-0.0807572603225708,0.7688631236603071,-0.06688811609493799,-0.10069836771230033,0.6278815959929104
1728063926845712400,3.33771240234375,-0.547990083694458,-0.635712206363678,0.016573920845985413,-0.0784764215350151,0.23808082938194275,-0.9680697321891785,-0.07247871160507202,-0.032346561551094055,-0.17453891038894653,0.7677557659183019,-0.0678289625005626,-0.10660382463607675,0.6281607261558935
1728063926855742500,3.347742431640625,0.11354538053274155,-0.3769492208957672,-0.010109888389706612,-0.0834285095334053,0.24042539298534393,-0.9670756459236145,-0.15720251202583313,0.10930606722831726,-0.189952552318573,0.7674364184008613,-0.0671581317703852,-0.1093250156769977,0.6281553943484371
1728063926865773300,3.357773193359375,1.2084201574325562,-0.11397884041070938,0.12516139447689056,-0.08555012941360474,0.23396344482898712,-0.9684742093086243,-0.10074435919523239,0.3792415261268616,-0.05764883756637573,0.7673505493095681,-0.06387517188554516,-0.10808728033766797,0.6288166036222345
1728063926875803400,3.367803466796875,1.9143449068069458,0.02089492417871952,0.15219859778881073,-0.08575274795293808,0.21857188642024994,-0.9720456600189209,-0.04910436272621155,0.45775866508483887,-0.19857805967330933,0.7673262250181121,-0.05764014859249738,-0.10322195956372521,0.6302645821778754
1728063926885834500,3.37783447265625,2.023911952972412,0.19878236949443817,0.18785220384597778,-0.08423177897930145,0.1990608274936676,-0.9763604998588562,-0.07078219205141068,0.3453422784805298,-0.1907690167427063,0.7674442140731181,-0.050369297141725826,-0.09634672717608364,0.631830337069513
1728063926895864600,3.387864501953125,1.7115049362182617,0.05410033464431763,0.36252811551094055,-0.08235157281160355,0.18107569217681885,-0.980015218257904,-0.03706364333629608,0.13520850241184235,-0.15725284814834595,0.7670679158201964,-0.04379191045334998,-0.08985913271558567,0.6337305438255233
1728063926905895400,3.3978955078125,1.58445405960083,-0.06914303451776505,0.46469709277153015,-0.08175849914550781,0.16526685655117035,-0.9828542470932007,0.07081801444292068,-0.027602046728134155,-0.18670141696929932,0.7660626811549583,-0.03762317381311156,-0.08460134012571319,0.6360622711697059
1728063926915925500,3.407925537109375,1.659774899482727,-0.0708080381155014,0.5563780069351196,-0.08171496540307999,0.15013642609119415,-0.9852825403213501,0.06035272777080536,0.06283050775527954,-0.2511066198348999,0.7646755871828381,-0.03154006154156238,-0.07977434717781781,0.6386802024629711
1728063926925956600,3.41795654296875,2.3402621746063232,-0.023459702730178833,0.5774015188217163,-0.08138706535100937,0.13093635439872742,-0.9880444407463074,0.02447184920310974,0.41323786973953247,-0.3111804127693176,0.7630865086311959,-0.023990085570169326,-0.07350004063943649,0.6416549587667031
1728063926935986400,3.427986328125,2.81842041015625,0.13999557495117188,0.5448648929595947,-0.08027233183383942,0.10561276227235794,-0.991162121295929,-0.0021708309650421143,0.6315851211547852,-0.29432982206344604,0.7615521211638412,-0.014403251032953358,-0.06489606088840376,0.6446855936255218
1728063926946017500,3.438017578125,3.060375452041626,0.2245999425649643,0.5831377506256104,-0.07788171619176865,0.07674836367368698,-0.9940040707588196,-0.023436568677425385,0.4937319755554199,0.07782065868377686,0.7599148079925508,-0.003950474159841768,-0.05461089846619629,0.6477124612947424
1728063926956047600,3.448047607421875,2.7207207679748535,0.25889790058135986,0.5568690896034241,-0.07496273517608643,0.04794237017631531,-0.9960331916809082,0.022304721176624298,0.030030060559511185,0.3080601692199707,0.7580598317512384,0.006228486826355242,-0.04409773663167029,0.6506626427205116
1728063926966078500,3.458078369140625,1.923627495765686,0.09097360819578171,0.13089171051979065,-0.07308705896139145,0.0248143021017313,-0.9970167875289917,0.09443417936563492,-0.40051618218421936,0.342460572719574,0.7567595388311458,0.014478899546270178,-0.035804375451326156,0.6525514410196066
1728063926976108500,3.468108642578125,0.9485400915145874,-0.07360580563545227,-0.39209213852882385,-0.07293657213449478,0.010544576682150364,-0.9972808361053467,0.13696251809597015,-0.5447700023651123,0.10439753532409668,0.7571077687661409,0.019821647003372356,-0.031091540432347332,0.6522485251154313
1728063926986139600,3.4781396484375,0.6188556551933289,-0.23253047466278076,-0.546630322933197,-0.07460487633943558,0.0028662902768701315,-0.9972090721130371,0.18253037333488464,-0.3566107749938965,0.10131978988647461,0.7586326078716267,0.023208409831108685,-0.02927188172309962,0.650446792023376
1728063926996169500,3.48816943359375,0.6174718141555786,-0.1839020550251007,-0.3772892355918884,-0.07684734463691711,-0.003665803698822856,-0.9970361590385437,0.2651866674423218,-0.014461619779467583,-0.0285375714302063,0.7600538084950769,0.026358330397517903,-0.02805660052879499,0.6487189190147424
1728063927006200600,3.49820068359375,0.8442535400390625,-0.12106583267450333,-0.1394186019897461,-0.07822509109973907,-0.010970816016197205,-0.9968753457069397,0.23816779255867004,0.2199857234954834,-0.1157802939414978,0.760782933738042,0.029556554768414515,-0.026243701128111373,0.6478017062185021
1728063927016230700,3.508230712890625,1.1242486238479614,0.006471510045230389,0.03213423490524292,-0.07875439524650574,-0.02105717360973358,-0.9966716170310974,0.09613422304391861,0.20008856058120728,0.017286241054534912,0.7607428983672543,0.033572788807925504,-0.023174388648717615,0.6477699946013583
1728063927026261500,3.518261474609375,0.939253032207489,-0.03324900195002556,-0.02225416898727417,-0.07880241423845291,-0.03164234012365341,-0.9963879585266113,-0.038552865386009216,0.018580835312604904,0.07643556594848633,0.7604907313356406,0.037630088478285806,-0.01974848617171148,0.6479566536917422
1728063927036292600,3.528292724609375,0.4718054533004761,-0.07981953769922256,-0.1803055852651596,-0.07940661162137985,-0.038735635578632355,-0.9960893988609314,-0.20111089944839478,-0.15009185671806335,0.3403124213218689,0.7606867399224247,0.040524387079746864,-0.017693556399192793,0.6476112912109236
1728063927046322700,3.53832275390625,0.1047251969575882,0.019999729469418526,-0.20733506977558136,-0.07969225943088531,-0.04166440665721893,-0.9959483742713928,-0.3104291260242462,-0.22269409894943237,0.5347362756729126,0.7612957643903226,0.041718080226178726,-0.016893794742861186,0.6468407723278501
1728063927056353500,3.548353515625,-0.34641608595848083,0.09608251601457596,-0.13783615827560425,-0.07897251844406128,-0.040673039853572845,-0.9960467219352722,-0.33341145515441895,-0.23372574150562286,0.3655688166618347,0.761864653685107,0.04109126111496699,-0.016975104036867066,0.6462086605522053
1728063927066383400,3.55838330078125,-0.8210132718086243,0.08104178309440613,-0.07457143813371658,-0.07795850187540054,-0.03483157977461815,-0.996347963809967,-0.3092331886291504,-0.21098749339580536,0.16826874017715454,0.7623470004528076,0.038518303068867374,-0.018503151079715334,0.6457561458989944
1728063927076414500,3.56841455078125,-1.1413593292236328,0.004783918149769306,0.0007664612494409084,-0.07755358517169952,-0.025007003918290138,-0.9966745376586914,-0.222540944814682,-0.19003508985042572,0.0731821060180664,0.7626458750485863,0.03462488486318255,-0.021537386426587785,0.645529731813846
1728063927086444300,3.5784443359375,-1.5097367763519287,-0.031772226095199585,0.031674839556217194,-0.0777311846613884,-0.011817011050879955,-0.9969043135643005,-0.07040107250213623,-0.20217223465442657,-0.05106931924819946,0.7627808733766295,0.029638922072499754,-0.02587227421565884,0.6454591968650502
1728063927096475400,3.588475341796875,-2.034669876098633,-0.06902585923671722,-0.07499035447835922,-0.07819843292236328,0.005873026791960001,-0.9969205260276794,0.043179579079151154,-0.21731404960155487,-0.03843408823013306,0.7630535034371142,0.023019315749075713,-0.03177819610103776,0.645143066460418
1728063927106505500,3.59850537109375,-2.1154165267944336,-0.1756950467824936,-0.268832266330719,-0.0794377401471138,0.026928838342428207,-0.9964760541915894,0.08377130329608917,-0.1999940127134323,0.11364829540252686,0.7637791882211538,0.01532653497976459,-0.03907788341849205,0.6441113232375321
1728063927116536300,3.608536376953125,-1.7422962188720703,-0.2577682435512543,-0.3757326304912567,-0.08171869814395905,0.046109650284051895,-0.9955882430076599,0.08657106012105942,-0.1412634402513504,0.2161082625389099,0.7649338699546605,0.008631433810715735,-0.04616682308893931,0.6423942451866608
1728063927126566400,3.61856640625,-1.3207128047943115,-0.2930321991443634,-0.2861824929714203,-0.08466438204050064,0.061024028807878494,-0.9945390820503235,0.06705581396818161,-0.0262797512114048,0.24192988872528076,0.7659973505837859,0.00376107787459389,-0.052118204171739194,0.6407164263835958
1728063927136597500,3.628597412109375,-1.176988124847412,-0.27017951011657715,-0.16075478494167328,-0.08776465803384781,0.0731339082121849,-0.9934529662132263,0.011791214346885681,0.06227260082960129,0.18456929922103882,0.7666464967973804,0.000029582924755382532,-0.057214649040864776,0.6395151290774483
1728063927146627300,3.63862744140625,-1.04371178150177,-0.15490193665027618,-0.021031778305768967,-0.08987206220626831,0.08420493453741074,-0.9923872947692871,-0.10217498987913132,0.07354044169187546,-0.04139566421508789,0.7668560711037072,-0.0035929659830747003,-0.06159093941499684,0.6388468856689947
1728063927156658000,3.648657958984375,-1.1375497579574585,-0.07476832717657089,0.17915751039981842,-0.0909811407327652,0.09494750201702118,-0.991316020488739,-0.16072776913642883,-0.028937973082065582,-0.3417070508003235,0.7665477069067768,-0.007363596771439583,-0.06548114080447869,0.6387977256711146
1728063927166688000,3.65868798828125,-1.5324366092681885,-0.06724729388952255,0.46216604113578796,-0.09129859507083893,0.10823390632867813,-0.9899242520332336,-0.1116127148270607,-0.19517847895622253,-0.38736456632614136,0.7654451785575603,-0.012289335230039446,-0.06990604449253737,0.6395747553255146
1728063927176718800,3.66871875,-2.3538873195648193,-0.4933401644229889,0.598778486251831,-0.09300887584686279,0.12802571058273315,-0.9873999953269958,0.025977082550525665,-0.39873188734054565,-0.45481497049331665,0.7634184948224702,-0.019179677762716868,-0.07702037687923365,0.6410087098785007
1728063927186749000,3.6787490234375,-2.9050254821777344,-1.0144648551940918,0.04520183429121971,-0.10024239122867584,0.15474456548690796,-0.9828558564186096,0.1378858983516693,-0.547200620174408,-0.4732751250267029,0.7615944230236392,-0.027009787673161048,-0.08855821068314368,0.6414061341639244
1728063927196780000,3.688780029296875,-2.9036905765533447,-1.2036497592926025,-0.8488090634346008,-0.11201067268848419,0.1831607222557068,-0.9766809940338135,0.08132531493902206,-0.4516848921775818,-0.19971060752868652,0.7618969341484764,-0.03440907646755532,-0.10234999292088354,0.6386340833724515
1728063927206810000,3.69881005859375,-2.924292802810669,-0.9460646510124207,-1.1299715042114258,-0.12498520314693451,0.2102530598640442,-0.9696248769760132,-0.03703255206346512,-0.117021843791008,0.3206990361213684,0.7641224132227312,-0.04138845848194183,-0.11608002300829419,0.6331897287849719
1728063927216841000,3.708841064453125,-2.655134439468384,-0.4599045515060425,-0.32018014788627625,-0.13347040116786957,0.23697862029075623,-0.9623028635978699,-0.07003600895404816,0.2624568045139313,0.5030438303947449,0.7654761892364583,-0.04968431753816212,-0.12798453877036386,0.6286474255855421
1728063927226871000,3.71887109375,-1.4426735639572144,-0.07888796180486679,0.199399933218956,-0.1360521912574768,0.25686344504356384,-0.9568233489990234,0.03961673378944397,0.34376823902130127,0.1360836625099182,0.7647363175619866,-0.056764499478676574,-0.1355216121410116,0.6273674620037978
1728063927236902000,3.72890185546875,-0.7403270602226257,0.4239414632320404,-0.05202111974358559,-0.13416047394275665,0.26712703704833984,-0.9542767405509949,-0.003946751356124878,0.16436100006103516,-0.17737609148025513,0.7642316788048068,-0.06142052954904028,-0.13816347836756396,0.6269674520522424
1728063927246932000,3.738931884765625,-0.4222375452518463,0.6038640737533569,-0.36365625262260437,-0.12957629561424255,0.2721731662750244,-0.9534839987754822,-0.09507878124713898,0.06992891430854797,-0.04174000024795532,0.7651221114684972,-0.06510799988617402,-0.13790918023630164,0.6255639339990593
1728063927256963000,3.748963134765625,-0.3515300750732422,0.5049484968185425,-0.48956385254859924,-0.12532511353492737,0.2753017246723175,-0.9531540274620056,0.035649269819259644,0.020276278257369995,0.018598973751068115,0.7667510802132065,-0.0680724546024166,-0.1370734640800243,0.6234338539158567
1728063927266993200,3.7589931640625,-0.4795144200325012,0.2720516324043274,-0.577420711517334,-0.123163141310215,0.2784115672111511,-0.9525322914123535,0.17995643615722656,-0.02972385287284851,0.02752929925918579,0.7685465876946356,-0.07041718217496096,-0.1370228458257372,0.6209687432671611
1728063927277024000,3.76902392578125,-0.8306760787963867,0.23597463965415955,-0.5291426777839661,-0.12241709232330322,0.28397536277770996,-0.95098477602005,0.173656165599823,-0.027139395475387573,0.11347562074661255,0.770240480329851,-0.07331991058173587,-0.13831774469183516,0.6182410949444623
1728063927287054000,3.77905419921875,-0.9250739216804504,0.18211886286735535,-0.3614466190338135,-0.12171357125043869,0.29194319248199463,-0.9486595392227173,0.11753274500370026,0.009784072637557983,0.14978569746017456,0.7714432001960525,-0.07711293284764914,-0.14044150407427894,0.6157962666136736
1728063927297085000,3.7890849609375,-0.8610183000564575,0.2940629720687866,-0.011942675337195396,-0.12028047442436218,0.3002984821796417,-0.9462311863899231,0.06598976999521255,0.012323588132858276,0.1677888035774231,0.7718595409019684,-0.0811319570276195,-0.1424851638469559,0.6142868923549907
1728063927307115000,3.799114990234375,-0.011064057238399982,0.3233596086502075,0.34647271037101746,-0.11612165719270706,0.3050690293312073,-0.9452241063117981,0.07118460536003113,-0.008285611867904663,0.05160844326019287,0.771299636396874,-0.08427489636838213,-0.14242781007910998,0.6145802785598338
1728063927317146000,3.80914599609375,-0.22102774679660797,0.35765212774276733,-0.1533924788236618,-0.11321042478084564,0.30518898367881775,-0.9455385208129883,0.08063297718763351,-0.16981300711631775,-0.10753154754638672,0.7710914536642784,-0.08517316906418682,-0.14133744580302357,0.6149693097688232
1728063927327176000,3.819176025390625,-1.0592987537384033,0.4815351963043213,-0.2836173474788666,-0.10946827381849289,0.311244398355484,-0.9440039992332458,-0.10824405401945114,-0.010493695735931396,0.021198272705078125,0.7719714083015763,-0.08906442227026547,-0.1416528002585826,0.6132389537747033
1728063927337207000,3.82920703125,-0.8153162598609924,0.0992378294467926,-0.09818648546934128,-0.10731616616249084,0.3207302391529083,-0.9410713911056519,-0.05309941619634628,0.22496983408927917,0.14636313915252686,0.7722410735997542,-0.09378095073146583,-0.14376869387458655,0.6117021218570686
1728063927347236900,3.83923681640625,-0.44215574860572815,0.05743738263845444,-0.2422642856836319,-0.10754018276929855,0.3258921802043915,-0.9392706751823425,0.03220761567354202,0.19553115963935852,-0.08273249864578247,0.7725122108974493,-0.0959583443784863,-0.14545329418256897,0.6106227972030461
1728063927357268000,3.84926806640625,-0.4694806933403015,0.42332708835601807,-0.04225664213299751,-0.1057237759232521,0.330192506313324,-0.9379740953445435,-0.18556642532348633,0.2680283486843109,-0.07476699352264404,0.772978944184768,-0.09844980656275576,-0.14601571732160465,0.6095002928659129
1728063927367297800,3.8592978515625,-0.08828408271074295,0.49915367364883423,0.28506341576576233,-0.10087548196315765,0.33296746015548706,-0.9375269412994385,-0.19456511735916138,0.30631476640701294,0.022304773330688477,0.7727990948796707,-0.10107152318534775,-0.14498643240450915,0.6095449984455165
1728063927377329000,3.869328857421875,-0.05673307552933693,0.45631179213523865,0.37463513016700745,-0.09514075517654419,0.3338361084461212,-0.9378175139427185,-0.07287370413541794,0.14478632807731628,-0.0790892243385315,0.7720263811956963,-0.10301966500944268,-0.14310203218115083,0.6106422992079096
1728063927387359000,3.87935888671875,0.0341760590672493,0.36426788568496704,0.17201517522335052,-0.0903511494398117,0.3341834545135498,-0.93816739320755,-0.010372042655944824,0.03752067685127258,-0.09498995542526245,0.7714696840473237,-0.10451302325252568,-0.14139775493339085,0.6114884449058581
1728063927397389800,3.889389892578125,-0.02069697715342045,0.29120174050331116,0.12297039479017258,-0.0868193656206131,0.3342122733592987,-0.9384905695915222,0.0023010000586509705,0.039704352617263794,-0.09831362962722778,0.7712855768346975,-0.10557309549450868,-0.14003227026864715,0.6118527499172912
1728063927407420000,3.899419921875,0.08245737105607986,0.21341878175735474,0.19377054274082184,-0.08397980034351349,0.33414340019226074,-0.9387734532356262,0.02975013107061386,0.11638760566711426,-0.07085484266281128,0.7709973843703328,-0.10635600688714224,-0.1389304735432372,0.612331476819142
1728063927417451000,3.909450927734375,0.0519091822206974,0.2669615149497986,0.31974098086357117,-0.08096150308847427,0.3335547149181366,-0.9392478466033936,0.003340102732181549,0.1195702850818634,-0.13346028327941895,0.7704181677720241,-0.10691089737507536,-0.13764500730032828,0.6132533303031659
1728063927427480800,3.919480712890625,-0.23914822936058044,0.44099751114845276,0.43438899517059326,-0.07634719461202621,0.33472588658332825,-0.9392176270484924,-0.04445657134056091,0.06148383021354675,-0.09256643056869507,0.7694359542612879,-0.10861948788485651,-0.13635617999797225,0.6144730809951732
1728063927437512000,3.929511962890625,-0.4239766597747803,0.4375655949115753,0.4937487244606018,-0.0705341100692749,0.33823704719543457,-0.9384139180183411,-0.06804614514112473,0.0020034313201904297,0.026426613330841064,0.7681158873080263,-0.11162250468214752,-0.13540114247496104,0.6157961913783623
1728063927447542800,3.939542724609375,-0.3782515227794647,0.4686841070652008,0.5069462656974792,-0.06463222950696945,0.3425808250904083,-0.9372625350952148,-0.04845059663057327,-0.054876357316970825,0.10405635833740234,0.7666250265170288,-0.11497716838563213,-0.13471815424173347,0.6171850976893773
1728063927457572900,3.94957275390625,0.0483802929520607,0.4415223300457001,0.40313148498535156,-0.05874272435903549,0.34462136030197144,-0.9369020462036133,-0.015613287687301636,-0.0052658915519714355,0.13885211944580078,0.7653827393847417,-0.11741958921688879,-0.13327276401756993,0.6185791638128251
1728063927467604000,3.95960400390625,0.5696331262588501,0.4633176326751709,0.33004263043403625,-0.053294964134693146,0.34196898341178894,-0.9381987452507019,-0.045063119381666183,0.13772159814834595,0.1871306300163269,0.7647641776006123,-0.11788771490248875,-0.13039600182336195,0.6198670365016837
1728063927477634000,3.969634033203125,1.2264631986618042,0.4811968505382538,0.487531840801239,-0.04756927862763405,0.3337613642215729,-0.9414566159248352,-0.03952782228589058,0.3052004277706146,0.1717575192451477,0.7643518392446913,-0.11616943763496759,-0.12560400813810296,0.6216868746045671
1728063927487665000,3.979664794921875,1.687251091003418,0.4026397168636322,0.7250972390174866,-0.04117702320218086,0.3201674520969391,-0.9464656710624695,0.061288174241781235,0.3384018838405609,-0.04236489534378052,0.7635546364375752,-0.11237965651621744,-0.118903239914304,0.6246736365232934
1728063927497695000,3.989695068359375,1.8233648538589478,0.2387923151254654,0.6286338567733765,-0.03613344952464104,0.3033559024333954,-0.952191948890686,0.1622474193572998,0.18371987342834473,-0.2431357502937317,0.7625009224991014,-0.10685866313481183,-0.11173736042751316,0.628242137910149
1728063927507726000,3.99972607421875,1.5661200284957886,0.3179033696651459,0.23925679922103882,-0.032190173864364624,0.2872439920902252,-0.9573163986206055,0.1533602774143219,-0.02496066689491272,-0.43619251251220703,0.7621431658707597,-0.10147484826388971,-0.10509357512228053,0.630710605322766
1728063927517756000,4.009755859375,1.0773259401321411,0.4265422821044922,-0.12988129258155823,-0.028533976525068283,0.274515300989151,-0.9611592888832092,-0.0014189612120389938,-0.1338445246219635,-0.28011268377304077,0.7628853127350519,-0.09759999373936445,-0.09947159835116066,0.6313364447275236
1728063927527787000,4.019787109375,1.12678062915802,0.3952312469482422,-0.04735952243208885,-0.024722382426261902,0.26424312591552734,-0.9641391634941101,-0.11205733567476273,-0.07842162251472473,-0.04501605033874512,0.7639624071853356,-0.09483376133146133,-0.09453552042811615,0.6312139451240703
1728063927537817000,4.029817138671875,1.489094853401184,0.2963073253631592,0.1844332367181778,-0.02132471837103367,0.25162473320961,-0.9675899147987366,-0.04636320099234581,0.049156516790390015,-0.010513722896575928,0.7644794021021581,-0.09091614301126567,-0.08910273206856076,0.6319542616566928
1728063927547848000,4.039847900390625,2.0945675373077393,0.344066321849823,0.2617349326610565,-0.01761862076818943,0.23452551662921906,-0.9719502925872803,0.030207185074687004,0.19954125583171844,0.07439780235290527,0.7646625312881382,-0.08528219961938231,-0.08216934962215794,0.6334558988902402
1728063927557878000,4.0498779296875,2.8307504653930664,0.442183256149292,0.17565013468265533,-0.013312866911292076,0.21039094030857086,-0.9775266647338867,0.0805584192276001,0.26485931873321533,0.018359243869781494,0.76509030393956,-0.0771228730147561,-0.07272357308166921,0.635138000406161
1728063927567909000,4.0599091796875,3.201725482940674,0.5355156064033508,-0.006834466475993395,-0.008259844034910202,0.18047943711280823,-0.9835440516471863,0.12468446791172028,0.20880278944969177,-0.06594014167785645,0.7661015431185068,-0.06705671694393772,-0.06108485459668299,0.6362864381599981
1728063927577939000,4.06993896484375,3.176044464111328,0.39738142490386963,-0.029811687767505646,-0.0034677491057664156,0.14863689243793488,-0.988885760307312,0.13689066469669342,0.19174091517925262,-0.12022978067398071,0.7673517163261449,-0.056236636947836864,-0.04893424577636474,0.6368784639183391
1728063927587970000,4.079969970703125,2.3525071144104004,-0.0006620860658586025,0.46125683188438416,-0.0012975068530067801,0.12111203372478485,-0.9926379919052124,0.19850216805934906,0.11968692392110825,-0.16146045923233032,0.7675061103551769,-0.04623328697722398,-0.03928721202172936,0.63816405411282
1728063927598000000,4.090000244140625,1.657302737236023,-0.36184051632881165,0.40456080436706543,-0.0030053684022277594,0.10073744505643845,-0.9949085116386414,0.307647168636322,-0.13612255454063416,0.03354376554489136,0.7662790919741687,-0.03773004302297938,-0.03349911516190605,0.6405237152929442
1728063927608031000,4.100031005859375,0.9066381454467773,-0.24752645194530487,-0.2045816332101822,-0.005859895143657923,0.08850881457328796,-0.9960581660270691,0.13832150399684906,-0.3177263140678406,0.07673138380050659,0.7661284772698466,-0.032089265308956574,-0.03067899575848944,0.6411522550001678
