time,seconds_elapsed,rotationRateX,rotationRateY,rotationRateZ,gravityX,gravityY,gravityZ,accelerationX,accelerationY,accelerationZ,quaternionW,quaternionX,quaternionY,quaternionZ
1728063584342896400,0.078896484375,-0.14597399532794952,-0.2384779006242752,-0.05143256112933159,-0.05329034850001335,-0.3265725374221802,-0.9436686635017395,-0.008370425552129745,0.009174436330795288,-0.025294959545135498,0.9858166320437374,0.16563553866980885,-0.027028530438746465,-3.368330408641662e-17
1728063584352926500,0.088926513671875,-0.11998335272073746,-0.2231478989124298,-0.05809978395700455,-0.055643703788518906,-0.3255101442337036,-0.9438998699188232,0.0003000684082508087,0.004343122243881226,-0.016869783401489258,0.985875201432561,0.16507401306340663,-0.02829557263107971,-0.0004485964573092145
1728063584362957600,0.09895751953125,-0.10499721020460129,-0.18892307579517365,-0.07058947533369064,-0.05774484947323799,-0.3243895173072815,-0.9441593885421753,-0.013254296034574509,-0.009091317653656006,-0.03261667490005493,0.9859406336225898,0.16447986285554303,-0.029439269369191584,-0.0009298871538518743
1728063584372987400,0.1089873046875,-0.12385278940200806,-0.1720016598701477,-0.07060599327087402,-0.05946219339966774,-0.32310163974761963,-0.944494366645813,-0.02728402614593506,-0.006656080484390259,-0.04529750347137451,0.9860250087692102,0.16379684795132063,-0.030387715051468773,-0.0014160896375554149
1728063584383018500,0.1190185546875,-0.13277970254421234,-0.19128401577472687,-0.07583750039339066,-0.06102868542075157,-0.32169604301452637,-0.9448741674423218,-0.022879399359226227,-0.004948854446411133,-0.03770029544830322,0.9861203862926831,0.16305075044639325,-0.031263060249558106,-0.0019306779421249902
1728063584393049600,0.129049560546875,-0.14840726554393768,-0.20762597024440765,-0.07415758073329926,-0.06257422268390656,-0.3201344609260559,-0.9453033208847046,-0.006853275001049042,-0.008341491222381592,-0.024575769901275635,0.9862279256306152,0.16222120145401853,-0.03213428507183799,-0.002494246992527005
1728063584403079400,0.139079345703125,-0.1547493189573288,-0.20160669088363647,-0.07555068284273148,-0.06416294723749161,-0.3184593915939331,-0.9457625150680542,0.005187720060348511,-0.0018683969974517822,-0.0110245943069458,0.9863428031107379,0.16133254058454002,-0.03302345695558046,-0.0030432470904211586
1728063584413110500,0.149110595703125,-0.15673132240772247,-0.2030683010816574,-0.0728161484003067,-0.06585095822811127,-0.3169189989566803,-0.9461638331413269,0.01163647323846817,-0.0006316900253295898,-0.0016358494758605957,0.9864425789234089,0.16051352699619298,-0.03396310092205139,-0.0035957719211429044
1728063584423140600,0.159140625,-0.14594417810440063,-0.19768871366977692,-0.05308079347014427,-0.06747468560934067,-0.31544259190559387,-0.9465427398681641,0.01158173382282257,-0.008028507232666016,0.0053043365478515625,0.9865367412696551,0.15972934729611935,-0.03485926969705036,-0.0040857033744301
1728063584433171500,0.16917138671875,-0.15250293910503387,-0.19622215628623962,-0.0541018471121788,-0.06894582509994507,-0.31409841775894165,-0.9468836784362793,0.020758554339408875,-0.004611939191818237,0.010055065155029297,0.9866210103533716,0.15901384479572173,-0.03567585410415481,-0.004563348109571778
1728063584443201500,0.179201416015625,-0.14237520098686218,-0.1987449675798416,-0.07167232036590576,-0.07062185555696487,-0.31293341517448425,-0.9471458196640015,0.024845488369464874,0.002081364393234253,0.01170581579208374,0.9866850515948475,0.15839034301598923,-0.036600282263069585,-0.005063580677024885
1728063584453232600,0.189232666015625,-0.15054099261760712,-0.17813721299171448,-0.104576475918293,-0.07245190441608429,-0.3116913437843323,-0.947417140007019,0.013079948723316193,-0.0030516982078552246,0.012556910514831543,0.986750466731112,0.15772242257263003,-0.037617442472907374,-0.005662339809960383
1728063584463262500,0.199262451171875,-0.17391742765903473,-0.16671332716941833,-0.10103499889373779,-0.07402399182319641,-0.3103318512439728,-0.9477418065071106,-0.014492258429527283,-0.01123189926147461,0.01724565029144287,0.9868287152568062,0.15699020150097207,-0.038511819817815075,-0.006322529685158376
1728063584473293600,0.20929345703125,-0.17954766750335693,-0.1352970153093338,-0.08205864578485489,-0.07489495724439621,-0.3091075122356415,-0.9480734467506409,-0.028178170323371887,-0.00960281491279602,0.01834017038345337,0.9869083885623693,0.15632793147939258,-0.03904926238194036,-0.006976154219541871
1728063584483323600,0.21932373046875,-0.1519959419965744,-0.10621051490306854,-0.047990426421165466,-0.07525236159563065,-0.30787402391433716,-0.9484464526176453,-0.02914828062057495,-0.01082107424736023,0.0012418627738952637,0.9869991247615727,0.1556667287604446,-0.039301959245990316,-0.00748277091639499
1728063584493354500,0.2293544921875,-0.1042264923453331,-0.09875765442848206,-0.005217394791543484,-0.07532797008752823,-0.3070559501647949,-0.9487056136131287,-0.024327188730239868,-0.011639147996902466,-0.015771925449371338,0.9870622160373737,0.15522863798649517,-0.039386069077196474,-0.007811158974297069
1728063584503384600,0.239384521484375,-0.07360972464084625,-0.10513565689325333,0.029943255707621574,-0.07554954290390015,-0.30692344903945923,-0.9487308859825134,-0.01353127509355545,-0.0013804137706756592,-0.013259470462799072,0.9870678484701807,0.15515574118479628,-0.03951277778395855,-0.007908309898031486
1728063584513415700,0.249415771484375,-0.04764577001333237,-0.11271166056394577,0.0692102313041687,-0.07571597397327423,-0.30692028999328613,-0.9487186074256897,0.006639428436756134,0.012715578079223633,-0.007168173789978027,0.9870652385368025,0.15515648578550054,-0.03958726788516854,-0.007845176761759899
1728063584523445200,0.2594453125,-0.030192477628588676,-0.11306107044219971,0.08502408117055893,-0.07591169327497482,-0.30680936574935913,-0.9487388730049133,0.018553897738456726,0.013977915048599243,-0.0005714297294616699,0.987072032386385,0.15510721538042077,-0.03965248000804413,-0.00763347983536493
1728063584533476400,0.269476318359375,-0.02938840165734291,-0.11895453929901123,0.08448106050491333,-0.0766955241560936,-0.3069126009941101,-0.9486424326896667,0.0119829922914505,0.00880160927772522,0.005771338939666748,0.9870497333700969,0.15517145756272363,-0.040007557801131036,-0.007357582277757423
1728063584543506400,0.27950634765625,-0.048193518072366714,-0.10818976908922195,0.0701974630355835,-0.07846615463495255,-0.3072064518928528,-0.948402464389801,-0.002619050443172455,0.007691681385040283,0.0187302827835083,0.9869912470834784,0.15533595323345084,-0.04085951073301197,-0.007048603963594656
1728063584553537300,0.289537353515625,-0.08046483248472214,-0.11412126570940018,0.07651075720787048,-0.08066944032907486,-0.3071030080318451,-0.9482511281967163,-0.010471314191818237,0.0038956105709075928,0.028085172176361084,0.9869549956773573,0.15529490475334418,-0.04192772948817429,-0.006735981166554625
1728063584563567400,0.2995673828125,-0.09718389064073563,-0.0953928530216217,0.10215220600366592,-0.08277250081300735,-0.3065759539604187,-0.9482403993606567,-0.004202596843242645,0.003444850444793701,0.032041728496551514,0.9869549515989389,0.15503837324068057,-0.042928905115707176,-0.006338074146413766
1728063584573598500,0.309598388671875,-0.09341252595186234,-0.08815938979387283,0.14396624267101288,-0.0844881683588028,-0.3057272434234619,-0.9483631253242493,0.008407838642597198,0.0034048259258270264,0.022597134113311768,0.9869894061377918,0.15462214630837942,-0.0437084860730114,-0.005793017868346626
1728063584583628500,0.319628662109375,-0.07484230399131775,-0.06777901947498322,0.17394863069057465,-0.0857967957854271,-0.30479106307029724,-0.9485469460487366,0.013180211186408997,0.009335130453109741,0.007400095462799072,0.987039948507405,0.15416901818468617,-0.044254228912381344,-0.005074258205980963
1728063584593659400,0.329659423828125,-0.13191518187522888,-0.05027539283037186,0.1994609236717224,-0.08626332879066467,-0.3032733201980591,-0.9489910006523132,0.014897964894771576,-0.0019330084323883057,-0.008986294269561768,0.9871562908256116,0.15341838798866447,-0.04435413560834479,-0.004255022486404477
1728063584603689500,0.339689453125,-0.13831502199172974,-0.07440203428268433,0.2117847055196762,-0.08656421303749084,-0.301499605178833,-0.9495286345481873,0.008683346211910248,-0.01075628399848938,-0.006846487522125244,0.987295792032461,0.15253741814313682,-0.04436233540831814,-0.003386980810074884
1728063584613720300,0.34972021484375,-0.19385871291160583,-0.10251574218273163,0.24963168799877167,-0.0873236134648323,-0.29973462224006653,-0.9500177502632141,0.012418217957019806,0.005926638841629028,0.0015772581100463867,0.9874224141995944,0.15166627282934295,-0.04459216278697281,-0.002436239581257836
1728063584623751400,0.35975146484375,-0.26699045300483704,-0.10299458354711533,0.32602202892303467,-0.08899220079183578,-0.2975132465362549,-0.9505610466003418,0.026339605450630188,-0.003466367721557617,-0.0004887580871582031,0.9875623099470007,0.1505770142981065,-0.04523327870263403,-0.0011594227399854065
1728063584633781500,0.369781494140625,-0.32608938217163086,-0.12095770239830017,0.3806208372116089,-0.09123794734477997,-0.29486989974975586,-0.9511715769767761,0.04260818660259247,0.0010924339294433594,0.0205686092376709,0.9877173530673862,0.14928903433471416,-0.046119350266951575,0.0004427135014937794
1728063584643812400,0.379812255859375,-0.3783975839614868,-0.136175274848938,0.46968361735343933,-0.09363711625337601,-0.29174479842185974,-0.9519017934799194,0.04274905472993851,0.0005765855312347412,0.02930968999862671,0.9878995405182085,0.1477705136688428,-0.047042182002101376,0.002338810958241847
1728063584653842400,0.389842529296875,-0.40950390696525574,-0.15098176896572113,0.5887473821640015,-0.09610909968614578,-0.2879752218723297,-0.9528028964996338,0.04125375300645828,-0.014225125312805176,0.03887772560119629,0.9881191022532615,0.14594785074912206,-0.047935189724412026,0.004720004623253416
1728063584663873500,0.39987353515625,-0.4060162305831909,-0.15978431701660156,0.6491708159446716,-0.0994117334485054,-0.2834591567516327,-0.9538177251815796,0.04332040995359421,-0.02087739109992981,0.04376828670501709,0.9883578456700509,0.1437768675612611,-0.04918700826344894,0.007591626784470174
1728063584673903400,0.4099033203125,-0.4097965955734253,-0.162409707903862,0.6768887042999268,-0.10286649316549301,-0.2788701355457306,-0.9548035860061646,0.033438995480537415,-0.016143321990966797,0.025589168071746826,0.9885789416575644,0.14159044623431255,-0.05050087389108744,0.010658531139566612
1728063584683934500,0.4199345703125,-0.405069500207901,-0.15975932776927948,0.7050002217292786,-0.10637234151363373,-0.2742014229297638,-0.9557711482048035,0.018954738974571228,0.003159552812576294,0.015661954879760742,0.9887837862798867,0.13938300704849033,-0.05183428384846634,0.01387021121865493
1728063584693964500,0.429964599609375,-0.39950060844421387,-0.14767661690711975,0.7166475653648376,-0.10980044305324554,-0.26958969235420227,-0.9566949605941772,0.016492940485477448,0.02314499020576477,0.014861464500427246,0.9889653352371827,0.1372218803856593,-0.05312879977633626,0.01718152258458605
1728063584703995400,0.439995361328125,-0.411965012550354,-0.1377536803483963,0.7187514901161194,-0.11310233175754547,-0.2648869752883911,-0.9576234817504883,0.01723136007785797,0.028513073921203613,0.0034304261207580566,0.9891358557404063,0.1350272957931152,-0.054368040735744784,0.02054241669341774
1728063584714025500,0.450025390625,-0.432908296585083,-0.12399115413427353,0.7093185782432556,-0.11622733622789383,-0.260003924369812,-0.9585870504379272,0.021561801433563232,0.02504909038543701,0.0032953619956970215,0.9893044331048827,0.1327480015020402,-0.05553767566344356,0.023879817173598786
1728063584724056600,0.460056640625,-0.46945273876190186,-0.13088713586330414,0.6769326329231262,-0.11913467943668365,-0.25487691164016724,-0.9596065282821655,0.025659330189228058,0.01757219433784485,0.007030844688415527,0.9894794474280918,0.1303438376068859,-0.05663229149874842,0.027088750001316237
1728063584734086400,0.47008642578125,-0.5561497807502747,-0.13852907717227936,0.6943135261535645,-0.12218654900789261,-0.2491018921136856,-0.9607385993003845,0.035745494067668915,0.018343210220336914,0.017409801483154297,0.989673693480567,0.12761848349246535,-0.057829141982450476,0.030256541828510328
1728063584744117500,0.480117431640625,-0.6657553911209106,-0.17634570598602295,0.6898929476737976,-0.12542064487934113,-0.24234482645988464,-0.9620491862297058,0.05463510751724243,0.012471139430999756,0.03342980146408081,0.9899024950344695,0.12440620020250666,-0.059148085615901756,0.03343468381206498
1728063584754147600,0.490147705078125,-1.0519872903823853,0.3363577127456665,-0.267561674118042,-0.12669117748737335,-0.23403629660606384,-0.9639379382133484,0.05222828686237335,-0.013873264193534851,0.049921274185180664,0.9903206791963516,0.12027950606940153,-0.05969812472170225,0.035129002923684684
1728063584764178400,0.500178466796875,-1.257706880569458,-0.5053282380104065,-1.2574015855789185,-0.12438701838254929,-0.22368566691875458,-0.9666915535926819,-0.06732442229986191,-0.14299830794334412,0.06292873620986938,0.9911767648178705,0.11464617882247428,-0.059249188874792885,0.030241642075613997
1728063584774208500,0.51020849609375,-1.3761698007583618,-1.0508053302764893,-0.42751193046569824,-0.13027837872505188,-0.21212348341941833,-0.9685201048851013,0.12112309038639069,-0.21030086278915405,0.13525289297103882,0.9917861944419462,0.10852103644948842,-0.0629534366483854,0.024906133638347594
1728063584784239600,0.520239501953125,-1.475081205368042,-1.1828140020370483,0.5423708558082581,-0.141651451587677,-0.19797243177890778,-0.969918429851532,0.401661217212677,0.006276249885559082,0.10685080289840698,0.9921552246571592,0.10145221419918245,-0.06890736458896665,0.024237284532727412
1728063584794269400,0.53026953125,-1.239816665649414,-0.7064486145973206,1.0720715522766113,-0.15275980532169342,-0.18332228064537048,-0.9711114168167114,0.16821695864200592,0.1342042237520218,0.0416681170463562,0.9923733758888202,0.0944188999374369,-0.07435967019460957,0.027402812823427294
1728063584804299500,0.540299560546875,-0.8378865718841553,-0.2579549252986908,1.5011755228042603,-0.1592703014612198,-0.17105814814567566,-0.9723024368286133,-0.038010597229003906,0.14221902191638947,-0.06773656606674194,0.9924929821147215,0.08876827291455923,-0.07725905455756482,0.033301107291249264
1728063584814329600,0.55032958984375,-0.6097710728645325,-0.158712238073349,1.734987735748291,-0.163813054561615,-0.16152015328407288,-0.9731785655021667,0.06925433874130249,0.12099280953407288,-0.12075448036193848,0.9924233329414758,0.08464570957950303,-0.07903050519806293,0.04105123321609714
1728063584824360700,0.560360595703125,-0.6258546710014343,-0.36274150013923645,1.7964369058609009,-0.16899681091308594,-0.15260851383209229,-0.9737303256988525,0.21513937413692474,0.07631455361843109,-0.08719801902770996,0.9921751679326533,0.08095619894938091,-0.08112296664880904,0.04953554455253278
1728063584834390500,0.570390625,-0.7928663492202759,-0.6422033309936523,1.6976683139801025,-0.17650598287582397,-0.14268314838409424,-0.9739030599594116,0.3117751479148865,-0.006883516907691956,-0.05043470859527588,0.9917723656599305,0.07685717407701467,-0.08450708941062682,0.05778508027512683
1728063584844421600,0.580421630859375,-0.9902454614639282,-0.884972333908081,1.4558122158050537,-0.18622802197933197,-0.13109154999256134,-0.9737218022346497,0.3079321086406708,-0.09689003229141235,-0.03924816846847534,0.9912807911408316,0.0719712033821041,-0.08921461595896864,0.06498819057880055
1728063584854452700,0.59045263671875,-1.1551400423049927,-0.9672721028327942,1.074782371520996,-0.1968456357717514,-0.1180824488401413,-0.973297655582428,0.2198864072561264,-0.1284385621547699,-0.051436781883239746,0.9907966727092963,0.06632252822919343,-0.09461761289342144,0.07050395875210842
1728063584864482600,0.600482666015625,-1.1516590118408203,-1.0163778066635132,0.834372341632843,-0.20773331820964813,-0.10479658842086792,-0.9725556969642639,0.11874404549598694,-0.11540301144123077,-0.057732999324798584,0.9903373715667263,0.06043097898333999,-0.1003506809143587,0.07422732322891144
1728063584874513700,0.610513671875,-1.0169368982315063,-0.8199529051780701,0.901691734790802,-0.21760544180870056,-0.09232612699270248,-0.971660315990448,0.010330036282539368,-0.03304009139537811,-0.0492900013923645,0.9898475650577289,0.05492297451222034,-0.10560923510562768,0.0776665755831342
1728063584884543700,0.620543701171875,-0.7557111978530884,-0.6289035677909851,1.101684331893921,-0.22552530467510223,-0.08138920366764069,-0.9708316922187805,-0.01368674635887146,0.05158877372741699,-0.07726401090621948,0.9892948437118882,0.05022954269339193,-0.10982329570609647,0.0819245664979936
1728063584894574600,0.63057470703125,-0.45189473032951355,-0.6216938495635986,0.8470913171768188,-0.23231615126132965,-0.07321085035800934,-0.9698811173439026,0.04527390003204346,0.05465616285800934,-0.10410869121551514,0.9886641627636709,0.04694617763778987,-0.11338208404488938,0.08650905951614832
1728063584904604700,0.640604736328125,-0.4134887456893921,-0.20102575421333313,0.9366734027862549,-0.23752528429031372,-0.06746964156627655,-0.9690353870391846,-0.03965064883232117,0.037440329790115356,-0.09299159049987793,0.988141545105625,0.044711752512322275,-0.11611701721372246,0.08996717713195307
1728063584914635800,0.6506357421875,-0.3662613034248352,-0.3174367845058441,1.5855486392974854,-0.2408297061920166,-0.06065262109041214,-0.9686703681945801,0.10882590711116791,0.06710708141326904,-0.07240629196166992,0.987478167792999,0.04217084305457005,-0.11784068424933433,0.09603199168494736
1728063584924665600,0.66066552734375,-0.439157098531723,-0.4785899817943573,1.8071739673614502,-0.24560301005840302,-0.05248434096574783,-0.9679486155509949,0.4542974829673767,0.06292134523391724,-0.05049920082092285,0.9864509783590499,0.039331249868301194,-0.12032761281360559,0.1043499492474155
1728063584934696700,0.67069677734375,-0.5278666615486145,-0.7727835178375244,1.4351141452789307,-0.2525346577167511,-0.04366597905755043,-0.9666020274162292,0.3632676601409912,-0.04414835944771767,-0.03330636024475098,0.9852583294234355,0.03627178657411447,-0.12402955148538991,0.1121030435845156
1728063584944726800,0.680726806640625,-0.6894387602806091,-0.9016032814979553,0.913122296333313,-0.26127171516418457,-0.034800395369529724,-0.9646377563476562,0.17176365852355957,-0.15681949257850647,-0.06566619873046875,0.9841476996684829,0.03303935464943608,-0.12880029839088958,0.11735537525372046
1728063584954757600,0.690757568359375,-0.8370774388313293,-0.8619092702865601,0.7103481292724609,-0.2701573669910431,-0.025265280157327652,-0.9624846577644348,0.01663258671760559,-0.17769187688827515,-0.08455818891525269,0.9832145845597423,0.02925259290735735,-0.1337982432305994,0.12054669259068207
1728063584964787500,0.700787353515625,-0.8017460703849792,-0.7890462279319763,0.8844181895256042,-0.2782542407512665,-0.015082078985869884,-0.9603890180587769,-0.02321365475654602,-0.12346773594617844,-0.08830171823501587,0.9822832353343938,0.025122051157615684,-0.13847151215865064,0.12375058302360863
1728063584974818800,0.71081884765625,-0.6733219027519226,-0.7261937260627747,1.0818098783493042,-0.2856486439704895,-0.005123735871165991,-0.9583207368850708,0.029590874910354614,-0.05147112160921097,-0.1074293851852417,0.9812140083962098,0.021235259679039994,-0.1427890204450681,0.127982294028868
1728063584984848400,0.720848388671875,-0.4696683883666992,-0.667805552482605,1.16005539894104,-0.29234418272972107,0.0036951089277863503,-0.9563060402870178,0.04144388437271118,0.013760940171778202,-0.10013622045516968,0.9800246949967714,0.01803278423312223,-0.14670311075789091,0.13305872121682966
1728063584994879500,0.73087939453125,-0.25533291697502136,-0.6061813235282898,1.1300528049468994,-0.2983727753162384,0.010574879124760628,-0.954390823841095,0.0318322479724884,0.043731145560741425,-0.09819096326828003,0.9787991788450641,0.015829270166611432,-0.1501799616402628,0.13837475953553785
1728063585004909600,0.74090966796875,-0.08650954067707062,-0.5787688493728638,1.1041942834854126,-0.3038841485977173,0.015571661293506622,-0.9525817036628723,0.024861901998519897,0.03589622676372528,-0.10036623477935791,0.9775712032992961,0.014565986874342287,-0.1532872064172381,0.1436853098681629
1728063585014940400,0.7509404296875,-0.003387229051440954,-0.5904524326324463,1.0959023237228394,-0.3092630207538605,0.019361762329936028,-0.9507794380187988,0.030408620834350586,0.012544358149170876,-0.07895994186401367,0.9763125212501804,0.01393271018985659,-0.15625674665826464,0.14900835657433067
1728063585024970500,0.760970458984375,0.007086716592311859,-0.6188632845878601,1.0670205354690552,-0.31480687856674194,0.022710386663675308,-0.9488840103149414,0.024355828762054443,0.0035347212105989456,-0.06365865468978882,0.9750090894194783,0.013557828646766855,-0.15929273523531087,0.1542706882613923
1728063585035001600,0.771001708984375,0.005713591352105141,-0.6475400924682617,1.0404632091522217,-0.3205837905406952,0.02605096623301506,-0.9468618631362915,0.00027126073837280273,0.011561945080757141,-0.056830763816833496,0.9736679731699567,0.013215865345526394,-0.1624635565530917,0.15937942047180922
1728063585045032400,0.781032470703125,0.039059828966856,-0.6519944667816162,1.0333726406097412,-0.3265009820461273,0.029241813346743584,-0.9447444081306458,-0.02098745107650757,0.016336185857653618,-0.05249369144439697,0.972284583926644,0.012985258850634151,-0.16570807224773693,0.16442333220942698
1728063585055062500,0.7910625,0.04931553080677986,-0.6358179450035095,1.0367952585220337,-0.3322809338569641,0.032282259315252304,-0.9426278471946716,-0.041193217039108276,0.016500085592269897,-0.05865389108657837,0.9708719627454083,0.01285435029892482,-0.1688811519652881,0.16947455121262234
1728063585065093600,0.80109375,0.05620938912034035,-0.6165145039558411,1.0535506010055542,-0.3378424644470215,0.035325873643159866,-0.9405394792556763,-0.058458805084228516,0.017454270273447037,-0.041165173053741455,0.9694297193469799,0.012745076376593075,-0.17195293105094972,0.17457330982853295
1728063585075123500,0.81112353515625,0.046800773590803146,-0.6158033013343811,1.0654109716415405,-0.34324389696121216,0.03848089277744293,-0.938457727432251,-0.06534072756767273,0.01049981638789177,-0.03656363487243652,0.9679502904876617,0.012609016390403247,-0.17496330992609882,0.17972537877389816
1728063585085154600,0.821154541015625,0.03742644563317299,-0.6306061744689941,1.0566518306732178,-0.3486859202384949,0.04180173948407173,-0.9363069534301758,-0.06822997331619263,0.0019604600965976715,-0.02984905242919922,0.9664222538022846,0.012429803947657697,-0.17802250208134013,0.18488286183564814
1728063585095184600,0.8311845703125,0.03472520411014557,-0.6423986554145813,1.0273956060409546,-0.35419759154319763,0.045207418501377106,-0.934077262878418,-0.06682294607162476,0.007984716445207596,-0.02574634552001953,0.9648664588020681,0.012228916931024403,-0.18114031971585887,0.1899244816461338
1728063585105215500,0.841215576171875,0.09722825884819031,-0.661035418510437,0.9956861138343811,-0.35983386635780334,0.0482645183801651,-0.9317672252655029,-0.05770766735076904,0.0271901898086071,-0.0025131702423095703,0.9632863439012581,0.012226029948629244,-0.18430116903793087,0.19484101248151747
1728063585115245600,0.85124560546875,0.1876545548439026,-0.6514982581138611,0.9579451680183411,-0.3655010759830475,0.05051383376121521,-0.9294392466545105,-0.0498889684677124,0.04789009317755699,0.000636756420135498,0.9616966002570597,0.01264225541545772,-0.1874047737926705,0.19964769708445299
1728063585125276700,0.861276611328125,0.29870492219924927,-0.6455325484275818,0.9315228462219238,-0.3710517883300781,0.05177794769406319,-0.927167534828186,-0.05279162526130676,0.07372558861970901,-0.008882880210876465,0.9601097961648297,0.01355599234593637,-0.19034829330138153,0.2043843655230108
1728063585135306500,0.871306396484375,0.3933503329753876,-0.638544499874115,0.9352318644523621,-0.3765282928943634,0.05207088589668274,-0.9249405860900879,-0.056714534759521484,0.09075137972831726,-0.02853536605834961,0.9585007244053441,0.014984120138486032,-0.19314550981816173,0.20915698944892935
1728063585145337600,0.881337646484375,0.46130141615867615,-0.6287909746170044,0.958699107170105,-0.3819279372692108,0.051736533641815186,-0.9227428436279297,-0.06144672632217407,0.09537345170974731,-0.04089546203613281,0.9568399838280768,0.016777228987186876,-0.19582412914250868,0.21407673439595898
1728063585155367700,0.89136767578125,0.4857977032661438,-0.6254268288612366,0.9756064414978027,-0.3872392177581787,0.05111921578645706,-0.9205610156059265,-0.06207111477851868,0.08736954629421234,-0.04899764060974121,0.955122497746713,0.01876215889815511,-0.19841234665154467,0.219138422924733
1728063585165398500,0.9013984375,0.4637336730957031,-0.6387485265731812,0.9630017280578613,-0.3925691246986389,0.050545431673526764,-0.9183325171470642,-0.061852872371673584,0.07367636263370514,-0.04898315668106079,0.9533601306618363,0.02076301666006501,-0.2010040729683931,0.22421112311641775
1728063585175428600,0.9114287109375,0.39128971099853516,-0.6777750253677368,0.9291598200798035,-0.39812156558036804,0.050404105335474014,-0.9159468412399292,-0.05272987484931946,0.06606622040271759,-0.044532835483551025,0.9515698712267942,0.022572577897686127,-0.20375733036483099,0.22910310690012128
1728063585185459700,0.921459716796875,0.3055814802646637,-0.735079288482666,0.9013330340385437,-0.4041382074356079,0.05095682665705681,-0.9132774472236633,-0.03377377986907959,0.060294996947050095,-0.026267170906066895,0.9497369968767982,0.02407971177775518,-0.20683673444308948,0.23374864953448918
1728063585195489500,0.931489501953125,0.2636406719684601,-0.803485095500946,0.8887120485305786,-0.4107286036014557,0.05207687243819237,-0.9102692008018494,-0.013023227453231812,0.05792373791337013,-0.020669519901275635,0.9478349726331221,0.02537811071049568,-0.21028872804760362,0.23820913658159784
1728063585205520600,0.941520751953125,0.2302694022655487,-0.8460685014724731,0.8672748804092407,-0.41778817772865295,0.05351417884230614,-0.9069671034812927,-0.0028661489486694336,0.062116920948028564,-0.035186827182769775,0.9458625000406787,0.02659466576709136,-0.21403079601551064,0.24254447243850705
1728063585215550700,0.95155078125,0.12266751378774643,-0.8729608058929443,0.7842956185340881,-0.42521923780441284,0.05536030977964401,-0.9033957123756409,-0.010709136724472046,0.08332681655883789,-0.030732035636901855,0.9438893057494451,0.027619070570964264,-0.21803513425271945,0.2465176135573716
1728063585225581600,0.96158154296875,0.08676037937402725,-0.9185501337051392,0.7389728426933289,-0.43285810947418213,0.057679738849401474,-0.8996148705482483,-0.03015461564064026,0.12452545762062073,-0.01939147710800171,0.9419391948053776,0.02839203465564757,-0.22223064448803465,0.2501160001569066
1728063585235612700,0.97161279296875,0.17306563258171082,-0.9469360709190369,0.8133461475372314,-0.44080016016960144,0.0599822998046875,-0.8955988883972168,-0.010860025882720947,0.1505126953125,-0.0473484992980957,0.9398963513357893,0.02926801607518137,-0.22659203207433934,0.25376025360811005
1728063585245642800,0.981642822265625,0.2636714577674866,-0.9968469142913818,0.895565927028656,-0.4489818215370178,0.06186467036604881,-0.891396701335907,0.023810893297195435,0.1628972887992859,-0.06803017854690552,0.9376460603042234,0.03055433646067441,-0.23101531715780557,0.2579114231826758
1728063585255673600,0.991673583984375,0.33848780393600464,-1.0222522020339966,0.9264056086540222,-0.457414448261261,0.06340134888887405,-0.8869905471801758,0.025728046894073486,0.16877637803554535,-0.06497472524642944,0.9352211070112316,0.03218553945820134,-0.23551816648607118,0.2624055264017779
1728063585265703700,1.00170361328125,0.4635882079601288,-1.0476199388504028,0.9326696395874023,-0.465995192527771,0.06423749029636383,-0.8824523091316223,0.008262008428573608,0.17402850091457367,-0.07052010297775269,0.9326882598536604,0.03428149907592521,-0.2399971343250638,0.267056091681955
1728063585275734800,1.01173486328125,0.6350160241127014,-1.06032395362854,0.9423345327377319,-0.4747185707092285,0.06386301666498184,-0.877817690372467,0.00677722692489624,0.15653494000434875,-0.08472198247909546,0.9300380282127436,0.03711142055309554,-0.24436430164390838,0.27191590223197815
1728063585285764600,1.0217646484375,0.7404457926750183,-1.0321506261825562,0.9431473016738892,-0.48332735896110535,0.06235188990831375,-0.873216450214386,0.02275604009628296,0.12725383043289185,-0.10481089353561401,0.9273057688827411,0.040597474506598674,-0.2484826543830872,0.2769699025923013
1728063585295795700,1.031795654296875,0.7609785795211792,-1.0123136043548584,0.9367884993553162,-0.4916669428348541,0.060416314750909805,-0.8686849474906921,0.03185856342315674,0.1033104956150055,-0.07742100954055786,0.9245406287173654,0.04432544476088071,-0.2523743135157206,0.2820763775990351
1728063585305825800,1.04182568359375,0.7533816695213318,-1.041102647781372,0.9327729344367981,-0.4999955892562866,0.05853494629263878,-0.8640475273132324,0.04772505164146423,0.06727376580238342,-0.017651081085205078,0.9217208622464419,0.048078326034801756,-0.25625128325198776,0.2871488840428073
1728063585315856600,1.051856689453125,0.7143316864967346,-1.1001056432724,0.9097672700881958,-0.5086823105812073,0.056901056319475174,-0.8590719103813171,0.06391912698745728,0.024550359696149826,0.008287608623504639,0.9188119503424983,0.0518017242019798,-0.2603471156927655,0.2920968445997352
1728063585325886500,1.061886474609375,0.6117640137672424,-1.1338080167770386,0.8684645295143127,-0.5178038477897644,0.05581621080636978,-0.8536766171455383,0.06350386142730713,-0.008666552603244781,0.03508836030960083,0.915839077203446,0.05532466813772111,-0.26476571695148515,0.2967778422460029
1728063585335917800,1.071917724609375,0.5101666450500488,-1.1616560220718384,0.8389577865600586,-0.527111291885376,0.055599670857191086,-0.847975492477417,0.0517541766166687,-0.027508240193128586,0.07166934013366699,0.912860601884825,0.05842562086811875,-0.269441475939531,0.3011202432784246
1728063585345947400,1.081947509765625,0.4431673586368561,-1.1623955965042114,0.8103799223899841,-0.5365270972251892,0.05599313974380493,-0.8420234322547913,0.04299682378768921,-0.04255014657974243,0.07916027307510376,0.9098683993654858,0.06123995000584562,-0.2742953764484652,0.3052069836981021
1728063585355978500,1.091978515625,0.33132052421569824,-1.1641017198562622,0.7825967669487,-0.545842170715332,0.05712541937828064,-0.8359383940696716,0.02972888946533203,-0.02386125922203064,0.051987648010253906,0.9069069805601799,0.06365402405851334,-0.27924713126121853,0.30901298237247776
1728063585366008600,1.102008544921875,0.3094993829727173,-1.1690927743911743,0.7586027383804321,-0.5551769733428955,0.05881918966770172,-0.8296498656272888,0.022355258464813232,0.011859521269798279,0.06681722402572632,0.9039424201684962,0.06579078828420382,-0.28433545047887454,0.3125909199134259
1728063585376039400,1.112039306640625,0.3301999270915985,-1.1796860694885254,0.7497552037239075,-0.5644838213920593,0.06047622859477997,-0.8232257962226868,0.02284252643585205,0.03995711728930473,0.04026681184768677,0.9009489182164373,0.06797498616793454,-0.28942444572326337,0.316075945512419
1728063585386069500,1.122069580078125,0.39371633529663086,-1.1350083351135254,0.7721481323242188,-0.5735094547271729,0.06190938502550125,-0.816856324672699,0.017952144145965576,0.06226663663983345,0.041496217250823975,0.8979181000287284,0.07030193129018628,-0.294328881884623,0.31964266972755817
1728063585396100600,1.1321005859375,0.46350643038749695,-1.0879610776901245,0.8038370609283447,-0.5820900797843933,0.06302400678396225,-0.8106781244277954,0.014829397201538086,0.06379178166389465,0.036462485790252686,0.8948398316555466,0.07282538139247896,-0.29892706802298175,0.3234202061289224
1728063585406130400,1.14213037109375,0.5028548836708069,-1.0503183603286743,0.8171464800834656,-0.5902109742164612,0.06390121579170227,-0.8047159314155579,0.0013742446899414062,0.05177566409111023,0.03150731325149536,0.8917232564611723,0.07549671420489963,-0.3032198563217829,0.32739539203567924
1728063585416161500,1.15216162109375,0.4684460163116455,-1.0209518671035767,0.8058951497077942,-0.5979969501495361,0.06486525386571884,-0.7988693118095398,-0.013880550861358643,0.03944382816553116,0.03852391242980957,0.8886077644384774,0.07811736675023084,-0.30734834760923035,0.3313774904175641
1728063585426191600,1.162191650390625,0.399032324552536,-1.0125069618225098,0.7914126515388489,-0.6055757403373718,0.06628229469060898,-0.7930225729942322,-0.02882373332977295,0.038454025983810425,0.05033153295516968,0.8855222287378915,0.08047698146050285,-0.3114677879631027,0.33520418187385487
1728063585436222500,1.172222412109375,0.34134647250175476,-1.0164138078689575,0.7841688394546509,-0.6130776405334473,0.06820914149284363,-0.7870725989341736,-0.026296138763427734,0.04214242100715637,0.06147146224975586,0.8824489425454322,0.08256580493066894,-0.3156684596671211,0.33885133335274037
1728063585446253600,1.182253662109375,0.3661908209323883,-1.0213468074798584,0.7969709038734436,-0.6205484867095947,0.07041757553815842,-0.7809999585151672,-0.011150121688842773,0.04908926039934158,0.08762538433074951,0.8793243879026151,0.08456040354258046,-0.3199211627015503,0.34247441863741507
1728063585456283600,1.19228369140625,0.46459102630615234,-0.9894104599952698,0.7945490479469299,-0.6278371810913086,0.07224079966545105,-0.7749850153923035,0.003981530666351318,0.05239299684762955,0.08524197340011597,0.8761370385918045,0.08680879399561182,-0.32399342008667764,0.346231715788952
1728063585466314500,1.202314453125,0.5341135859489441,-0.9540532827377319,0.7449468374252319,-0.6347910761833191,0.07329106330871582,-0.7692000865936279,0.0017801523208618164,0.06564021110534668,0.06860804557800293,0.8729735847879088,0.08942535846656491,-0.3277240552068666,0.3500246762070422
1728063585476344600,1.212344482421875,0.5776946544647217,-0.9310306906700134,0.6621789932250977,-0.641482949256897,0.07358535379171371,-0.7635999321937561,-0.015423238277435303,0.09143844991922379,0.07608473300933838,0.8699223621657284,0.09232068991497551,-0.3311750614964301,0.3536030415211602
1728063585486375700,1.222375732421875,0.6775288581848145,-0.9114623069763184,0.6141699552536011,-0.648027241230011,0.0729445219039917,-0.7581159472465515,-0.032133281230926514,0.1232529804110527,0.04617142677307129,0.8669583281035996,0.09561304695846413,-0.33436532912709566,0.35698913562988593
1728063585496405500,1.232405517578125,0.7167454957962036,-0.9278343319892883,0.6374995112419128,-0.6545389890670776,0.07173159718513489,-0.752617597579956,-0.016405224800109863,0.1466064155101776,0.00423508882522583,0.863944787908768,0.09924690569109805,-0.33740368665217935,0.36042773382535404
1728063585506436600,1.2424365234375,0.7156776785850525,-0.9267427325248718,0.6807788014411926,-0.6610413789749146,0.07074324041604996,-0.7470071911811829,-0.0011290907859802246,0.14597734808921814,0.03457438945770264,0.8608036627598231,0.10288768263129087,-0.340456345483805,0.36403408403756726
1728063585516466700,1.252466796875,0.7277790307998657,-0.9112550020217896,0.6938090920448303,-0.6674253344535828,0.06999333202838898,-0.7413800358772278,-0.007715106010437012,0.12817256152629852,0.04426705837249756,0.8575727705635745,0.10648935438068419,-0.34346760628599565,0.3677756961804894
1728063585526497500,1.26249755859375,0.7182403802871704,-0.9050570130348206,0.6606101393699646,-0.6736507415771484,0.06925063580274582,-0.7357982397079468,-0.028726577758789062,0.10544723272323608,0.020512044429779053,0.8543498704963893,0.1100776842042554,-0.34638674943414133,0.3714639028567613
1728063585536527600,1.272527587890625,0.673648476600647,-0.8855319619178772,0.5977464914321899,-0.679801344871521,0.06845677644014359,-0.7301943898200989,-0.044624924659729004,0.09842859953641891,0.011368155479431152,0.8512100489282531,0.11361512865579923,-0.3492769679726932,0.3748850843762636
1728063585546558700,1.282558837890625,0.625605583190918,-0.866868257522583,0.5502543449401855,-0.6857938170433044,0.06769469380378723,-0.7246407866477966,-0.04795557260513306,0.10778137296438217,0.007569313049316406,0.8482117801897857,0.11700190667787883,-0.35212237167528465,0.37796446090628405
1728063585556588500,1.292588623046875,0.6343339681625366,-0.823300838470459,0.5520673990249634,-0.6915473341941833,0.067018061876297,-0.719215452671051,-0.034801602363586426,0.1069779098033905,0.0477219820022583,0.8452908626743393,0.12026786810270519,-0.3548632211993138,0.3809083456546498
1728063585566619600,1.30261962890625,0.6781584620475769,-0.7485888004302979,0.5645337104797363,-0.6968322992324829,0.06623595952987671,-0.7141690850257874,-0.01744687557220459,0.08056885004043579,0.06383955478668213,0.8424033822358937,0.12354247414570499,-0.3572851857241272,0.38398058924929024
1728063585576649700,1.312649658203125,0.6908015012741089,-0.648145318031311,0.5412483215332031,-0.7014462351799011,0.0652686133980751,-0.7097275853157043,-0.009506583213806152,0.04894343018531799,0.06396037340164185,0.8396423806927235,0.12677100348734208,-0.35925663511472594,0.38712329790958694
1728063585586680600,1.3226806640625,0.6580848097801208,-0.5729357600212097,0.4625189006328583,-0.705426037311554,0.06408429890871048,-0.7058805823326111,-0.009860217571258545,0.03904985636472702,0.06711715459823608,0.8371244848338286,0.12986053898819774,-0.3608267736896809,0.390080773341666
1728063585596710700,1.332710693359375,0.6190842986106873,-0.5463506579399109,0.3565101623535156,-0.7091071009635925,0.06249532476067543,-0.702325701713562,-0.00996333360671997,0.05411233752965927,0.06554597616195679,0.8348823241453157,0.13288812670201725,-0.3621848736084116,0.39259952845627794
1728063585606741800,1.34274169921875,0.5741059184074402,-0.5553281903266907,0.307573527097702,-0.7127492427825928,0.06071905791759491,-0.6987858414649963,-0.0020487308502197266,0.07691521942615509,0.06150263547897339,0.8328432001404885,0.13582167648289487,-0.3635375347710138,0.3946709051356203
1728063585616771600,1.352771484375,0.6548694968223572,-0.5404639840126038,0.3290806710720062,-0.7164148688316345,0.0587824322283268,-0.6951937675476074,0.01605170965194702,0.0830937922000885,0.05137968063354492,0.8307821568542476,0.138857749210126,-0.3648583911987039,0.3967340747417751
1728063585626802700,1.362802734375,0.7271023988723755,-0.4804547429084778,0.3510403037071228,-0.7197561264038086,0.05644545331597328,-0.691928505897522,0.02064412832260132,0.06267991662025452,-0.0005763769149780273,0.8286753839245774,0.1421231518172692,-0.3658370653174925,0.39907570449970275
1728063585636832800,1.372832763671875,0.763843834400177,-0.4244747757911682,0.3594588339328766,-0.7226814031600952,0.05391515791416168,-0.6890752911567688,-0.004430413246154785,0.05257592350244522,-0.0029107332229614258,0.8265859958008311,0.1454481852442766,-0.3664794517712753,0.40161327429645083
1728063585646863600,1.382863525390625,0.7929511070251465,-0.37126243114471436,0.35566675662994385,-0.7252238392829895,0.05120125040411949,-0.6866068243980408,-0.026241064071655273,0.04322014003992081,-0.021812915802001953,0.8245469869832891,0.1487962869401463,-0.36681910287557573,0.4042596310096789
1728063585656894700,1.392894775390625,0.7597894668579102,-0.3324923813343048,0.33301016688346863,-0.7274655699729919,0.04840143769979477,-0.6844349503517151,-0.04185211658477783,0.038527876138687134,-0.05218309164047241,0.8226096041718559,0.15207321790686726,-0.3669554037959794,0.40685490971362215
1728063585666924800,1.4029248046875,0.7278205752372742,-0.28071892261505127,0.3367314040660858,-0.7294280529022217,0.04579718038439751,-0.6825228333473206,-0.043414413928985596,0.03885858505964279,-0.03381621837615967,0.8207806499485476,0.1551323361321267,-0.366977575244848,0.4093661835627106
1728063585676955600,1.41295556640625,0.7184586524963379,-0.21138815581798553,0.364696741104126,-0.7309490442276001,0.043465785682201385,-0.6810464262962341,-0.029854238033294678,0.019873443990945816,-0.028044700622558594,0.8190368137142189,0.15794542883925053,-0.36678334023060544,0.41194895461417413
1728063585686985500,1.4229853515625,0.6934776902198792,-0.12168597429990768,0.4104791283607483,-0.7319303750991821,0.041526537388563156,-0.6801128387451172,-0.013476729393005371,-0.015159349888563156,-0.021516740322113037,0.8173547888702035,0.1604652458714232,-0.36632567294337504,0.41471378522541263
1728063585697016800,1.433016845703125,0.6629884839057922,-0.030044743791222572,0.4487634003162384,-0.732266902923584,0.040126439183950424,-0.6798346042633057,0.00018066167831420898,-0.05779612064361572,-0.027059316635131836,0.8157626875430632,0.16258300598321287,-0.36558100257133147,0.4176704141016026
1728063585707046400,1.44304638671875,0.6482064723968506,0.02854783833026886,0.46907535195350647,-0.732094943523407,0.039084043353796005,-0.6800804734230042,0.015694737434387207,-0.0949617326259613,-0.005771517753601074,0.8142412031590855,0.16441078412486432,-0.36459408748540306,0.4207749450120476
1728063585717077500,1.453077392578125,0.6390798091888428,0.09456077963113785,0.46634799242019653,-0.7314772605895996,0.038248755037784576,-0.6807922124862671,0.02981710433959961,-0.10476182401180267,0.027243077754974365,0.8128269430655649,0.16599225490326444,-0.36338747597336024,0.42392037509446495
1728063585727107600,1.463107666015625,0.6095656156539917,0.1933499425649643,0.39964354038238525,-0.7303252220153809,0.03717832267284393,-0.6820871829986572,0.03247976303100586,-0.059685032814741135,0.010318994522094727,0.8116286262757407,0.16744159321792246,-0.36182830958605783,0.4269692202654166
1728063585737138400,1.473138427734375,0.6069426536560059,0.22150994837284088,0.3737426996231079,-0.7287235856056213,0.03592390567064285,-0.6838651299476624,0.025186538696289062,0.055522020906209946,0.0046506524085998535,0.8106924377341049,0.1686994951804456,-0.3600110024460744,0.4297795265018202
1728063585747168500,1.48316845703125,0.817025363445282,0.24245986342430115,0.47650474309921265,-0.7269681096076965,0.034234669059515,-0.6858172416687012,0.05637484788894653,0.1382354199886322,0.005809426307678223,0.8096028105644517,0.1702613745822319,-0.35791399783306765,0.4329571421788956
1728063585757199600,1.49319970703125,1.0621652603149414,0.2887466251850128,0.5873359441757202,-0.7249628901481628,0.0316922552883625,-0.6880584359169006,0.09701794385910034,0.1233370453119278,-0.05682981014251709,0.8080918000455661,0.17252856127141525,-0.35525296114778115,0.4370548899750455
1728063585767229400,1.5032294921875,1.1751410961151123,0.38204196095466614,0.6369168162345886,-0.7224476337432861,0.028419477865099907,-0.6908413767814636,0.09380072355270386,0.036354079842567444,-0.0466463565826416,0.8063454585528664,0.17523499198428538,-0.3519545436231131,0.441845919104765
1728063585777260500,1.513260498046875,1.1241419315338135,0.47952359914779663,0.6147528886795044,-0.7192708253860474,0.024961452931165695,-0.694281280040741,0.05871778726577759,-0.089445099234581,0.0001437664031982422,0.8046622465759019,0.17783833568005974,-0.3481851182199213,0.44683277168783714
1728063585787290600,1.52329052734375,0.8497762084007263,0.565415620803833,0.5709478855133057,-0.7154417634010315,0.02230040542781353,-0.6983163356781006,0.018725454807281494,-0.19428221881389618,0.03062230348587036,0.8033540108347696,0.17961905252809776,-0.3443527510218748,0.4514204944453437
1728063585797321500,1.533321533203125,0.6298393607139587,0.6050735116004944,0.5873918533325195,-0.7112127542495728,0.021380439400672913,-0.7026516199111938,-0.001494765281677246,-0.2602415382862091,0.07579010725021362,0.802377048115843,0.18020764064521708,-0.3408803192388539,0.455540217383439
1728063585807351300,1.543351318359375,0.37445366382598877,0.6964383125305176,0.5512914061546326,-0.7064611315727234,0.021908264607191086,-0.7074127793312073,0.010614514350891113,-0.2878689765930176,0.007461607456207275,0.80170861117228,0.17975954838098152,-0.33760942654365633,0.45931451581166666
1728063585817382400,1.55338232421875,0.20085445046424866,0.755810022354126,0.5358700752258301,-0.7011407017707825,0.023810094222426414,-0.7126253247261047,0.004836320877075195,-0.18868130445480347,0.006707966327667236,0.8014480212789266,0.17824174849082025,-0.3345403238916197,0.4625945905079782
1728063585827412500,1.56341259765625,0.29834985733032227,0.7755187153816223,0.6211157441139221,-0.6954831480979919,0.026171749457716942,-0.7180655598640442,0.029299676418304443,-0.06683643162250519,0.013185858726501465,0.8011856786704508,0.17642545103396653,-0.33142310412611753,0.4659766252084078
1728063585837443300,1.573443359375,0.49485746026039124,0.786958634853363,0.7390820384025574,-0.6896482110023499,0.028054991737008095,-0.7236009240150452,0.06879854202270508,-0.015497000887989998,-0.024033963680267334,0.8005233267805778,0.17505334305195444,-0.32795712554023265,0.47006687244851253
1728063585847473400,1.583473388671875,0.6082080006599426,0.8421193361282349,0.8425980806350708,-0.683470606803894,0.02945191226899624,-0.7293837070465088,0.06605416536331177,-0.02603394351899624,-0.005372762680053711,0.799496468176157,0.1740562023841901,-0.3240564654195153,0.47486562393027665
1728063585857504300,1.593504150390625,0.5759157538414001,0.882302463054657,0.979997456073761,-0.6768355369567871,0.03128271922469139,-0.7354692816734314,0.036683499813079834,-0.107744500041008,0.06038999557495117,0.7981834100055418,0.1729096379601615,-0.3199493903758944,0.4802477173382368
1728063585867535400,1.603535400390625,0.3538944125175476,0.9412541389465332,1.0699868202209473,-0.6697496771812439,0.03474467247724533,-0.7417737245559692,0.008586287498474121,-0.2529148459434509,0.11030399799346924,0.7967229992276988,0.17095427707396393,-0.31605028740626934,0.48592121955703244
1728063585877565400,1.6135654296875,0.02435198985040188,0.9738717675209045,1.1105188131332397,-0.6621378660202026,0.040660008788108826,-0.7482782602310181,-0.02845972776412964,-0.38978108763694763,0.14642584323883057,0.7954060560045016,0.16761039678296452,-0.312678161301646,0.4913944996537424
1728063585887596300,1.62359619140625,-0.30768054723739624,1.0902810096740723,1.1537690162658691,-0.6538853645324707,0.04919872432947159,-0.7549923658370972,-0.04544025659561157,-0.457707017660141,0.16731542348861694,0.7943155618193289,0.16273893831932074,-0.30987068695752057,0.4965472354163525
1728063585897626400,1.63362646484375,-0.7285820245742798,1.2611750364303589,1.1854971647262573,-0.6442770957946777,0.06079239025712013,-0.7623721957206726,-0.04177337884902954,-0.42862075567245483,0.12992596626281738,0.7936156226280934,0.15590807539212725,-0.30741920367058617,0.5013586565747946
1728063585907657500,1.643657470703125,-0.9833728075027466,1.304796814918518,1.247090458869934,-0.6335264444351196,0.07530873268842697,-0.7700473666191101,-0.033969342708587646,-0.30141347646713257,0.1376163363456726,0.7931992863243588,0.14729463916909954,-0.30541876006834845,0.5058247555332532
1728063585917687300,1.653687255859375,-1.0390162467956543,1.2739017009735107,1.3506144285202026,-0.6223990321159363,0.09138516336679459,-0.7773469686508179,0.014168381690979004,-0.17739896476268768,0.08427751064300537,0.7925911216281799,0.13796962382826086,-0.3037941619753753,0.5103655733277964
1728063585927718400,1.663718505859375,-1.0921947956085205,1.2204304933547974,1.485722541809082,-0.6112141609191895,0.10854402929544449,-0.7839868664741516,0.05188798904418945,-0.09249179065227509,0.04372197389602661,0.7915558091650768,0.1283529352703151,-0.3025427116986418,0.5152017285437184
1728063585937748500,1.67374853515625,-1.1564310789108276,0.7734250426292419,1.4040089845657349,-0.6008737087249756,0.12652809917926788,-0.7892664074897766,0.06788414716720581,-0.09356909990310669,0.07491099834442139,0.7899980652079079,0.11880631690767288,-0.30207920326495524,0.5201311607067317
1728063585947779300,1.683779296875,-1.3184239864349365,0.7736740708351135,2.272785186767578,-0.5935021042823792,0.14749152958393097,-0.7912025451660156,0.04026418924331665,-0.2523193955421448,-0.006496429443359375,0.7862029370761401,0.10980363985649462,-0.30387809524624876,0.5267694903592587
1728063585957809400,1.693809326171875,-1.787209391593933,2.5506162643432617,1.2259902954101562,-0.5772019624710083,0.16823488473892212,-0.7990838289260864,-0.019706666469573975,-0.3292914032936096,-0.039203524589538574,0.7849890185747578,0.09737021286681134,-0.3016241310606896,0.5322916070421605
1728063585967840500,1.703840576171875,-8.271919250488281,-0.678857147693634,1.173497200012207,-0.5614391565322876,0.21043014526367188,-0.8003157377243042,-0.3200458288192749,-0.032878875732421875,0.341087281703949,0.7866427013247225,0.07346948734630293,-0.3073180358932811,0.5304254584896987
1728063585977870600,1.71387060546875,-6.737598419189453,-1.4746973514556885,2.8173322677612305,-0.5705942511558533,0.2829211950302124,-0.7709590196609497,0.46694129705429077,-0.8603290319442749,1.5900204181671143,0.77958498179067,0.045252775961438695,-0.33536947585645616,0.5269978008944985
1728063585987901400,1.7239013671875,-5.020357131958008,1.6021218299865723,0.7282648086547852,-0.5637251734733582,0.340623676776886,-0.7524556517601013,0.3879591226577759,-1.3242814540863037,-0.0950937271118164,0.7762088223602343,0.017427150677903448,-0.3513807904180613,0.523190102132493
1728063585997931300,1.73393115234375,-0.345955491065979,2.6441855430603027,-0.5736179947853088,-0.5470966100692749,0.3618219792842865,-0.7548312544822693,-0.8333050608634949,0.5739385485649109,-0.6155758500099182,0.7805624670043457,0.0004975180174044485,-0.35012017698968867,0.5178202809941169
1728063586007962400,1.74396240234375,2.0212504863739014,1.7693670988082886,0.6631808876991272,-0.5289666652679443,0.3505489230155945,-0.772858202457428,-0.35386109352111816,1.4736088514328003,-1.1164546012878418,0.7845045100904121,0.00019813506369203382,-0.33700277828935565,0.5205591947135614
1728063586017992200,1.7539921875,0.9916876554489136,0.5746355652809143,2.3184516429901123,-0.515998899936676,0.34628868103027344,-0.7834725975990295,0.489234983921051,1.167032241821289,-0.43845123052597046,0.7821378335360962,0.001230153786259167,-0.3290321997037005,0.529147286193518
1728063586028023300,1.764023193359375,-0.2880222201347351,-0.32639917731285095,2.119537353515625,-0.507077693939209,0.3559553921222687,-0.7849637269973755,0.6588110327720642,0.2989365756511688,0.1260892152786255,0.775958102369134,-0.0016594920803951981,-0.3278953779140831,0.5388609082873721
1728063586038053400,1.774053466796875,-1.4442678689956665,-0.09949060529470444,0.6736740469932556,-0.5041690468788147,0.3698578178882599,-0.780396580696106,0.1424441933631897,-0.3706970512866974,0.21322739124298096,0.7716426975566562,-0.006556296357771609,-0.33129854807459325,0.5429235878260513
1728063586048084200,1.784084228515625,-2.0035488605499268,0.27422410249710083,0.08867713809013367,-0.5022086501121521,0.38539591431617737,-0.7741166353225708,-0.24788296222686768,-0.32194983959198,0.0617448091506958,0.7709517453162364,-0.014329249223127309,-0.33576236278750243,0.5410099895521034
1728063586058114300,1.7941142578125,-1.3245234489440918,0.3471168875694275,0.5319850444793701,-0.4985596239566803,0.400159627199173,-0.7689672112464905,-0.1696075201034546,0.23494172096252441,0.008209824562072754,0.7705810241943188,-0.022360101740345133,-0.3391406892871947,0.5391554085144449
1728063586068145200,1.804145263671875,-0.16464915871620178,0.19358137249946594,0.852152407169342,-0.4934302270412445,0.40950632095336914,-0.767353355884552,0.08440309762954712,0.7093749046325684,-0.11751902103424072,0.769031580888019,-0.027253369953972727,-0.3399714187582385,0.5406173628614884
1728063586078176300,1.81417626953125,0.7119688987731934,-0.08738595247268677,0.8903266787528992,-0.4894150197505951,0.4114108979701996,-0.768904447555542,0.1676071286201477,0.821560263633728,-0.09700131416320801,0.7668002574173749,-0.027694104458356086,-0.33879316512040825,0.5444903500125221
1728063586088206300,1.824206298828125,0.9533990621566772,-0.2229243367910385,1.0136364698410034,-0.48685529828071594,0.40932273864746094,-0.7716391086578369,0.15628886222839355,0.5668277740478516,0.10701203346252441,0.7640263878279931,-0.02548339204709084,-0.3369436819629851,0.5496211734553972
1728063586098237200,1.8342373046875,0.5880033373832703,0.0248191449791193,1.1543067693710327,-0.4832824766635895,0.4083813428878784,-0.7743789553642273,0.09490048885345459,0.09363281726837158,0.3111373782157898,0.7608905741735338,-0.023907117473277516,-0.3350208533647804,0.5551892530199036
1728063586108267300,1.844267333984375,-0.32376977801322937,0.5920311808586121,1.1436830759048462,-0.47623211145401,0.41278648376464844,-0.7764086127281189,-0.05950400233268738,-0.37770649790763855,0.4368242621421814,0.758155981893608,-0.026091955700736646,-0.33333903845626434,0.5598248078720055
1728063586118298400,1.85429833984375,-1.451658010482788,1.196432113647461,1.1257562637329102,-0.46442416310310364,0.4250180125236511,-0.7769619822502136,-0.19234469532966614,-0.6591030955314636,0.5414121150970459,0.7563385383030734,-0.033882452729064955,-0.3322212889569163,0.5625238743545614
1728063586128328400,1.864328369140625,-2.4341864585876465,1.4605591297149658,1.2061307430267334,-0.4487230181694031,0.44564932584762573,-0.774625301361084,-0.1489332616329193,-0.6968241930007935,0.6084113121032715,0.7549503406569483,-0.04713963305428199,-0.3323630589083001,0.5633495638054712
1728063586138359300,1.874359375,-3.0830819606781006,1.4464564323425293,1.424414873123169,-0.43140995502471924,0.4728899896144867,-0.7682841420173645,0.04319584369659424,-0.5607348680496216,0.5860332250595093,0.752891390655548,-0.06391819689141852,-0.33432380045252363,0.563290847117408
1728063586148389400,1.884389404296875,-3.438459873199463,1.4701616764068604,1.5342820882797241,-0.41296425461769104,0.5043978095054626,-0.758316159248352,0.21601903438568115,-0.34164750576019287,0.3884126543998718,0.7499259801108787,-0.08294037755628672,-0.3375837720655551,0.5628225308451096
1728063586158420200,1.894420166015625,-3.398768663406372,1.432538390159607,1.5561527013778687,-0.3938853442668915,0.5365980267524719,-0.7462686896324158,0.2322794795036316,-0.09972357749938965,0.25466108322143555,0.7464371021773591,-0.10257886472283756,-0.34109122845329337,0.5621086864318433
1728063586168450300,1.9044501953125,-3.1615893840789795,1.3368566036224365,1.5665957927703857,-0.37494057416915894,0.5670557022094727,-0.7333944439888,0.20585790276527405,0.11385250091552734,0.13708102703094482,0.7425635370347344,-0.12146162663674168,-0.34431067820311123,0.5615128958062421
1728063586178481400,1.9144814453125,-2.7686355113983154,1.250058889389038,1.4920645952224731,-0.3565302789211273,0.5943780541419983,-0.720833420753479,0.18967542052268982,0.26452386379241943,0.05260533094406128,0.7385461144349666,-0.1388189070541143,-0.346861061645805,0.5612185927421255
1728063586188511500,1.924511474609375,-2.3215386867523193,1.0990453958511353,1.4020742177963257,-0.3392420709133148,0.6177259087562561,-0.709457278251648,0.15352734923362732,0.3284563422203064,0.007583498954772949,0.7346603099061509,-0.1540948665816816,-0.34860599501135564,0.5612513280528358
1728063586198542300,1.934542236328125,-1.8806887865066528,0.8768265247344971,1.3421133756637573,-0.32360315322875977,0.6371036767959595,-0.6995570063591003,0.14995810389518738,0.3186764121055603,0.012636840343475342,0.7308390612198775,-0.16699071621051273,-0.34976506324172896,0.5618299639123643
1728063586208572400,1.944572509765625,-1.507689356803894,0.6162071824073792,1.2957943677902222,-0.30977922677993774,0.653139591217041,-0.6909743547439575,0.15523818135261536,0.25538402795791626,0.04175865650177002,0.7269605438350594,-0.17764204475899859,-0.35065100398561555,0.563041421501489
1728063586218603300,1.954603271484375,-1.2283929586410522,0.37418338656425476,1.209200382232666,-0.29814988374710083,0.6662997007369995,-0.6834847331047058,0.12622910737991333,0.16362589597702026,0.049100637435913086,0.7230202477267986,-0.18613595613117684,-0.35158361632511137,0.564786776892989
1728063586228633300,1.96463330078125,-1.0435184240341187,0.3320966362953186,1.1434035301208496,-0.2878056764602661,0.6775625348091125,-0.6768138408660889,0.08051499724388123,0.11792397499084473,-0.05223584175109863,0.7192213361095705,-0.1933567708280466,-0.3524290666232059,0.5666812634450257
1728063586238664400,1.97466455078125,-0.7343559265136719,0.2588336169719696,1.032209873199463,-0.2782341241836548,0.686741054058075,-0.6715448498725891,0.0442558228969574,0.15916049480438232,-0.10877430438995361,0.7157461284522328,-0.1993878796773211,-0.3528059624610997,0.5687529294492173
1728063586248694500,1.984694580078125,-0.36637017130851746,0.13159362971782684,0.8088107705116272,-0.2705552577972412,0.6930270195007324,-0.6682166457176208,0.005082815885543823,0.24314552545547485,-0.10844039916992188,0.712884861797411,-0.20356705806334446,-0.3527777366139457,0.5708796270648763
1728063586258725400,1.994725341796875,0.07520764321088791,0.12601101398468018,0.6678022742271423,-0.264551043510437,0.6959578990936279,-0.6675742268562317,-0.023901134729385376,0.35538798570632935,-0.046887993812561035,0.7108487521328625,-0.2057467140322517,-0.3519675666746725,0.5731327921777895
1728063586268755500,2.00475537109375,-0.16755013167858124,-0.20056045055389404,0.34878382086753845,-0.26089024543762207,0.6971979737281799,-0.6677210330963135,-0.08043363690376282,0.41847896575927734,0.15348458290100098,0.7093276724964982,-0.20657498131808164,-0.35137765069865506,0.5750782234673545
1728063586278786300,2.014786376953125,-0.7062932252883911,-0.8111204504966736,-0.3138205111026764,-0.26398369669914246,0.7004163265228271,-0.6631211638450623,-0.19513806700706482,0.2984851002693176,0.5159806609153748,0.7078807881765005,-0.20687439226654727,-0.35446071898258763,0.5748613390016996
1728063586288817400,2.0248173828125,-1.0671552419662476,-0.9718957543373108,-0.39505836367607117,-0.2732832431793213,0.7050544023513794,-0.6543810963630676,-0.1498734951019287,-0.02529054880142212,0.4291613698005676,0.7064979046441551,-0.20647865610861812,-0.36079915263568263,0.5727575945720775
1728063586298847500,2.034847412109375,-1.5140137672424316,-0.25059038400650024,0.21251599490642548,-0.27805614471435547,0.7132996916770935,-0.6433415412902832,-0.15147879719734192,-0.10433661937713623,0.22706657648086548,0.7042007986840462,-0.20908716905179323,-0.36689476779051183,0.5707644388446562
1728063586308878300,2.04487841796875,-1.4236392974853516,0.41192179918289185,0.1982278823852539,-0.2754502296447754,0.7237290740013123,-0.6327269673347473,-0.332337886095047,-0.04256141185760498,0.2211211919784546,0.7020647006746523,-0.21524984317557047,-0.3705455678667013,0.5687430595341559
1728063586318908400,2.054908447265625,-0.8012667298316956,0.4575428068637848,-0.17141595482826233,-0.2724760174751282,0.7308943271636963,-0.6257399320602417,-0.5137941837310791,-0.02941715717315674,0.2180098295211792,0.7016762459543305,-0.22057034975868134,-0.3721273173266389,0.5661454168163377
1728063586328939500,2.064939453125,-0.14556154608726501,0.3235967457294464,-0.18500180542469025,-0.2715638279914856,0.733250081539154,-0.6233758330345154,-0.3778655230998993,0.07854807376861572,0.21315860748291016,0.702446807809983,-0.22291114040110893,-0.3723207123251173,0.5641422086051467
1728063586338969300,2.07496923828125,0.3704480528831482,0.37785109877586365,-0.02489682286977768,-0.2701388895511627,0.732282817363739,-0.6251295208930969,-0.13237273693084717,0.20369136333465576,0.1664351224899292,0.7034899694340107,-0.22330409075913094,-0.37090499209521155,0.5636192938474434
1728063586349000400,2.08500048828125,0.8179249167442322,0.45580101013183594,-0.06360667198896408,-0.2677611708641052,0.7284070253372192,-0.6306560635566711,-0.055419981479644775,0.1347673535346985,0.1293286681175232,0.7050188362508181,-0.2222912597537211,-0.36777514287222807,0.5641599265156069
1728063586359030300,2.0950302734375,1.0696755647659302,0.6182067394256592,-0.1678403913974762,-0.2652599811553955,0.7220255732536316,-0.6389962434768677,-0.10694766044616699,-0.03759258985519409,0.14783114194869995,0.707392888279805,-0.22020478760957696,-0.3633342020832278,0.5648834742436323
1728063586369061000,2.10506103515625,1.2862603664398193,0.7014334201812744,-0.15979471802711487,-0.26209312677383423,0.7140190601348877,-0.649217963218689,-0.12401530146598816,-0.1195061206817627,0.17970502376556396,0.7103699462564242,-0.21765420140633646,-0.3577955625606327,0.5656709061723181
1728063586379091200,2.11509130859375,1.6408722400665283,0.5603455305099487,-0.12394297868013382,-0.2589098811149597,0.7041348218917847,-0.6611806750297546,-0.03611880540847778,-0.05281341075897217,0.12770295143127441,0.713478985327043,-0.21404789396498186,-0.35155819862411336,0.5670433829289487
1728063586389122300,2.125122314453125,2.241461753845215,0.45673662424087524,-0.11320937424898148,-0.2563307285308838,0.6908917427062988,-0.6759905815124512,0.0844404399394989,0.12197452783584595,0.05146360397338867,0.716725002189093,-0.2083577761962764,-0.34437154494327027,0.5694740042106152
1728063586399152400,2.13515234375,2.89079213142395,0.42170003056526184,-0.17586636543273926,-0.2540593445301056,0.6729069352149963,-0.694730281829834,0.1500859558582306,0.29765886068344116,0.007733821868896484,0.7205069456295091,-0.2001963853213648,-0.3354940518095067,0.5729180333923113
1728063586409183200,2.145183349609375,3.259002685546875,0.01696106232702732,-0.33466774225234985,-0.25423383712768555,0.6501449346542358,-0.7160144448280334,0.13199564814567566,0.36639565229415894,0.029857277870178223,0.7246759484669698,-0.18908259112166073,-0.3259456121613403,0.5769332216656399
1728063586419213300,2.15521337890625,3.070695161819458,0.1668885052204132,-0.3163806200027466,-0.2558630406856537,0.6261340975761414,-0.736539363861084,0.09584411978721619,0.33593255281448364,-0.06228870153427124,0.7286379362065503,-0.1771417947016218,-0.3167824349700104,0.580823879974459
1728063586429244200,2.165244140625,2.5418968200683594,0.3989183008670807,-0.44288742542266846,-0.25591546297073364,0.6040538549423218,-0.7547358870506287,0.028742581605911255,0.204265296459198,-0.20292097330093384,0.732625814584569,-0.16708198261336218,-0.3077591238179261,0.5836329082526334
1728063586439274200,2.175274169921875,2.002856731414795,0.25126785039901733,-0.3891184628009796,-0.2558839023113251,0.5857764482498169,-0.7690184712409973,0.058816611766815186,0.08483213186264038,-0.2481323480606079,0.7362709490021601,-0.15915980979387204,-0.30026473002883813,0.5851618751612503
1728063586449305300,2.185305419921875,1.9371120929718018,-0.12989522516727448,-0.1440517008304596,-0.2567880153656006,0.5700178742408752,-0.7804739475250244,0.2998940944671631,-0.029948294162750244,-0.1997048258781433,0.7386379406984136,-0.15180469356508489,-0.294479813668011,0.587069875706678
1728063586459335400,2.19533544921875,1.7452023029327393,-0.49779677391052246,-0.3183918297290802,-0.2604523003101349,0.5547423958778381,-0.7902059555053711,0.4156189262866974,-0.21650081872940063,-0.04606717824935913,0.7401389127077294,-0.14361300781446154,-0.29029696381024583,0.5893193738877959
1728063586469366300,2.2053662109375,1.1797642707824707,-0.633512556552887,-0.5246789455413818,-0.2675003707408905,0.5420085191726685,-0.7966619729995728,0.2147049605846405,-0.2966318726539612,0.16188114881515503,0.7416439015237153,-0.13586739653609048,-0.28845979171993175,0.5901655274199173
1728063586479397400,2.2153974609375,0.8174542188644409,-0.7243348956108093,-0.3798794150352478,-0.27549609541893005,0.5329163074493408,-0.8000637888908386,0.051741212606430054,-0.23698729276657104,0.2160489559173584,0.7426643231078265,-0.129521049413206,-0.2884309097022699,0.5903233205664091
1728063586489427500,2.225427490234375,0.5557405948638916,-0.7336910963058472,-0.24653360247612,-0.28297850489616394,0.5265013575553894,-0.8016979098320007,0.01762816309928894,-0.1714140772819519,0.11297720670700073,0.7429461236827818,-0.12433706341076836,-0.2892945688262202,0.5906607621095704
1728063586499458300,2.235458251953125,0.1842041015625,-0.6753196716308594,-0.1757292002439499,-0.28944066166877747,0.5229739546775818,-0.801699697971344,-0.03662443161010742,-0.09639924764633179,0.034777700901031494,0.7427328599308539,-0.12065874909437525,-0.29084639432830467,0.5909297009561004
1728063586509488400,2.24548828125,-0.033098384737968445,-0.6269646286964417,-0.2651965320110321,-0.2959054708480835,0.521835207939148,-0.8000800013542175,-0.04229035973548889,-0.03063952922821045,-0.003936111927032471,0.7424774473263772,-0.11816108466880525,-0.2932541044171486,0.5905652208742974
1728063586519519200,2.255519287109375,-0.1328352987766266,-0.647985577583313,-0.24915362894535065,-0.30234095454216003,0.5217505693435669,-0.7977256774902344,-0.07699254155158997,-0.034430623054504395,-0.03584665060043335,0.7422657434963974,-0.11622827593542694,-0.2960205077210944,0.5898341808384182
1728063586529549300,2.26554931640625,-0.1509372740983963,-0.6940053105354309,-0.20051977038383484,-0.30887070298194885,0.5222918391227722,-0.79486483335495,-0.05682143568992615,-0.04083120822906494,-0.029002904891967773,0.7418407552110904,-0.11448457582286994,-0.29910007369481734,0.5891559258004829
1728063586539580400,2.275580322265625,-0.06271899491548538,-0.7399222254753113,-0.09689618647098541,-0.31518593430519104,0.5227091908454895,-0.7921066880226135,-0.06518518924713135,-0.057758629322052,-0.025733888149261475,0.7411266258646146,-0.11259685700448106,-0.3021069473953464,0.588884402234858
1728063586549610500,2.285610595703125,-0.04314502701163292,-0.6537026762962341,-0.154293954372406,-0.32141581177711487,0.5227190256118774,-0.7895928025245667,-0.05630028247833252,-0.05248892307281494,-0.05693429708480835,0.7403631717401274,-0.1105053128595045,-0.30494620717963405,0.58877748295368
1728063586559641300,2.295641357421875,0.0026526206638664007,-0.6093500256538391,-0.3764601945877075,-0.3277839124202728,0.5221124291419983,-0.7873731255531311,-0.12198418378829956,-0.025804996490478516,-0.011043012142181396,0.7401575209527541,-0.10835896896088637,-0.30752524148534277,0.5880931861482734
1728063586569671400,2.30567138671875,0.08783914893865585,-0.49253684282302856,-0.448375403881073,-0.3343537449836731,0.5204026103019714,-0.7857409119606018,-0.1699797511100769,-0.017213523387908936,0.03319269418716431,0.7405772499121203,-0.10593711585624571,-0.3096883641344097,0.5868696470936393
1728063586579702300,2.315702392578125,0.1691170334815979,-0.45735281705856323,-0.3563362956047058,-0.34018146991729736,0.518005907535553,-0.7848225831985474,-0.08207502961158752,0.010619580745697021,-0.0005625486373901367,0.7411090695236303,-0.10343804981333116,-0.3112704500101472,0.5858059503607492
1728063586589732400,2.325732421875,0.09769051522016525,-0.46324002742767334,-0.25319576263427734,-0.3453267216682434,0.5158918499946594,-0.7839675545692444,0.04584240913391113,0.07061022520065308,0.0035262703895568848,0.7413590326558003,-0.10112401207320681,-0.3127141913708764,0.5851244981248727
1728063586599763500,2.335763427734375,0.059894535690546036,-0.6158869862556458,-0.2111327350139618,-0.3506718873977661,0.5145395398139954,-0.7824821472167969,0.13353928923606873,0.10624903440475464,0.008632659912109375,0.741214832100728,-0.09893853764127944,-0.3145951169006162,0.584672369598694
1728063586609793500,2.34579345703125,0.09667359292507172,-0.7853974103927612,-0.2786838412284851,-0.35741543769836426,0.5131557583808899,-0.7803367376327515,0.15793725848197937,0.06870764493942261,-0.022382378578186035,0.7408243137916295,-0.09623929192959335,-0.3171271515407985,0.5842498243221812
1728063586619824400,2.355824462890625,0.23211750388145447,-0.7887523770332336,-0.3927997648715973,-0.3653312027454376,0.510685920715332,-0.7782885432243347,0.09670016169548035,0.02495861053466797,-0.04411441087722778,0.740613883195995,-0.0927854231231045,-0.31976022516214636,0.5836398069984226
1728063586629854500,2.3658544921875,0.32958734035491943,-0.6848469972610474,-0.40173599123954773,-0.37316396832466125,0.5070079565048218,-0.7769759893417358,-0.007130861282348633,0.0326191782951355,-0.03576815128326416,0.7407294699381763,-0.08893031813175321,-0.3218748342756865,0.5829305104331877
1728063586639885300,2.37588525390625,0.48355984687805176,-0.5311402678489685,-0.42476966977119446,-0.38007715344429016,0.50237637758255,-0.7766333818435669,-0.08038732409477234,0.09758394956588745,-0.029503703117370605,0.7410942582307494,-0.08498197781800634,-0.3232048531865873,0.5823196707813482
1728063586649915400,2.385915283203125,0.8925257921218872,-0.16837354004383087,-0.11716976016759872,-0.38379329442977905,0.49610593914985657,-0.7788335084915161,-0.13874396681785583,0.19084477424621582,-0.04410350322723389,0.7416575212094396,-0.0811560131173912,-0.3224855629628656,0.5825469997905296
1728063586659946500,2.395946533203125,1.3114755153656006,-0.17613105475902557,-0.07607532292604446,-0.38560715317726135,0.48714208602905273,-0.7835813760757446,-0.06353533267974854,0.29386380314826965,-0.02443253993988037,0.7420025222433619,-0.07636933256557375,-0.3199641189330872,0.5841430024953334
1728063586669976300,2.405976318359375,1.6078014373779297,-0.1905672550201416,-0.3093828856945038,-0.3878370523452759,0.4748893976211548,-0.7899762392044067,-0.10479298233985901,0.3284706175327301,0.012724101543426514,0.7428005159177338,-0.07012867183841395,-0.3163760991966122,0.5858631094179167
1728063586680007400,2.41600732421875,1.7752654552459717,-0.18389742076396942,-0.30293750762939453,-0.39097467064857483,0.46000635623931885,-0.7972031831741333,-0.14651620388031006,0.24900856614112854,-0.009239017963409424,0.7440678398518541,-0.06267631887341485,-0.3122019746220051,0.5873369223138656
1728063586690037200,2.426037353515625,1.6825350522994995,-0.19743932783603668,-0.048942774534225464,-0.39325395226478577,0.4453396499156952,-0.8043780326843262,-0.03928697109222412,0.08110383152961731,-0.04887819290161133,0.7448025507392922,-0.05535657812544388,-0.30780941420416,0.589456004046912
1728063586700068400,2.436068359375,1.3369157314300537,-0.21845993399620056,-0.005489303730428219,-0.39496392011642456,0.43292540311813354,-0.8102957010269165,0.07021108269691467,-0.12098994851112366,-0.066031813621521,0.7449358443041515,-0.04903338397398313,-0.3040524261662442,0.5917926144124149
1728063586710099500,2.446099365234375,0.763858437538147,-0.3699202835559845,-0.0961315929889679,-0.39743030071258545,0.4242044687271118,-0.8136951327323914,0.04478439688682556,-0.27855929732322693,0.006627321243286133,0.7448698662998402,-0.04420687993204928,-0.30199036558920994,0.5933098656323024
1728063586720129300,2.45612939453125,0.2466447800397873,-0.5590171813964844,-0.25440964102745056,-0.40196073055267334,0.41938555240631104,-0.8139676451683044,0.03449854254722595,-0.34081801772117615,0.07991313934326172,0.7448056063582086,-0.040681480708602516,-0.30226012456727575,0.5935052752490185
1728063586730160000,2.46616015625,-0.2906429171562195,-0.7268189787864685,-0.2733551263809204,-0.40837767720222473,0.41854655742645264,-0.8112006187438965,0.014792442321777344,-0.26434120535850525,0.10302501916885376,0.7446161806936225,-0.038461472277908255,-0.3048284617285654,0.5925766926533156
1728063586740190200,2.476190185546875,-0.4460453987121582,-0.7009548544883728,-0.2734912037849426,-0.41537153720855713,0.42069852352142334,-0.8065229654312134,0.01856669783592224,-0.08053430914878845,0.07033216953277588,0.7442181555384663,-0.03740043118008112,-0.308771305583194,0.5911014774809135
1728063586750221300,2.48622119140625,-0.196074977517128,-0.5517046451568604,-0.23523861169815063,-0.42152899503707886,0.42236804962158203,-0.8024453520774841,-0.029124140739440918,0.07592299580574036,-0.011122703552246094,0.7439484506916394,-0.036416203797443696,-0.31217171223667906,0.5897146953962581
1728063586760251400,2.49625146484375,0.19339993596076965,-0.4207923114299774,-0.1318533718585968,-0.4262106716632843,0.421650230884552,-0.8003471493721008,-0.056333303451538086,0.14455768465995789,-0.054618000984191895,0.7437075193082998,-0.03471075468314474,-0.314040723803761,0.589128898067369
1728063586770282200,2.5062822265625,0.4716848134994507,-0.26484957337379456,-0.11764620244503021,-0.42942532896995544,0.41835156083106995,-0.800359845161438,-0.03139013051986694,0.12365588545799255,-0.1433504819869995,0.7435890569292144,-0.032231472813073064,-0.3142947674094162,0.5892837906204035
1728063586780312300,2.516312255859375,0.4284059703350067,-0.2469971776008606,-0.10589953511953354,-0.43184974789619446,0.4141082167625427,-0.8012616038322449,-0.01608729362487793,0.04464730620384216,-0.11093926429748535,0.743606281924619,-0.02958798764399134,-0.313837128031342,0.5896443619434919
1728063586790343200,2.52634326171875,0.15248680114746094,-0.35932639241218567,-0.11276276409626007,-0.43466487526893616,0.4112902879714966,-0.8011907935142517,0.03979790210723877,-0.050648778676986694,-0.007387638092041016,0.7434790473200125,-0.0274437036503954,-0.31408826523191785,0.589774750972317
1728063586800374500,2.53637451171875,-0.19894327223300934,-0.5214521884918213,-0.18298952281475067,-0.43883031606674194,0.410845547914505,-0.7991457581520081,0.07287874817848206,-0.14363360404968262,0.04246246814727783,0.7432010060666849,-0.02598810250655575,-0.3158349739915257,0.5892583227003949
1728063586810405400,2.5464052734375,-0.4260590076446533,-0.5603300929069519,-0.2779112458229065,-0.44416606426239014,0.41245463490486145,-0.7953600883483887,0.05553993582725525,-0.17829328775405884,0.06682926416397095,0.7429732637619296,-0.025232150984910034,-0.3188781764596466,0.5879377282610457
1728063586820435500,2.556435546875,-0.5043848752975464,-0.4550057649612427,-0.31140902638435364,-0.44948574900627136,0.4149051606655121,-0.7910855412483215,0.012733429670333862,-0.1030765175819397,0.03983432054519653,0.7429641789977968,-0.025014466569927032,-0.3222289733807593,0.5861289439901554
1728063586830466600,2.566466552734375,-0.35845455527305603,-0.29930245876312256,-0.2809986472129822,-0.4537150263786316,0.4171428382396698,-0.78748619556427,-0.03284198045730591,0.0455036461353302,0.0009719729423522949,0.7431656741685775,-0.025110401374959873,-0.32500210221290166,0.5843353931603995
1728063586840496600,2.57649658203125,-0.017142189666628838,-0.08868728578090668,-0.23551078140735626,-0.45631951093673706,0.4175993800163269,-0.7857373952865601,-0.06179267168045044,0.1562989354133606,-0.036116182804107666,0.7435649926223037,-0.02488745014846935,-0.32636162296912025,0.583077911845309
1728063586850527500,2.586527587890625,0.3675634264945984,0.09542689472436905,-0.20829060673713684,-0.4571855068206787,0.4151577353477478,-0.7865275144577026,-0.06782367825508118,0.16206702589988708,-0.09196674823760986,0.7442430728272104,-0.023869898387023792,-0.32583198872150765,0.582551349949331
1728063586860557600,2.5965576171875,0.4416726529598236,0.14643718302249908,-0.14142608642578125,-0.45686906576156616,0.4109427034854889,-0.7889212965965271,-0.036371320486068726,0.091636061668396,-0.0886726975440979,0.7450135824176689,-0.022353593512203028,-0.3240982392725476,0.5825937828102102
1728063586870588400,2.60658837890625,0.17871347069740295,0.07682162523269653,-0.0976109728217125,-0.4563441276550293,0.40794333815574646,-0.7907795310020447,0.04367014765739441,0.008819997310638428,-0.04714155197143555,0.7455864406675247,-0.02136738977832496,-0.32272845391149557,0.5826583544803389
1728063586880618500,2.616618408203125,-0.12761063873767853,-0.1160544604063034,-0.15488864481449127,-0.4570067822933197,0.4072675108909607,-0.790745198726654,0.07733756303787231,-0.1058758795261383,0.04762697219848633,0.7458961819709513,-0.021046243130089935,-0.3227761495810256,0.5822469771124223
1728063586890649600,2.626649658203125,-0.44276005029678345,-0.1873003989458084,-0.27506378293037415,-0.45916610956192017,0.40844929218292236,-0.7888825535774231,0.05677655339241028,-0.20552262663841248,0.03770768642425537,0.7462428081815673,-0.021256864729064007,-0.3242018864980852,0.5810017436037115
1728063586900679700,2.6366796875,-0.6625035405158997,-0.17836876213550568,-0.3117954432964325,-0.4617818295955658,0.41171807050704956,-0.7856498956680298,0.009755462408065796,-0.17505425214767456,0.01343315839767456,0.7467349782662673,-0.022447963415200726,-0.32660546707254223,0.5789748468925275
1728063586910710500,2.64671044921875,-0.5306839942932129,-0.1743077039718628,-0.32973504066467285,-0.46453407406806946,0.41495031118392944,-0.7823198437690735,-0.03342127799987793,-0.06653109192848206,0.047319233417510986,0.7473145913963328,-0.023655785344906564,-0.3290599932107228,0.5767849211638503
1728063586920740600,2.65674072265625,-0.36996614933013916,-0.08907908201217651,-0.300959050655365,-0.4669034779071808,0.41703030467033386,-0.7797992825508118,-0.0733187198638916,0.08153539896011353,-0.030900120735168457,0.7479434450830659,-0.024443355581086585,-0.3309121772357588,0.5748742782015847
1728063586930771700,2.666771728515625,-0.06581052392721176,0.03085477277636528,-0.24059101939201355,-0.46825671195983887,0.41755685210227966,-0.7787052989006042,-0.08659866452217102,0.20802298188209534,-0.07375746965408325,0.7486621564186706,-0.024783208649957335,-0.3317124537477431,0.5734610747137765
1728063586940801500,2.676801513671875,0.2833619713783264,0.06754887104034424,-0.1364355981349945,-0.468581885099411,0.41579532623291016,-0.7794519066810608,-0.08062776923179626,0.17412471771240234,-0.11002862453460693,0.7493062509389277,-0.024213241638687627,-0.33119141603399715,0.5729452129473884
1728063586950832600,2.68683251953125,0.2717146575450897,0.07207704335451126,-0.12813745439052582,-0.4685131311416626,0.41282305121421814,-0.7810714244842529,-0.05065196752548218,0.03314560651779175,-0.1362716555595398,0.7498143781015524,-0.023069652829838878,-0.3300485800916981,0.5729870645167227
1728063586960862700,2.69686279296875,-0.10703073441982269,0.031932130455970764,-0.16566431522369385,-0.4686879813671112,0.4114142954349518,-0.781709611415863,-0.04106241464614868,-0.0839606523513794,-0.07208061218261719,0.7503268124218584,-0.022633835691791598,-0.32959504589962046,0.5725947036249398
1728063586970893600,2.7068935546875,-0.3801509439945221,0.007749561220407486,-0.2363286316394806,-0.46933484077453613,0.4125748872756958,-0.7807091474533081,-0.014582425355911255,-0.1372300088405609,0.03505796194076538,0.7508832432825936,-0.02336420453645462,-0.3303021753069603,0.5714272242592608
1728063586980924700,2.716924560546875,-0.4127747416496277,-0.07739180326461792,-0.3212595283985138,-0.4707186818122864,0.41446706652641296,-0.7788716554641724,0.01338222622871399,-0.10237902402877808,0.13257038593292236,0.7515863374555034,-0.02436436366003875,-0.33161809387735186,0.5696963261332498
1728063586990954800,2.726954833984375,-0.262605756521225,-0.1237792819738388,-0.33704885840415955,-0.4729817807674408,0.41560009121894836,-0.7768943309783936,0.03575640916824341,0.016788214445114136,0.13248515129089355,0.7523057815774569,-0.02479793290419508,-0.3330733964078021,0.5678761060974274
1728063587000985600,2.736985595703125,-0.032969556748867035,-0.03314002603292465,-0.2654074430465698,-0.4748174250125885,0.41537925601005554,-0.7758920788764954,0.08230030536651611,0.15450602769851685,0.017682909965515137,0.7530146181577698,-0.02466678431755002,-0.33383454714258676,0.5664937266514998
1728063587011015700,2.747015625,0.25623536109924316,-0.0061225248500704765,-0.20823974907398224,-0.4758938252925873,0.4134141504764557,-0.776282012462616,0.10451012849807739,0.1792677342891693,-0.024773836135864258,0.7536703529378853,-0.02382529770427372,-0.3336035594065276,0.565793302031357
1728063587021046500,2.757046630859375,0.20779471099376678,-0.021741271018981934,-0.1827828586101532,-0.47682076692581177,0.410358726978302,-0.7773337364196777,0.08230474591255188,0.040019720792770386,-0.052988529205322266,0.7542277008267947,-0.022423749291996913,-0.3329118661600455,0.5655152822214434
1728063587031076600,2.76707666015625,-0.2598632872104645,-0.10841145366430283,-0.1370619684457779,-0.47792020440101624,0.4099026024341583,-0.7768990397453308,0.06675684452056885,-0.09152796864509583,-0.010240793228149414,0.754564870710495,-0.022136275381473593,-0.33325733902393256,0.5648729238520115
1728063587041107700,2.777107666015625,-0.39329618215560913,-0.21087901294231415,-0.23537975549697876,-0.4798625707626343,0.4117067754268646,-0.7747448086738586,0.07764086127281189,-0.15717488527297974,0.06002312898635864,0.7547668849080331,-0.022689970464949073,-0.33483244881876423,0.5636483319067523
1728063587051137500,2.787137451171875,-0.557012140750885,-0.25408056378364563,-0.28691565990448,-0.482831209897995,0.414099782705307,-0.7716187238693237,0.014432132244110107,-0.14780336618423462,0.04493415355682373,0.7550664028816736,-0.02336301246068173,-0.33711246510817566,0.5618577783843666
1728063587061168600,2.797168701171875,-0.5210959315299988,-0.15857438743114471,-0.2537209391593933,-0.4856418967247009,0.4170847237110138,-0.7682397365570068,-0.02708396315574646,-0.006669074296951294,0.06940245628356934,0.7553873320079313,-0.02439719498252121,-0.339536302477668,0.5599196069612861
1728063587071198500,2.807198486328125,-0.26541197299957275,-0.009277306497097015,-0.15256023406982422,-0.48706555366516113,0.41912513971328735,-0.7662253379821777,-0.04006457328796387,0.15520042181015015,0.02269512414932251,0.7558008734685351,-0.025346961304650466,-0.34094700759867214,0.558460135218423
1728063587081229600,2.8172294921875,0.11055485159158707,0.014267328195273876,-0.02339480072259903,-0.48739075660705566,0.4194382131099701,-0.7658471465110779,-0.028692036867141724,0.2440139353275299,0.04245847463607788,0.7560113644057582,-0.025558939410962687,-0.34120839067780795,0.5580057981234261
1728063587091259400,2.82725927734375,0.4731237292289734,-0.005664834287017584,-0.0012639323249459267,-0.48745471239089966,0.41710537672042847,-0.7670795321464539,0.02108505368232727,0.22506076097488403,-0.028757810592651367,0.7560737532637815,-0.024408652528403456,-0.34038866382772637,0.5584732113182095
1728063587101290500,2.83729052734375,0.7435354590415955,0.02743234485387802,0.05333832651376724,-0.4872007966041565,0.4124950170516968,-0.7697293758392334,0.021365195512771606,0.08187451958656311,-0.1179354190826416,0.756090312531336,-0.022166362044582305,-0.3385911528815358,0.5596358021946304
1728063587111320600,2.847320556640625,0.5250382423400879,0.008008047938346863,0.06114378571510315,-0.48678168654441833,0.40758225321769714,-0.7726061940193176,0.022075235843658447,-0.07910627126693726,-0.0772625207901001,0.7560163747343385,-0.01977032152285441,-0.33660960835826326,0.5610191526179041
1728063587121351400,2.857351318359375,-0.07097060233354568,-0.09898514300584793,-0.03400297090411186,-0.4869423508644104,0.4060388207435608,-0.7733173370361328,0.020511656999588013,-0.08615356683731079,0.025865554809570312,0.7559031067521932,-0.018898747356896894,-0.33613117718346397,0.5614885005630149
1728063587131381500,2.867381591796875,-0.2276558130979538,-0.2128928005695343,-0.123518206179142,-0.48853787779808044,0.4070952832698822,-0.7717540264129639,0.007611334323883057,-0.012777626514434814,0.13563036918640137,0.755850283899265,-0.019020788805132065,-0.3372850514695925,0.5608632022360635
1728063587141412600,2.87741259765625,0.06397543102502823,-0.20464195311069489,-0.14572523534297943,-0.49072274565696716,0.40718916058540344,-0.7703169584274292,-0.015762269496917725,0.033698320388793945,0.057243287563323975,0.7558442036830376,-0.018558089435411127,-0.33837420765240744,0.560230491672199
1728063587151442400,2.8874423828125,0.2756245732307434,-0.0204276405274868,-0.09349638968706131,-0.49220412969589233,0.4051981568336487,-0.7704216241836548,-0.06376510858535767,0.09838765859603882,-0.060358285903930664,0.7560062155358349,-0.017323150251053635,-0.3383623591583005,0.560058360246466
1728063587161473500,2.8974736328125,0.48960617184638977,0.15730524063110352,0.06493745744228363,-0.4916226863861084,0.40222227573394775,-0.7723498940467834,-0.0797731876373291,0.18292173743247986,-0.09025990962982178,0.7562267646024418,-0.01611265084556475,-0.3369947329077091,0.560621002610423
1728063587171503600,2.907503662109375,0.7583907842636108,0.11556737124919891,0.17537981271743774,-0.4899581968784332,0.3980049192905426,-0.7755856513977051,-0.02896273136138916,0.14121019840240479,-0.05505704879760742,0.756135408344799,-0.014360534137934053,-0.33466542972913127,0.562185180610664
1728063587181534500,2.917534423828125,0.7073677778244019,0.06049325317144394,0.12969915568828583,-0.48864150047302246,0.3928287625312805,-0.7790475487709045,0.02153944969177246,0.025384128093719482,-0.032628417015075684,0.7559051654686305,-0.011990808341123956,-0.33216328110703836,0.5640312271634915
1728063587191564500,2.927564453125,0.3736950159072876,-0.053921472281217575,0.17219440639019012,-0.4880121052265167,0.38934534788131714,-0.7811877727508545,0.045263081789016724,-0.032686442136764526,0.07141000032424927,0.7555100247838467,-0.010206623701801169,-0.33060842141705526,0.5655072913921768
1728063587201595600,2.937595703125,0.24745230376720428,-0.12648873031139374,0.09826851636171341,-0.48812541365623474,0.3877646028995514,-0.7819029688835144,0.10667091608047485,-0.06562104821205139,0.056194961071014404,0.7549682173650848,-0.009093854388894207,-0.33009971897890517,0.5665461845396721
1728063587211626500,2.94762646484375,0.14199645817279816,-0.11273989081382751,-0.0216488316655159,-0.48895999789237976,0.3863353431224823,-0.7820889949798584,0.06017273664474487,-0.10549730062484741,-0.0175631046295166,0.75466608529275,-0.008023672960409364,-0.32998656957871336,0.5670305813657102
1728063587221656600,2.957656494140625,-0.12963058054447174,-0.04057716950774193,0.009490445256233215,-0.4896561801433563,0.38628479838371277,-0.781678318977356,-0.014112770557403564,-0.04470151662826538,-0.008025050163269043,0.7545759676408104,-0.007779805661562294,-0.33030339087645944,0.5669695063958463
1728063587231687400,2.9676875,0.01694181188941002,0.0293345358222723,0.09033975005149841,-0.48942679166793823,0.38726651668548584,-0.7813361287117004,-0.029494136571884155,0.05709993839263916,0.05051642656326294,0.7544231959690458,-0.008222549114287585,-0.3305515581209617,0.5670219331465985
1728063587241717500,2.977717529296875,0.2358795553445816,0.06363657861948013,0.1157686784863472,-0.48866593837738037,0.38666248321533203,-0.7821110486984253,-0.03747236728668213,0.06183907389640808,-0.01970773935317993,0.7541916620284606,-0.007977113746081168,-0.32997095906345825,0.5676710912631262
1728063587251748600,2.98774853515625,0.2120083123445511,0.17124159634113312,0.1228950247168541,-0.4872683584690094,0.3854663074016571,-0.7835720777511597,-0.04791843891143799,0.06555300951004028,-0.04595667123794556,0.7540535686545758,-0.007654006860034131,-0.3288698298354048,0.5684973145335178
1728063587261778700,2.99777880859375,0.3094210922718048,0.18761439621448517,0.13555224239826202,-0.4852830469608307,0.3842219114303589,-0.7854132056236267,-0.0227125883102417,0.0610906183719635,0.011762082576751709,0.7539815138962151,-0.0074913563050656076,-0.32747105275438215,0.5694018092125862
1728063587271809500,3.0078095703125,0.40530872344970703,0.20845523476600647,0.042332813143730164,-0.48341143131256104,0.3817726969718933,-0.7877582311630249,0.008237451314926147,-0.013242393732070923,-0.009055733680725098,0.7540413572636088,-0.00680069274411597,-0.32569102733537236,0.5703514189202035
1728063587281839600,3.017839599609375,0.2939673662185669,0.29117754101753235,0.03291241079568863,-0.4813198149204254,0.37913110852241516,-0.7903106212615967,-0.006641030311584473,-0.03004053235054016,-0.03714299201965332,0.7543855479423689,-0.006239339904699106,-0.32373719484940916,0.5710146873391491
1728063587291870700,3.02787060546875,0.25637364387512207,0.34420984983444214,0.11492685228586197,-0.4785062074661255,0.37743014097213745,-0.7928293347358704,0.0078183114528656,-0.0014993250370025635,0.004026234149932861,0.754684517461598,-0.006285123448261782,-0.32178539223518215,0.5717219819615282
1728063587301900500,3.037900634765625,0.2414199262857437,0.3906034529209137,0.10799837112426758,-0.4751163125038147,0.3759356141090393,-0.795573353767395,0.025989055633544922,-0.008870154619216919,-0.02743995189666748,0.754965663444802,-0.006566478904545611,-0.3196407455579758,0.572550103710819
1728063587311931600,3.047931640625,0.11586359888315201,0.4126565754413605,0.12290168553590775,-0.47146138548851013,0.37513068318367004,-0.7981235384941101,0.0017958283424377441,-0.010048866271972656,0.005459964275360107,0.7552701943693599,-0.0072599910841889765,-0.3176248375222344,0.5732614761156876
1728063587321961700,3.057961669921875,0.07983515411615372,0.4193185269832611,0.11748030036687851,-0.46764835715293884,0.374961793422699,-0.8004428148269653,0.008282482624053955,-0.00016012787818908691,-0.012148737907409668,0.7555896552007153,-0.008307069735588138,-0.3157682323458847,0.5738517586524629
1728063587331992600,3.06799267578125,0.01571475900709629,0.4149794280529022,0.13761353492736816,-0.4637962877750397,0.3751944899559021,-0.8025721907615662,-0.0019630491733551025,-0.0188712477684021,-0.014658033847808838,0.7558774363731858,-0.00953995705444286,-0.3140428309773771,0.5744000270681139
1728063587342022700,3.078022705078125,-0.03214850276708603,0.44260087609291077,0.12066517025232315,-0.45986494421958923,0.3759070634841919,-0.8044986724853516,-0.014561325311660767,-0.040656208992004395,-0.007085740566253662,0.7561567411621279,-0.011017874378774089,-0.31245681905653877,0.5748707466245322
1728063587352053800,3.0880537109375,-0.11014636605978012,0.4963352084159851,0.130975604057312,-0.45561569929122925,0.3770695924758911,-0.806370198726654,-0.04267534613609314,-0.035348981618881226,0.012638509273529053,0.7565306832141133,-0.012842280591382897,-0.31088579333274974,0.5751926271719302
1728063587362083600,3.09808349609375,-0.12146300077438354,0.5143608450889587,0.16205228865146637,-0.4509362578392029,0.3787654936313629,-0.8082036972045898,-0.041449666023254395,-0.006405264139175415,0.0037603378295898438,0.7568815378086029,-0.015017254464871515,-0.3093099228142487,0.5755278352481507
1728063587372114700,3.10811474609375,-0.1301041543483734,0.5213236808776855,0.15146197378635406,-0.4461355209350586,0.3804907500743866,-0.8100555539131165,-0.028321295976638794,0.008547365665435791,-0.032382190227508545,0.7572088506580495,-0.017226424677565532,-0.307693819637789,0.5759016363986819
1728063587382144500,3.11814453125,-0.16794154047966003,0.5305915474891663,0.14049240946769714,-0.4412915110588074,0.382381409406662,-0.8118166327476501,-0.03766661882400513,-0.004421204328536987,-0.05003023147583008,0.7575772722864792,-0.019549164911416703,-0.3061200962280584,0.5761813973619911
1728063587392175400,3.12817529296875,-0.3432803452014923,0.5248505473136902,0.14830373227596283,-0.4364185035228729,0.3849855065345764,-0.8132189512252808,-0.044858962297439575,-0.036841005086898804,-0.009595930576324463,0.7579489361048096,-0.022220647693148327,-0.3047897034812498,0.576301088157226
1728063587402205400,3.138205322265625,-0.5779041051864624,0.5189281105995178,0.16657833755016327,-0.4315086603164673,0.3895305395126343,-0.8136745095252991,-0.0382179319858551,-0.05612596869468689,0.05314600467681885,0.7582326754459001,-0.02577732228994445,-0.30413526626189824,0.5761254352804706
1728063587412236500,3.148236572265625,-0.6274915933609009,0.47615301609039307,0.14415159821510315,-0.42683058977127075,0.3952632546424866,-0.813377320766449,-0.010272711515426636,-0.08163407444953918,0.042396485805511475,0.7584384668607023,-0.02980380982801499,-0.30401163243253326,0.5757255699699066
1728063587422266400,3.158266357421875,-0.5711956024169922,0.5491488575935364,0.039277367293834686,-0.42229124903678894,0.4006561040878296,-0.8131081461906433,0.013355672359466553,-0.08443295955657959,0.01148766279220581,0.7588268711296585,-0.03373785706034121,-0.3038218126311097,0.5750965120638881
1728063587432297500,3.16829736328125,-0.3693668842315674,0.638842761516571,-0.03164607286453247,-0.417438268661499,0.40454035997390747,-0.8136906027793884,-0.0008966922760009766,0.002197951078414917,0.027450978755950928,0.7596729735225018,-0.03727869013524645,-0.30292739351063513,0.5742318923706407
1728063587442327600,3.17832763671875,-0.059241440147161484,0.6964476704597473,0.12425989657640457,-0.41181740164756775,0.4065079092979431,-0.8155720829963684,0.008664906024932861,0.12153777480125427,0.024785339832305908,0.7605406425752158,-0.04011008789179116,-0.3010068896268372,0.5739024882398542
1728063587452358400,3.1883583984375,0.2218882292509079,0.752433180809021,0.25547969341278076,-0.40508776903152466,0.4066280722618103,-0.818875789642334,0.08300521969795227,0.17204627394676208,-0.07991266250610352,0.7610637467553096,-0.042161844078785204,-0.2979672736609894,0.5746476096477253
1728063587462389500,3.198389404296875,0.3731195032596588,0.8147611618041992,0.21989455819129944,-0.397590309381485,0.40508201718330383,-0.8233046531677246,0.0712658166885376,0.11023783683776855,-0.09142923355102539,0.7615915714515675,-0.04362691980665813,-0.29401421975297853,0.5758738788784097
1728063587472419600,3.208419677734375,0.2553449273109436,0.8477907180786133,0.17072966694831848,-0.38992270827293396,0.4031342566013336,-0.8279148936271667,0.01176413893699646,-0.005764871835708618,-0.05860543251037598,0.7623206284952501,-0.04506083174848222,-0.28984836274350156,0.5769096609632319
1728063587482450400,3.218450439453125,0.007779005914926529,0.8907776474952698,0.16119076311588287,-0.3820299208164215,0.40267080068588257,-0.8318109512329102,-0.006901383399963379,-0.10744372010231018,-0.00014400482177734375,0.7631284715424999,-0.0473061541938463,-0.2861060404526379,0.5775296858989077
1728063587492480500,3.22848046875,-0.2217830866575241,0.9936060309410095,0.2046024203300476,-0.3734290897846222,0.4043845534324646,-0.8348795175552368,-0.020476579666137695,-0.1737174093723297,0.07699078321456909,0.7639067956686907,-0.050757557529593364,-0.28281424506268016,0.5778288490373991
1728063587502511600,3.23851171875,-0.10596153885126114,1.1153298616409302,0.16308799386024475,-0.3637748658657074,0.4065818190574646,-0.8380686640739441,-0.0005745291709899902,-0.1700095236301422,0.10154217481613159,0.7647897111119835,-0.054771045117897814,-0.2792235733022835,0.5780406306041294
1728063587512541400,3.24854150390625,-0.07737543433904648,1.1897732019424438,0.0986192524433136,-0.35358926653862,0.40777090191841125,-0.8418417572975159,-0.006716549396514893,-0.05988574028015137,0.13229280710220337,0.765992490508875,-0.05860794937139331,-0.27503495655325483,0.5780799847631587
1728063587522572500,3.258572509765625,0.140475332736969,1.36898672580719,0.1698407083749771,-0.34219247102737427,0.40821242332458496,-0.8463255763053894,0.00024297833442687988,0.14665821194648743,0.1552245020866394,0.7673873092084431,-0.06250897370103965,-0.27005527995172135,0.5781690909081343
1728063587532602600,3.2686025390625,0.5432904362678528,1.4101451635360718,0.3254593312740326,-0.3293518126010895,0.40622109174728394,-0.8523566126823425,0.04625546932220459,0.24053797125816345,0.061737775802612305,0.7686365860825379,-0.0655938601556993,-0.2636648022717601,0.5791167697931242
1728063587542633500,3.278633544921875,1.0172199010849,1.4227917194366455,0.3423674702644348,-0.31572428345680237,0.40054160356521606,-0.8601654767990112,0.08850562572479248,0.15446636080741882,-0.04068291187286377,0.7697447487294997,-0.06713110813784866,-0.2557551266095778,0.5810127185370754
1728063587552663600,3.28866357421875,0.9018105268478394,1.441503882408142,0.2391018122434616,-0.3021022379398346,0.3928227424621582,-0.868576169013977,0.06127274036407471,0.039031535387039185,-0.004485964775085449,0.771034091307487,-0.06784771844729923,-0.24720157247863253,0.5829188923163349
1728063587562694700,3.298694580078125,0.6496231555938721,1.3159770965576172,0.21744072437286377,-0.28908661007881165,0.3868088722229004,-0.8756756782531738,0.018990784883499146,0.009629756212234497,0.06020021438598633,0.7723329123160915,-0.06922751510121176,-0.2395197702535716,0.5842429840198243
1728063587572724500,3.308724365234375,0.6684905290603638,1.3792471885681152,0.4370116889476776,-0.2761031687259674,0.382298082113266,-0.8818249702453613,0.0042067766189575195,-0.015080034732818604,0.015369892120361328,0.7731542490324914,-0.07112139568748178,-0.2324419657577004,0.5857859149368392
1728063587582755600,3.318755615234375,0.7834120988845825,1.4398585557937622,0.266817569732666,-0.2622104585170746,0.3767099678516388,-0.8884454369544983,-0.010265767574310303,-0.054398566484451294,-0.09818786382675171,0.7738428852084979,-0.0727654072994247,-0.22468305295227559,0.5876989443987659
1728063587592785700,3.32878564453125,0.7597253918647766,1.6665078401565552,0.06018717586994171,-0.2478037178516388,0.3701291084289551,-0.895319938659668,-0.2165517657995224,0.0031466782093048096,-0.10231494903564453,0.7754500025346328,-0.07449032600608757,-0.21631278081937658,0.5885044267050863
1728063587602816500,3.33881640625,0.7521230578422546,1.7581530809402466,0.391786128282547,-0.23142236471176147,0.36391207575798035,-0.9022259712219238,-0.278968870639801,0.17299896478652954,0.004429340362548828,0.7769559838864804,-0.07692644260348531,-0.2072904499311256,0.5894510792333338
1728063587612846600,3.3488466796875,0.9722719788551331,1.6722347736358643,0.5810394287109375,-0.21395385265350342,0.35735973715782166,-0.9091302156448364,-0.11833681166172028,0.20376700162887573,-0.08304202556610107,0.7775059547305622,-0.07923165119653551,-0.19788186258749674,0.5916499292769097
1728063587622877700,3.358877685546875,1.1844894886016846,1.6651631593704224,0.397649347782135,-0.19696806371212006,0.3484649956226349,-0.9163928031921387,-0.11084751784801483,0.0927886962890625,-0.12559938430786133,0.778064634250808,-0.08042883935560884,-0.18797554885484521,0.5939797026310859
1728063587632907500,3.368907470703125,1.2033199071884155,1.7089062929153442,0.279000461101532,-0.18031027913093567,0.33796048164367676,-0.9237266778945923,-0.17044351994991302,0.02020910382270813,-0.06638562679290771,0.7791443539193158,-0.08105016086786249,-0.17767256437016976,0.5956488558873254
1728063587642938600,3.378938720703125,1.0528680086135864,1.7712805271148682,0.4384806752204895,-0.16296400129795074,0.32805362343788147,-0.9304963946342468,-0.11425769329071045,0.04078185558319092,0.0222017765045166,0.7800895834259919,-0.08214508212786302,-0.16734388595264538,0.5972508762807545
1728063587652968700,3.38896875,0.8734897971153259,1.7138662338256836,0.7280440330505371,-0.14463122189044952,0.3199867904186249,-0.9363173842430115,-0.00224989652633667,0.08110576868057251,0.057899415493011475,0.7801349448814188,-0.08413320555557957,-0.15736232648748666,0.5996234363649919
1728063587662999600,3.39899951171875,0.8007077574729919,1.6400980949401855,0.7485711574554443,-0.12649144232273102,0.31322652101516724,-0.9412168264389038,0.060771822929382324,0.09380170702934265,0.03408181667327881,0.7794881697631931,-0.08651541633116668,-0.14800904257865147,0.6025004461647225
1728063587673029600,3.409029541015625,0.9977057576179504,1.5940989255905151,0.5684056282043457,-0.10900010168552399,0.30588778853416443,-0.9458073973655701,0.021002650260925293,0.07626861333847046,-0.06491953134536743,0.7790035432369881,-0.08856974738704992,-0.13875047692309403,0.6050267105466564
1728063587683060700,3.419060791015625,1.3139469623565674,1.489776849746704,0.3393471837043762,-0.09302122890949249,0.29510894417762756,-0.9509246945381165,-0.007915668189525604,0.037395328283309937,-0.26611632108688354,0.7792092023810677,-0.08893194148301012,-0.12895258588920488,0.6068733545112867
1728063587693090600,3.429090576171875,1.3884685039520264,1.373903512954712,0.34359678626060486,-0.07833018898963928,0.28252965211868286,-0.9560551047325134,-0.022774547338485718,0.06878870725631714,-0.1951136589050293,0.7796914658606459,-0.08825546197144804,-0.11909414568715417,0.6083656668132482
1728063587703121700,3.43912158203125,1.5075199604034424,1.3220137357711792,0.519284725189209,-0.06434713304042816,0.2688930928707123,-0.9610182046890259,-0.003981739282608032,0.12482947111129761,-0.007853865623474121,0.779806579186025,-0.08690203124256113,-0.10926547713302777,0.6102546838207492
1728063587713152800,3.44915283203125,1.5583429336547852,1.3878302574157715,0.7214173078536987,-0.04952317476272583,0.2545808255672455,-0.965782642364502,-0.010245509445667267,0.19883409142494202,0.07852983474731445,0.7792549565743471,-0.08547758444641863,-0.0990064430892099,0.6129054064103522
1728063587723182300,3.459182373046875,1.9748125076293945,1.3373525142669678,0.7606222033500671,-0.03444741666316986,0.23793192207813263,-0.970670759677887,-0.018561627715826035,0.28939658403396606,0.04275333881378174,0.778310471431534,-0.08320119160314857,-0.08798958873232052,0.6160910645749459
1728063587733213700,3.469213623046875,2.458502769470215,1.3604375123977661,0.7295985221862793,-0.019581152126193047,0.21651335060596466,-0.9760832786560059,-0.0202137790620327,0.29676181077957153,-0.02174997329711914,0.7774565147795525,-0.07904626130311956,-0.07556490315677585,0.6193569360523224
1728063587743243500,3.479243408203125,3.063077688217163,1.374778151512146,0.6945127248764038,-0.004628842230886221,0.18971967697143555,-0.9818273782730103,-0.0027716821059584618,0.21825456619262695,0.11212217807769775,0.7767290675017833,-0.0729018825697738,-0.061413526188191805,0.6225799405430341
1728063587753274400,3.4892744140625,3.473186492919922,1.4206655025482178,0.48839977383613586,0.010190573520958424,0.15716597437858582,-0.9875196218490601,0.035204317420721054,0.11056473851203918,0.18220651149749756,0.7763649793320644,-0.06459833665002082,-0.04546694186532439,0.6253137513678575
1728063587763304400,3.499304443359375,3.5684287548065186,1.4068796634674072,0.26271817088127136,0.02483491227030754,0.12202270328998566,-0.9922165274620056,0.044134803116321564,0.11837951838970184,0.2873063087463379,0.7765431514869461,-0.055378811019226426,-0.028721259477863977,0.6269682066615095
1728063587773335600,3.50933544921875,3.5486676692962646,1.2339962720870972,0.2232528030872345,0.038324497640132904,0.08646222203969955,-0.9955177307128906,0.1246698796749115,0.15992145240306854,0.2915534973144531,0.7768388437707564,-0.045718377235410404,-0.012287123848049862,0.6279173820190286
1728063587783365400,3.519365478515625,3.0878725051879883,1.1504604816436768,0.21640555560588837,0.05025576427578926,0.05277416110038757,-0.9973410964012146,0.24730587005615234,0.06546619534492493,0.2172202467918396,0.7768642930233122,-0.03634317463651054,0.0029376386689900598,0.6286114571294746
1728063587793396500,3.529396484375,2.1542580127716064,1.1986626386642456,0.33195796608924866,0.062028951942920685,0.026440678164362907,-0.9977240562438965,0.2624034285545349,-0.04905419796705246,0.2919135093688965,0.7764209949273854,-0.029816232453394362,0.01577853578101078,0.6293112197030677
1728063587803426600,3.539426513671875,1.7851245403289795,0.9883642196655273,0.5601106882095337,0.07324059307575226,0.006784352939575911,-0.9972912073135376,0.26854100823402405,-0.1371554434299469,0.22029846906661987,0.7750254909933476,-0.025766108329389723,0.02627726852783345,0.6308575864384138
1728063587813457400,3.54945751953125,0.5795903205871582,0.7801420092582703,0.3393191993236542,0.08208619058132172,-0.005589480511844158,-0.9966095685958862,0.22966612875461578,-0.22114086151123047,0.21136176586151123,0.7736384003745722,-0.02382934332781764,0.03357651693744119,0.6322881931216887
1728063587823487500,3.559487548828125,0.03887281194329262,0.5005228519439697,0.2709374725818634,0.08837740123271942,-0.008364775218069553,-0.9960519671440125,0.05217130482196808,-0.10187997668981552,0.36833590269088745,0.7726287913554002,-0.024802297014260483,0.03686293457863227,0.6333016190209205
1728063587833518600,3.5695185546875,-0.1802656650543213,0.39302438497543335,0.38162511587142944,0.09281684458255768,-0.007938511669635773,-0.9956515431404114,0.04495474696159363,-0.05054842680692673,0.024246573448181152,0.7715272596671064,-0.02644055686103691,0.03840730308004249,0.6344852247196214
1728063587843548400,3.57954833984375,-0.473385214805603,0.2913941740989685,0.49722039699554443,0.09623159468173981,-0.005101993680000305,-0.9953458905220032,0.025991298258304596,-0.016687555238604546,0.01470935344696045,0.7699998170778009,-0.02871468634754072,0.03876233928132253,0.6362180571183351
1728063587853579500,3.58957958984375,-0.8039807081222534,0.1715543121099472,0.4923825263977051,0.09853686392307281,0.0007707857876084745,-0.995133101940155,-0.031657591462135315,-0.01630423218011856,-0.01260310411453247,0.7682584644382008,-0.031818408257291424,0.03769664889057421,0.6382362696719269
1728063587863609600,3.599609619140625,-1.1735213994979858,0.044230446219444275,0.42350438237190247,0.09965694695711136,0.010140564292669296,-0.9949702024459839,-0.11050594598054886,-0.1276790201663971,-0.0006657838821411133,0.7665854265798296,-0.03587627848625529,0.035039999857276044,0.6401812232837985
1728063587873640400,3.609640380859375,-1.7022111415863037,-0.06635917723178864,0.30277344584465027,0.0995885357260704,0.024034203961491585,-0.9947383999824524,-0.165445476770401,-0.25935524702072144,0.1453579068183899,0.7651449751571568,-0.04126192372333706,0.03046726168494038,0.641811905712577
1728063587883670500,3.61967041015625,-2.2954015731811523,-0.1590297818183899,0.22488585114479065,0.09856557846069336,0.043788664042949677,-0.9941666722297668,-0.19751882553100586,-0.2996938228607178,0.28538066148757935,0.7638758894381864,-0.048559921779139696,0.023634633566346073,0.6430995103184669
1728063587893701600,3.62970166015625,-2.766287326812744,-0.21236516535282135,0.23868981003761292,0.09677978605031967,0.0688948705792427,-0.9929184913635254,-0.19602295756340027,-0.2686171531677246,0.32025009393692017,0.7624778446938937,-0.05764578002277822,0.01475492755494069,0.6442724391827718
1728063587903731700,3.639731689453125,-3.105468273162842,-0.23545312881469727,0.2757255733013153,0.0948527380824089,0.09805658459663391,-0.9906502366065979,-0.163990318775177,-0.2108495533466339,0.2780647873878479,0.7607166480635652,-0.06822803339860842,0.004452405154935066,0.6454729789393558
1728063587913762600,3.649762451171875,-2.970698356628418,-0.40618038177490234,0.26031947135925293,0.0920371562242508,0.12827014923095703,-0.9874593615531921,-0.1171531230211258,-0.17712877690792084,0.17367762327194214,0.7586967496396182,-0.07891008298043264,-0.006597832670588223,0.6466135860244728
1728063587923792600,3.659792724609375,-2.6215877532958984,-0.6313592195510864,0.14565148949623108,0.0872914046049118,0.15579266846179962,-0.9839252233505249,-0.0768238827586174,-0.17172282934188843,-0.0838848352432251,0.756820258569168,-0.08791837430762126,-0.017542676697598392,0.6474455098587206
1728063587933823500,3.669823486328125,-2.145676612854004,-0.8839563131332397,0.0199875608086586,0.07993258535861969,0.17927230894565582,-0.9805468916893005,-0.08345736563205719,-0.13288559019565582,-0.30798155069351196,0.755359750189913,-0.09451890584069679,-0.028155401445820714,0.6478465815235828
1728063587943854600,3.6798544921875,-1.6345429420471191,-1.0855615139007568,-0.16146744787693024,0.0699523463845253,0.19778083264827728,-0.9777470827102661,-0.10487972944974899,-0.13346503674983978,-0.3601434826850891,0.7545159378846104,-0.09836463892744778,-0.03808993125983535,0.647749381382507
1728063587953884700,3.689884765625,-1.1985368728637695,-0.8644406199455261,-0.1894277036190033,0.05987706780433655,0.21184726059436798,-0.975466787815094,-0.14553990960121155,-0.08754914999008179,-0.063076913356781,0.7541962435908232,-0.10049742187143451,-0.04654963441894871,0.6472414112540669
1728063587963915500,3.69991552734375,-1.0709519386291504,-0.5136836171150208,-0.1783026158809662,0.05274355784058571,0.22265256941318512,-0.9734700322151184,-0.1114593893289566,0.01984010636806488,0.13538110256195068,0.754070421667977,-0.10235805799863046,-0.05279961803466816,0.6466165001005933
1728063587973945600,3.709945556640625,-1.3476040363311768,-0.4335467219352722,-0.1087469831109047,0.048110105097293854,0.23454561829566956,-0.9709138870239258,-0.04371557757258415,0.04531584680080414,0.16564655303955078,0.7537965641134445,-0.10547200816535088,-0.05846975002509549,0.6459472075788091
1728063587983976700,3.719976806640625,-1.4206819534301758,-0.7149723768234253,-0.07961653172969818,0.04244373366236687,0.24827824532985687,-0.9677584767341614,0.056509509682655334,-0.09530887007713318,0.07595854997634888,0.7531357628959043,-0.10894857689281477,-0.06519949223216627,0.6454966025386555
1728063587994006500,3.730006591796875,-1.2940901517868042,-1.0205700397491455,-0.348336398601532,0.03340223431587219,0.261462926864624,-0.9646353721618652,0.11329575628042221,-0.25717517733573914,-0.20821619033813477,0.7527112031067653,-0.11113675856199627,-0.0730131902026925,0.6447818319882681
1728063588004037600,3.74003759765625,-1.208238124847412,-1.0190823078155518,-0.7230101227760315,0.021921176463365555,0.2737484574317932,-0.9615514874458313,0.04967305436730385,-0.22800257802009583,-0.2868158221244812,0.7533639096750109,-0.1123210874031443,-0.08129104771211673,0.6428207890894442
1728063588014067700,3.750067626953125,-1.2099926471710205,-0.8529380559921265,-0.7611330151557922,0.010666901245713234,0.2854420840740204,-0.958336591720581,-0.004654943011701107,-0.024242103099822998,-0.19341206550598145,0.7547636720620353,-0.11349800936135433,-0.08916223233553557,0.6399219219802843
1728063588024098600,3.7600986328125,-1.2620848417282104,-0.5721104145050049,-0.34913963079452515,0.0021201723720878363,0.2974720895290375,-0.9547281861305237,0.08938677608966827,0.19939985871315002,-0.09942525625228882,0.7555646716178837,-0.1156739377716939,-0.09620528044791207,0.6375627795755742
1728063588034128600,3.770128662109375,-0.8798432350158691,-0.49038201570510864,0.08467680960893631,-0.003049657214432955,0.30801743268966675,-0.9513758420944214,0.2688272297382355,0.26665911078453064,-0.08320057392120361,0.7550039039299243,-0.11817916357559242,-0.10171414978247954,0.6369122039252916
1728063588044159700,3.78015966796875,-0.6108232736587524,-0.6077636480331421,0.013392774388194084,-0.008006925694644451,0.3148103356361389,-0.949120819568634,0.3938711881637573,0.16983932256698608,-0.46541470289230347,0.7540550254285153,-0.11917306965318016,-0.10600645760959033,0.6371509902307683
1728063588054189600,3.790189453125,-0.8514822125434875,-0.8184359669685364,-0.19796180725097656,-0.014997074380517006,0.3215571641921997,-0.9467713832855225,0.36190563440322876,0.05834090709686279,-0.43421006202697754,0.7535636486768933,-0.11956384892853927,-0.11099003118855667,0.6368105109596618
1728063588064220700,3.800220703125,-1.1927330493927002,-1.0992828607559204,-0.26479437947273254,-0.024845587089657784,0.3312087655067444,-0.9432303309440613,0.30165526270866394,-0.0446639358997345,-0.14524012804031372,0.7531529510584012,-0.1202386575886788,-0.11801483179140314,0.6359055124118351
1728063588074250500,3.81025048828125,-1.588982105255127,-1.357978105545044,-0.2874557375907898,-0.037349630147218704,0.3443159759044647,-0.9381105899810791,0.2038687765598297,-0.17294451594352722,0.027466118335723877,0.7524372540365256,-0.12144243864823555,-0.12726518141429155,0.634738977762981
1728063588084281300,3.82028125,-1.846291184425354,-1.339655876159668,-0.4129180610179901,-0.05134154111146927,0.36041611433029175,-0.9313775897026062,0.021663185209035873,-0.26419416069984436,0.21833443641662598,0.7515396013829616,-0.12341458888621423,-0.13813048634384698,0.6331484898519892
1728063588094311400,3.8303115234375,-2.0019688606262207,-1.0253911018371582,-0.576370120048523,-0.06440090388059616,0.378081351518631,-0.9235296845436096,-0.18358494341373444,-0.2988424301147461,0.2523108124732971,0.7510762556464746,-0.1265158748602063,-0.14909360254920542,0.6305944862781554
1728063588104342500,3.840342529296875,-2.002333402633667,-0.5339707732200623,-0.4865661859512329,-0.07365190237760544,0.3962913751602173,-0.9151658415794373,-0.31756821274757385,-0.2281700074672699,0.17314624786376953,0.7509076108018349,-0.13124904886838182,-0.15871595702528793,0.6274717484363006
1728063588114372600,3.85037255859375,-1.7684941291809082,-0.17962917685508728,-0.28703898191452026,-0.0784519612789154,0.4133337140083313,-0.9071937799453735,-0.2667934000492096,-0.10760858654975891,0.06432878971099854,0.7505674897217738,-0.13696885008477122,-0.16626075946822852,0.6246963516280828
1728063588124403500,3.860403564453125,-0.6226306557655334,0.051528625190258026,0.12008699029684067,-0.07858438789844513,0.4254779815673828,-0.9015503525733948,-0.12446432560682297,-0.016176193952560425,0.018936216831207275,0.749827037201998,-0.14201632730159439,-0.17045877573661813,0.623325553780422
1728063588134433500,3.87043359375,0.24764513969421387,-0.20133505761623383,-0.39491963386535645,-0.08027543872594833,0.42539969086647034,-0.901438295841217,0.04954423010349274,-0.13931265473365784,-0.06926482915878296,0.749975035093025,-0.14148198712949722,-0.17106637078459044,0.6231025657872538
1728063588144464400,3.88046435546875,-0.16474641859531403,0.012191074900329113,-0.628811240196228,-0.083180733025074,0.42485079169273376,-0.9014337658882141,-0.08303326368331909,0.09677094221115112,-0.005960643291473389,0.7517234016224397,-0.14079681396382804,-0.17163736314602338,0.6209902964830317
1728063588154494500,3.890494384765625,-0.007708340883255005,0.002049757167696953,-0.22792184352874756,-0.08525293320417404,0.42533808946609497,-0.9010102152824402,-0.034757450222969055,0.36631840467453003,0.17746901512145996,0.7529984011832686,-0.14070629583873323,-0.17232707640244865,0.619272561494183
1728063588164525600,3.900525634765625,-0.03372882306575775,0.13165265321731567,0.014604512602090836,-0.084862619638443,0.42532461881637573,-0.9010534286499023,0.0920800119638443,0.31490975618362427,-0.17643064260482788,0.7533415835857403,-0.14091955380222224,-0.17208998062510605,0.6188724509181389
1728063588174555600,3.9105556640625,-0.29927048087120056,0.132954403758049,0.11825261265039444,-0.08341977000236511,0.4265904724597931,-0.900589644908905,-0.03456118702888489,0.1999506652355194,-0.17172175645828247,0.7531742293364417,-0.14188723366213432,-0.17196858792408926,0.6188888156695177
1728063588184586500,3.92058642578125,-0.7806620001792908,0.01714407466351986,0.161369189620018,-0.08202260732650757,0.4318598806858063,-0.8982033729553223,-0.07935433834791183,0.051782697439193726,-0.14099639654159546,0.7523359045925787,-0.14441879464598079,-0.17332488626280765,0.6189445801433132
1728063588194617600,3.93061767578125,-0.712200939655304,-0.06455158442258835,0.029172537848353386,-0.08177933841943741,0.43876615166664124,-0.8948723077774048,-0.047477878630161285,0.006851553916931152,-0.23514783382415771,0.7514920267691817,-0.14731257128180922,-0.17567826221090257,0.6186243570422406
1728063588204647400,3.9406474609375,-0.40758615732192993,-0.21362000703811646,-0.01761787198483944,-0.08307243883609772,0.4442460238933563,-0.8920450806617737,-0.09724067151546478,0.08076313138008118,-0.24398696422576904,0.7508751914353716,-0.1491589123139927,-0.17812655989664697,0.6182305394378912
1728063588214678500,3.950678466796875,0.4906842112541199,-0.15000933408737183,-0.18125446140766144,-0.0851973369717598,0.4437095820903778,-0.8921116590499878,-0.1101914644241333,0.2376563847064972,-0.20507150888442993,0.7510418283141618,-0.14829346670662136,-0.1787546148408231,0.6180550341501184
1728063588224708600,3.96070849609375,1.3889565467834473,0.008405817672610283,-0.15598905086517334,-0.08668635040521622,0.4354099929332733,-0.896048903465271,-0.23271062970161438,0.3479152321815491,-0.126473069190979,0.7522216599313716,-0.14447635822363572,-0.17635798503689293,0.618212708383412
1728063588234739500,3.970739501953125,2.0021533966064453,0.11793124675750732,-0.018561163917183876,-0.08626991510391235,0.41987287998199463,-0.903473436832428,-0.27914756536483765,0.41521015763282776,0.13006651401519775,0.7537609544206512,-0.13819649869383557,-0.17077762043789227,0.6193394528705782
1728063588244769500,3.98076953125,2.567032814025879,0.1968567818403244,-0.009169792756438255,-0.0850023403763771,0.39896950125694275,-0.9130158424377441,-0.3067060708999634,0.48217982053756714,0.17859506607055664,0.7554509346682222,-0.12995416420066538,-0.16310727416271886,0.6211295681444421
1728063588254800600,3.990800537109375,3.133876085281372,0.16038532555103302,0.15116076171398163,-0.08297569304704666,0.37300223112106323,-0.9241127371788025,-0.34582680463790894,0.6095417737960815,-0.029744625091552734,0.7572199262248933,-0.11990695391578496,-0.1535120206106557,0.623437674982394
1728063588264830500,4.00083056640625,3.547128438949585,0.22435317933559418,0.6520896553993225,-0.07990007847547531,0.3419814109802246,-0.9363037347793579,-0.16793319582939148,0.6266465187072754,-0.3505004644393921,0.7580827597727502,-0.10800555957418981,-0.14206661014961527,0.6272659387002011
1728063588274861600,4.010861572265625,3.532243013381958,0.24168770015239716,0.7849432826042175,-0.07535233348608017,0.3086419403553009,-0.9481889009475708,0.14850294589996338,0.12717962265014648,-0.1043165922164917,0.7575813663940456,-0.09555259625506284,-0.12951929604153203,0.6325860439540475
1728063588284891600,4.0208916015625,2.3947973251342773,0.2220897674560547,0.19668696820735931,-0.07123090326786041,0.28057584166526794,-0.9571851491928101,0.2962980270385742,-0.46299466490745544,0.35940682888031006,0.757508930700517,-0.0854392090459946,-0.1187753395870917,0.6362176150083947
1728063588294922500,4.030922607421875,1.652066707611084,-0.47379741072654724,-0.3571546673774719,-0.0724145919084549,0.2613806426525116,-0.9625155925750732,0.3786889910697937,-0.610166072845459,0.6184147000312805,0.7585394645678757,-0.07751956229560168,-0.11284021406779493,0.6370838398441894
1728063588304952600,4.04095263671875,0.8331394195556641,-0.9941447973251343,-0.8077066540718079,-0.0814460813999176,0.24887163937091827,-0.9651059508323669,0.5888007879257202,-0.5092476010322571,0.45759862661361694,0.7604869320351705,-0.0699616432974605,-0.1120375124981866,0.635777262013714
1728063588314983700,4.050983642578125,0.6043379306793213,-0.8722026944160461,-0.6571187376976013,-0.09268423914909363,0.2418086677789688,-0.9658872485160828,0.5348991751670837,-0.06413534283638,0.31307053565979004,0.7626257133414749,-0.06393670311438444,-0.11387918972991937,0.6335184142509019
1728063588325013800,4.061013671875,0.8125698566436768,-0.505908727645874,-0.2423151582479477,-0.10038142651319504,0.2345346063375473,-0.9669110774993896,0.37359005212783813,0.2912832498550415,0.039787113666534424,0.7638463400845414,-0.05880391674661149,-0.1143964513953257,0.6324509993755758
1728063588335044600,4.071044677734375,1.0554648637771606,-0.32585403323173523,-0.07143636047840118,-0.10457585752010345,0.225384920835495,-0.9686411023139954,0.13895389437675476,0.3559139370918274,-0.09950464963912964,0.7643070292680391,-0.05390055335006551,-0.11302297353745785,0.6325783727800052
1728063588345074700,4.08107470703125,1.145421028137207,-0.22365042567253113,-0.08161816000938416,-0.10738252848386765,0.21446040272712708,-0.9708119034767151,-0.08797576278448105,0.19720648229122162,-0.004987657070159912,0.7646722037618656,-0.048720689225729565,-0.11054568139473606,0.6329948519084632
1728063588355105500,4.09110546875,0.8844224214553833,-0.10424306988716125,-0.054541535675525665,-0.10910951346158981,0.20431530475616455,-0.9728054404258728,-0.15938416123390198,-0.04289257526397705,0.1589931845664978,0.7650558465244728,-0.0442068621139514,-0.10790294722129222,0.6333185396445064
1728063588365135600,4.101135498046875,0.38222557306289673,-0.09426511824131012,-0.03193316236138344,-0.11007136106491089,0.1979690045118332,-0.9740085005760193,-0.1209772378206253,-0.226258784532547,0.3274173140525818,0.7652632943453884,-0.041420036313910266,-0.10620794574829685,0.6335426749146319
