time,seconds_elapsed,rotationRateX,rotationRateY,rotationRateZ,gravityX,gravityY,gravityZ,accelerationX,accelerationY,accelerationZ,quaternionW,quaternionX,quaternionY,quaternionZ
1729788563578339600,0.069339599609375,-0.09644661098718643,-0.13599519431591034,-0.0043558236211538315,-0.10171853750944138,-0.41984689235687256,-0.9018768668174744,-0.0037654489278793335,-0.013029605150222778,0.0023865103721618652,0.9751606726674292,0.21527062914445805,-0.05215475953880263,4.906173649174518e-20
1729788563588370700,0.07937060546875,-0.059471551328897476,-0.16987326741218567,0.06202027201652527,-0.10348784178495407,-0.4197140634059906,-0.9017373919487,0.019884951412677765,0.005682140588760376,0.007526576519012451,0.9751248734003396,0.21520732524365976,-0.053076403993709886,-0.000056685622014805484
1729788563598401500,0.089401611328125,-0.015579327940940857,-0.16934537887573242,0.11022987961769104,-0.10514117032289505,-0.4192698895931244,-0.901752769947052,0.032753489911556244,0.013599783182144165,0.010135948657989502,0.9751288934601295,0.21498996561675468,-0.05387874811165739,0.00014819764540023435
1729788563608431600,0.099431640625,-0.029343876987695694,-0.1422591656446457,0.11276121437549591,-0.10648463666439056,-0.418459415435791,-0.9019715785980225,0.037377603352069855,0.01986938714981079,0.009729146957397461,0.9751849013902876,0.2145807504339685,-0.05449133128677003,0.00048090938232106967
1729788563618462500,0.10946240234375,-0.05875689163804054,-0.14476236701011658,0.11078834533691406,-0.10792197287082672,-0.4172745943069458,-0.902349591255188,0.013912588357925415,0.005378931760787964,0.005895674228668213,0.9752815515600718,0.21397292486365035,-0.05514343030156814,0.0008441022449846848
1729788563628493600,0.11949365234375,-0.047162555158138275,-0.14277778565883636,0.12211690098047256,-0.1099490374326706,-0.41604915261268616,-0.902670681476593,-0.004415564239025116,-0.023205548524856567,0.005453824996948242,0.9753633970134132,0.21335260778256046,-0.05608327523565468,0.0012793205981210492
1729788563638523600,0.129523681640625,0.012930011376738548,-0.09427304565906525,0.12749674916267395,-0.11216006428003311,-0.4155174791812897,-0.9026435613632202,0.005241744220256805,-0.028711587190628052,-0.00032585859298706055,0.9753556269331735,0.2131147539085702,-0.05709926620479848,0.001820341102127477
1729788563648554500,0.139554443359375,0.08484574407339096,-0.02529105171561241,0.13722793757915497,-0.11360669136047363,-0.41611364483833313,-0.9021878838539124,0.0030720531940460205,-0.018761754035949707,-0.013446271419525146,0.9752373154937068,0.2134852087468545,-0.05770730868496484,0.002459306133243186
1729788563658585600,0.149585693359375,0.12428876757621765,0.004841497167944908,0.10760453343391418,-0.11397012323141098,-0.41732025146484375,-0.9015845060348511,-0.011182449758052826,-0.009315401315689087,-0.026394009590148926,0.9750810132811355,0.21417365139227765,-0.05777017314209057,0.003055750121711569
1729788563668615700,0.15961572265625,0.11235939711332321,0.010945728048682213,0.04704691469669342,-0.11338914185762405,-0.41837307810783386,-0.9011697173118591,-0.010908938944339752,-0.004783600568771362,-0.02612215280532837,0.9749735665195465,0.21475582737645704,-0.05740265908745798,0.0033921965469792007
1729788563678646500,0.169646484375,0.06443488597869873,-0.00829667504876852,-0.010301596485078335,-0.11233695596456528,-0.41902321577072144,-0.9009994268417358,-0.0018140226602554321,-0.006895303726196289,0.0043929219245910645,0.9749298122444023,0.21509689511214325,-0.056864936016858235,0.003389894915036018
1729788563688677600,0.179677734375,0.027329590171575546,-0.05314084514975548,-0.05578599125146866,-0.11134719848632812,-0.41916215419769287,-0.9010576605796814,0.007572203874588013,-0.011074572801589966,0.01620042324066162,0.9749458076432611,0.21514598604527152,-0.056421433943372304,0.00309445884302592
1729788563698707500,0.18970751953125,0.0029190555214881897,-0.08462963998317719,-0.08551805466413498,-0.11123812943696976,-0.41928398609161377,-0.9010144472122192,0.027391090989112854,-0.006893932819366455,0.023054182529449463,0.9749359978042181,0.21518366957296264,-0.05646922035927454,0.0026265357401649603
1729788563708738600,0.199738525390625,0.005416035186499357,-0.12515974044799805,-0.034581903368234634,-0.11201868206262589,-0.41985461115837097,-0.9006519317626953,0.042774319648742676,0.003045588731765747,0.027757644653320312,0.9748441237176313,0.21547244491279488,-0.05697067518941638,0.0021896631204062554
1729788563718769700,0.209769775390625,-0.013020295649766922,-0.06455376744270325,-0.017260435968637466,-0.11260325461626053,-0.42050376534461975,-0.9002761244773865,0.037804700434207916,0.016145944595336914,0.022422730922698975,0.9747482801956637,0.2158136397789269,-0.05732724398151381,0.0019553668972409465
1729788563728799500,0.219799560546875,-0.07053392380475998,-0.05098336935043335,-0.037887416779994965,-0.11281656473875046,-0.4203421175479889,-0.9003248810768127,0.02047039568424225,0.014244765043258667,0.021433889865875244,0.9747612460518301,0.2157141050126995,-0.057488895997629734,0.0017167842322684777
1729788563738830600,0.22983056640625,-0.10167839378118515,-0.06550297141075134,-0.00789809413254261,-0.11351367831230164,-0.4193692207336426,-0.9006908535957336,-0.00405527651309967,-0.0074800848960876465,0.020121395587921143,0.9748553101471136,0.21518460345216953,-0.057880452970676025,0.0015418063241774004
1729788563748861400,0.239861328125,-0.10241208970546722,-0.05917663127183914,0.0052541932091116905,-0.1143292710185051,-0.41819775104522705,-0.9011322855949402,0.005244210362434387,-0.012283146381378174,0.023675620555877686,0.9749686468916182,0.21455574691477902,-0.05830674670643513,0.0014792629294775067
1729788563758891500,0.2498916015625,-0.06481771171092987,-0.01722540333867073,-0.0006929114460945129,-0.11467073112726212,-0.41766250133514404,-0.9013371467590332,0.02836703509092331,0.008986443281173706,0.017044484615325928,0.9750212270063446,0.21426688847101322,-0.05849046835160738,0.0014277390048981168
1729788563768922600,0.259922607421875,-0.017239009961485863,0.015224415808916092,-0.003911607898771763,-0.11434733122587204,-0.417798787355423,-0.9013150930404663,0.00843609869480133,0.02229103446006775,0.011559784412384033,0.9750157582246951,0.21433346824495592,-0.05834059853017564,0.0013561215220468307
1729788563778953500,0.269953369140625,0.041833166033029556,0.01836087554693222,0.0567362904548645,-0.1134912297129631,-0.4183748662471771,-0.9011560678482056,-0.019779011607170105,0.0196627676486969,0.004519045352935791,0.9749749471848138,0.2146388438927311,-0.057897693445441975,0.0013828597550314802
1729788563788984600,0.279984619140625,0.07074443995952606,0.03069636970758438,0.0748567059636116,-0.11240650713443756,-0.41913527250289917,-0.9009386301040649,-0.018269740045070648,0.017752915620803833,0.009596407413482666,0.9749187332788016,0.21505578229749558,-0.057286178768189255,0.0016455509023968267
1729788563799014700,0.2900146484375,0.1033303514122963,0.03770191967487335,0.08079902082681656,-0.11145923286676407,-0.4197949767112732,-0.900749146938324,0.0068602487444877625,0.02324962615966797,0.014213502407073975,0.9748695712413586,0.21542396336780748,-0.05672688251161029,0.0019881957836183992
1729788563809045500,0.30004541015625,0.1574508398771286,0.03871232271194458,0.07141190767288208,-0.11113456636667252,-0.420839786529541,-0.9003016352653503,0.00772576779127121,0.009218752384185791,0.022921204566955566,0.974753881673867,0.21600946924123574,-0.05647208144238108,0.0024114852108250272
1729788563819076600,0.31007666015625,0.2058970034122467,0.08225506544113159,0.03271857649087906,-0.11097028106451035,-0.4226159453392029,-0.8994895219802856,0.0015495121479034424,-0.0010747909545898438,0.01817232370376587,0.9745444773828156,0.21698915046396494,-0.05631125706208268,0.0027988227203034695
1729788563829106700,0.320106689453125,0.21961601078510284,0.1421375572681427,0.01488258596509695,-0.11004066467285156,-0.4247262179851532,-0.8986092805862427,-0.01296040415763855,0.012876331806182861,0.0017739534378051758,0.9743178201505371,0.21813705831712216,-0.05578143678315688,0.0030782704586455544
1729788563839137500,0.330137451171875,0.19513563811779022,0.16742897033691406,0.0223626047372818,-0.10841736942529678,-0.4265028238296509,-0.8979648947715759,-0.033840298652648926,0.011204421520233154,-0.006682932376861572,0.9741514074784143,0.21909965872860915,-0.054889735047063994,0.003367288852206629
1729788563849168600,0.340168701171875,0.13698844611644745,0.1786470115184784,0.05061421915888786,-0.10699933767318726,-0.427638441324234,-0.8975948691368103,-0.023890532553195953,-0.011402636766433716,0.0032619237899780273,0.9740549129652099,0.2197250026994596,-0.054069422187493374,0.0037914797089986085
1729788563859198500,0.350198486328125,0.06350077688694,0.17345751821994781,0.07329822331666946,-0.10609611123800278,-0.42810532450675964,-0.8974794745445251,0.003282412886619568,-0.021326959133148193,0.015231549739837646,0.9740229009067026,0.22000179567779002,-0.053473928756981384,0.004378256458072968
1729788563869229600,0.3602294921875,0.0005487091839313507,0.13146239519119263,0.11745051294565201,-0.10554029792547226,-0.42792460322380066,-0.8976311683654785,0.01836685836315155,-0.016380757093429565,0.032213687896728516,0.9740583708265523,0.21993682658051816,-0.053030171552562046,0.0050726700238174684
1729788563879260400,0.370260498046875,0.00604986771941185,0.11948882043361664,0.13243477046489716,-0.10501067340373993,-0.4274361729621887,-0.8979259729385376,0.02426118403673172,-0.005669236183166504,0.0393902063369751,0.97412973101648,0.21970982983042775,-0.05257941656100084,0.005853915220727159
1729788563889290500,0.38029052734375,0.00656439084559679,0.1533045768737793,0.11964841932058334,-0.10435362160205841,-0.42729341983795166,-0.8980705142021179,0.013579100370407104,0.00024577975273132324,0.02473372220993042,0.9741619290522773,0.219667280192642,-0.052067516155496596,0.006621916618880619
1729788563899321600,0.390321533203125,-0.03335613012313843,0.11477422714233398,0.16743910312652588,-0.10350239276885986,-0.426941454410553,-0.8983364105224609,-0.002118930220603943,0.0010992586612701416,0.009679734706878662,0.9742228402504634,0.21952124723131067,-0.051402637275070835,0.0076237455582821925
1729788563909352400,0.4003525390625,-0.060055918991565704,0.07853313535451889,0.23271743953227997,-0.10346372425556183,-0.4260611832141876,-0.8987586498260498,0.05921325832605362,0.013158440589904785,-0.0009911060333251953,0.9743210567024004,0.21910792587151698,-0.051111538708404465,0.00882129246435174
1729788563919382500,0.410382568359375,-0.17410093545913696,0.09916698187589645,0.33122992515563965,-0.10428544878959656,-0.42458420991897583,-0.8993624448776245,0.08644794672727585,-0.007544606924057007,-0.01920139789581299,0.9744616624558708,0.21839566100316268,-0.05120668408560795,0.01027389302847295
1729788563929413600,0.42041357421875,-0.5075292587280273,0.2950113117694855,0.7817389965057373,-0.10501884669065475,-0.42156025767326355,-0.9006986021995544,0.054252877831459045,-0.046747177839279175,-0.021466314792633057,0.9747751073123215,0.2169025004926968,-0.05102940865431498,0.012757933053582969
1729788563939443700,0.430443603515625,-0.6256816387176514,-0.201552152633667,0.6817205548286438,-0.10824669152498245,-0.4156826138496399,-0.9030451774597168,0.11978235840797424,-0.07891571521759033,0.014632701873779297,0.9753232428993952,0.21396966548197435,-0.05190751401130781,0.01634222681284107
1729788563949474600,0.440474609375,-0.7342650890350342,-0.2266484498977661,0.5390952229499817,-0.1128195971250534,-0.4088881313800812,-0.905583918094635,0.1822013258934021,-0.13609471917152405,0.04483562707901001,0.9759275277376145,0.21052769437396854,-0.05372267584420385,0.01890659169280863
1729788563959505700,0.450505615234375,-0.7116159796714783,-0.043443530797958374,0.5285677313804626,-0.1163029745221138,-0.40153518319129944,-0.9084289073944092,-0.039992786943912506,-0.11778238415718079,-0.01820683479309082,0.9766093406936729,0.2067704080710011,-0.05505936393505177,0.021182904454010117
1729788563969535500,0.460535400390625,-0.5064588189125061,0.07901979982852936,0.44107332825660706,-0.1180209144949913,-0.39535558223724365,-0.910914421081543,-0.0725765973329544,-0.04220539331436157,-0.03305536508560181,0.9771933316021453,0.2036238609170902,-0.055498879077078345,0.023461503389325573
1729788563979566600,0.470566650390625,-0.3224989175796509,0.06921031326055527,0.19864815473556519,-0.11842767149209976,-0.3913884460926056,-0.9125732779502869,-0.010264933109283447,-0.041274458169937134,-0.08185732364654541,0.9775807656052742,0.20159668474443238,-0.05542690290024876,0.024948633805680544
1729788563989597400,0.480597412109375,-0.13870646059513092,0.45682036876678467,-1.868882656097412,-0.10998523980379105,-0.3900171220302582,-0.9142154455184937,0.05982962250709534,-0.08053335547447205,-0.06834375858306885,0.9780957510365688,0.2004850006873894,-0.05194269147927623,0.020887825425497313
1729788563999627500,0.49062744140625,-0.1887362003326416,-0.35980886220932007,-1.4957727193832397,-0.10323626548051834,-0.3905586004257202,-0.9147711396217346,-0.028035074472427368,-0.19357830286026,-0.06527036428451538,0.9783867965416506,0.2002117067995196,-0.050296149722335544,0.012032485095903463
1729788564009658600,0.50065869140625,-0.4983760714530945,-0.3789719045162201,-0.32347628474235535,-0.10364415496587753,-0.3883551061153412,-0.9156627058982849,0.3257206082344055,-0.17351919412612915,0.04133409261703491,0.9786641734244369,0.19877499902936877,-0.05154751582296316,0.0069142059956803685
1729788564019689500,0.510689453125,-0.8909227252006531,0.5901908874511719,2.990584135055542,-0.10513591766357422,-0.3805655241012573,-0.9187580347061157,0.4037199318408966,-0.0516701340675354,0.04134714603424072,0.9793768512322013,0.1950239301174982,-0.05085913203356426,0.01414033596738859
1729788564029719600,0.520719482421875,-0.7877870202064514,0.21323907375335693,3.261776924133301,-0.11527279019355774,-0.36905571818351746,-0.9222310185432434,0.7778094410896301,0.02020937204360962,-0.024363219738006592,0.9798866271838782,0.1899681863235908,-0.05288267147325033,0.03062288621539931
1729788564039750700,0.530750732421875,-1.0804545879364014,0.09400471299886703,1.3488750457763672,-0.12225265800952911,-0.35791832208633423,-0.9257152676582336,0.6900322437286377,-0.2291024923324585,0.07090264558792114,0.9803532848204332,0.1848780370902175,-0.05442864105866388,0.04201165455318456
1729788564049781500,0.540781494140625,-1.5841169357299805,0.036002397537231445,0.19725266098976135,-0.12413591146469116,-0.34469929337501526,-0.9304690957069397,-0.12391093373298645,-0.5580258369445801,0.0009799003601074219,0.9814379052018766,0.1781288202543569,-0.05509618810350044,0.04488026824293317
1729788564059811600,0.5508115234375,-1.8995814323425293,0.05021239072084427,0.5790104269981384,-0.12470459192991257,-0.32787051796913147,-0.9364559054374695,-0.11537718027830124,-0.5745646953582764,0.05083578824996948,0.9829113414642092,0.16938172854931577,-0.055514622370504,0.045969199404064985
1729788564069842700,0.5608427734375,-2.0651636123657227,0.10270622372627258,1.3605759143829346,-0.12706860899925232,-0.30788367986679077,-0.9429004192352295,0.2726680040359497,-0.42762041091918945,-0.008515596389770508,0.9843393718827756,0.15927143897177443,-0.05641279189658314,0.05025992140544184
1729788564079873500,0.57087353515625,-2.0116207599639893,0.15074272453784943,1.7567731142044067,-0.13054294884204865,-0.2863331139087677,-0.949195384979248,0.4737894535064697,-0.23406782746315002,-0.028847217559814453,0.9855344257769059,0.14863187568510902,-0.05754015709261933,0.05761664590919987
1729788564089904600,0.580904541015625,-1.756742238998413,0.1841917634010315,1.7174872159957886,-0.13377000391483307,-0.26591843366622925,-0.9546690583229065,0.45566946268081665,-0.09820196032524109,-0.043576180934906006,0.9864057481906319,0.13870087687541188,-0.058545261852167074,0.06586562627734258
1729788564099934500,0.5909345703125,-1.4486961364746094,0.1947121024131775,1.5034852027893066,-0.13610686361789703,-0.2483786642551422,-0.9590531587600708,0.3896469175815582,-0.05099870264530182,-0.0621107816696167,0.9869767136772235,0.13024101235053295,-0.05925114570731233,0.07350931482369714
1729788564109965600,0.600965576171875,-1.2529926300048828,0.20056892931461334,1.330865502357483,-0.1375974863767624,-0.23350441455841064,-0.96257084608078,0.3404936194419861,-0.05299454927444458,-0.05110102891921997,0.9873442240623898,0.12309801384454878,-0.059677977095656067,0.0802290497962344
1729788564119996700,0.61099658203125,-1.1737914085388184,0.19454234838485718,1.2615036964416504,-0.13862760365009308,-0.2200683057308197,-0.9655839204788208,0.30888521671295166,-0.04764708876609802,-0.0145338773727417,0.9875888096544286,0.11666287100321883,-0.059981743054182024,0.08637281892716316
1729788564130026500,0.621026611328125,-1.1693785190582275,0.20449909567832947,1.3079252243041992,-0.13942208886146545,-0.2069525420665741,-0.9683656692504883,0.26590222120285034,-0.024538472294807434,0.03614526987075806,0.9877417780833169,0.11039955922536275,-0.06024193294925759,0.0924602407592166
1729788564140057600,0.6310576171875,-1.223114013671875,0.3000558316707611,1.381298542022705,-0.1398000717163086,-0.1934700757265091,-0.9710949063301086,0.21890167891979218,-0.008525699377059937,0.08059197664260864,0.9878077263796655,0.10397216093556913,-0.06035186805998281,0.09891102904706306
1729788564150088400,0.64108837890625,-1.433364748954773,0.27348628640174866,1.4077144861221313,-0.13963133096694946,-0.1786605268716812,-0.9739525318145752,0.16647157073020935,-0.026570141315460205,0.0918114185333252,0.9878409603124075,0.0968767160798416,-0.06032115629373919,0.1055770297415622
1729788564160118500,0.651118408203125,-1.7672195434570312,0.30246028304100037,1.4404630661010742,-0.13921095430850983,-0.1610371470451355,-0.9770810008049011,0.09724931418895721,-0.04588723182678223,0.12010163068771362,0.9878951559328943,0.08837088448307921,-0.0604158236257191,0.11226523890684734
1729788564170149600,0.661149658203125,-2.099612236022949,0.2586914896965027,1.4859248399734497,-0.13863079249858856,-0.14000457525253296,-0.9803979992866516,0.06631942093372345,-0.056696414947509766,0.1541650891304016,0.9879402310804197,0.07817634061325836,-0.06074095723166017,0.11905087392720409
1729788564180180500,0.671180419921875,-2.439711332321167,0.23839247226715088,1.5121362209320068,-0.13812100887298584,-0.11552805453538895,-0.9836543202400208,0.05555574595928192,-0.07462692260742188,0.16672927141189575,0.9879168175607533,0.06630175096440308,-0.061456566791511846,0.12588705453732574
1729788564190210600,0.68121044921875,-2.623300790786743,0.1974618136882782,1.4864484071731567,-0.13742931187152863,-0.08826936036348343,-0.9865706562995911,0.03820143640041351,-0.06683617830276489,0.17272788286209106,0.9877750201923583,0.05306379231675229,-0.062441128824400956,0.13261145744468228
1729788564200241700,0.69124169921875,-2.613229513168335,0.10527367144823074,1.3569154739379883,-0.13706167042255402,-0.0603356696665287,-0.9887232780456543,0.0015178769826889038,-0.05012265220284462,0.1819148063659668,0.987457034881986,0.03953051482221598,-0.06384123430281424,0.13888906750081337
1729788564210272500,0.7012724609375,-2.5895040035247803,0.13121925294399261,1.1943185329437256,-0.13651928305625916,-0.0327271968126297,-0.9900966882705688,-0.05145369470119476,-0.010210983455181122,0.15492212772369385,0.9870221304523412,0.026133621334611182,-0.06533528305837051,0.1443456520060569
1729788564220302600,0.711302490234375,-2.5295934677124023,0.1598702222108841,1.2353829145431519,-0.13533475995063782,-0.005571238696575165,-0.9907842874526978,-0.1078902930021286,0.08313171565532684,0.15240538120269775,0.9864348920531107,0.012920956078495062,-0.0666401951698454,0.14946028457312713
1729788564230333400,0.72133349609375,-2.336050033569336,0.2702694535255432,1.3710778951644897,-0.13309703767299652,0.02041548117995262,-0.9908927083015442,-0.1062217652797699,0.15184102952480316,0.1782401204109192,0.985593486265732,0.0002613019334092036,-0.06748015024230196,0.15508676231950885
1729788564240364500,0.731364501953125,-2.074795722961426,0.3307358920574188,1.4444676637649536,-0.12959113717079163,0.04421481490135193,-0.990581214427948,-0.1032884418964386,0.15810151398181915,0.17827963829040527,0.9845111338081354,-0.011364836385125676,-0.06767734124099394,0.1613331642245092
1729788564250394600,0.74139453125,-1.8726049661636353,0.3946187198162079,1.3729327917099,-0.12519951164722443,0.06555117666721344,-0.989963710308075,-0.139143705368042,0.12286439538002014,0.17712801694869995,0.9833059842108847,-0.021846082559251342,-0.06738619689062111,0.16760411273092893
1729788564260425500,0.751425537109375,-1.6977046728134155,0.3943042457103729,1.2781673669815063,-0.12023597955703735,0.08488669246435165,-0.989109456539154,-0.18532124161720276,0.09362591803073883,0.18408626317977905,0.9820656290643246,-0.031422853541549084,-0.06676724749295247,0.173498894325672
1729788564270456600,0.76145654296875,-1.586764931678772,0.4641304910182953,1.1242401599884033,-0.11498036980628967,0.10251157730817795,-0.9880642294883728,-0.20212775468826294,0.07435308396816254,0.1963009238243103,0.9808463157952371,-0.040234437064497496,-0.06594758383574509,0.1788085227957415
1729788564280486700,0.771486572265625,-1.4875906705856323,0.5912580490112305,1.035066843032837,-0.10862475633621216,0.11892984807491302,-0.9869429469108582,-0.21127571165561676,0.08389002084732056,0.19310444593429565,0.9797054456696969,-0.04861264813220218,-0.06453947663490267,0.18343573544959352
1729788564290517500,0.781517578125,-1.2372610569000244,0.6478313207626343,0.9937527775764465,-0.10129648447036743,0.1335054188966751,-0.9858576655387878,-0.208060160279274,0.14728684723377228,0.22571057081222534,0.9786007374167301,-0.056209937926523,-0.06254290334192099,0.1878010853741786
1729788564300548600,0.791548583984375,-1.0139316320419312,0.7043291330337524,1.0382850170135498,-0.09314771741628647,0.14561153948307037,-0.9849470853805542,-0.17012739181518555,0.2041657269001007,0.2039870023727417,0.977513411904322,-0.06268892869787315,-0.059971245253125714,0.19220043861049502
1729788564310578700,0.80157861328125,-0.6842002868652344,0.6381495594978333,1.0761798620224,-0.08498562127351761,0.155020073056221,-0.9842490553855896,-0.1468716263771057,0.2547547221183777,0.22233200073242188,0.9763951616806922,-0.0678471198219673,-0.057203459244828045,0.19691876603637798
1729788564320609500,0.811609619140625,-0.3926783502101898,0.6989579200744629,0.9567646384239197,-0.07692419737577438,0.1609489768743515,-0.9839603900909424,-0.11443623155355453,0.2513588070869446,0.22082263231277466,0.9753543492694341,-0.07130701612466951,-0.054176596818203346,0.20165310191266905
1729788564330640600,0.821640625,-0.34406954050064087,0.8895121812820435,0.7403729557991028,-0.06771500408649445,0.16512475907802582,-0.983945369720459,-0.16859781742095947,0.19667641818523407,0.16918712854385376,0.974572679499828,-0.07410425871030386,-0.05035745470716719,0.20537952564810075
1729788564340670500,0.83167041015625,-0.38610151410102844,1.006116509437561,0.676998496055603,-0.05707554891705513,0.169148787856102,-0.9839364886283875,-0.2459487020969391,0.1735636442899704,0.18883156776428223,0.9739391960184705,-0.0770431909852503,-0.04578305565697237,0.2083524599322505
1729788564350701600,0.84170166015625,-0.5324805974960327,1.0202994346618652,0.6205322742462158,-0.045953623950481415,0.17391996085643768,-0.9836869835853577,-0.2300778329372406,0.1432492583990097,0.19753891229629517,0.9732946039784577,-0.08044461991449596,-0.041050747768149626,0.21104779150281971
1729788564360732700,0.851732666015625,-0.7501816153526306,1.0998893976211548,0.531832754611969,-0.0345236174762249,0.18045111000537872,-0.9829778671264648,-0.21091397106647491,0.08781367540359497,0.18538576364517212,0.9726235580882286,-0.08479544717469069,-0.036342699087584106,0.2132892496445794
1729788564370762500,0.861762451171875,-1.0962737798690796,1.104417324066162,0.5197532176971436,-0.02258598618209362,0.18961703777313232,-0.9815983176231384,-0.22459110617637634,0.06624238193035126,0.22874492406845093,0.9718488161618087,-0.09054243044668155,-0.031668781835075197,0.21519496363244464
1729788564380793600,0.871793701171875,-1.4905571937561035,1.022165060043335,0.5019769072532654,-0.011065750382840633,0.20242686569690704,-0.9792348742485046,-0.2080199122428894,0.028865903615951538,0.27792567014694214,0.9708362300734676,-0.09807927520984551,-0.027622899282571035,0.2170125747437763
1729788564390824400,0.881824462890625,-1.9133579730987549,0.8036381006240845,0.3109153211116791,-0.001142337336204946,0.21910932660102844,-0.9756996631622314,-0.19864095747470856,-0.08905863761901855,0.25904011726379395,0.9696275541529741,-0.10740755190996643,-0.024774937706766618,0.2183393363207005
1729788564400854500,0.8918544921875,-2.4245848655700684,0.4337003529071808,0.06547119468450546,0.005478422157466412,0.24025925993919373,-0.9706932902336121,-0.2219548225402832,-0.21744734048843384,0.18095940351486206,0.9682687570634929,-0.1186553725646721,-0.023963643091023373,0.21863702681816294
1729788564410885600,0.9018857421875,-2.6096625328063965,0.07072214037179947,-0.06813347339630127,0.0078059593215584755,0.2650940418243408,-0.9641909599304199,-0.1976557821035385,-0.18725895881652832,0.0975223183631897,0.9667069539771632,-0.13133696146580023,-0.025595384043800257,0.21811236558006108
1729788564420916500,0.91191650390625,-2.1803700923919678,-0.17229540646076202,-0.18269440531730652,0.006866379640996456,0.2884983420372009,-0.9574557542800903,-0.13157643377780914,0.028762400150299072,-0.018465816974639893,0.9651533564322273,-0.1430106364491915,-0.028636869878048664,0.21727167789420332
1729788564430946600,0.921946533203125,-1.219285249710083,-0.038905397057533264,-0.32487842440605164,0.0048711709678173065,0.30514204502105713,-0.9522944092750549,-0.13443350791931152,0.28081074357032776,-0.20746511220932007,0.9641431186279009,-0.15123325764055218,-0.031325786252878705,0.21581315690043507
1729788564440977700,0.931977783203125,-0.041856005787849426,0.19744275510311127,-0.15652033686637878,0.004772636108100414,0.3109284043312073,-0.9504213333129883,-0.2134212851524353,0.5003814101219177,-0.38109105825424194,0.96397092949958,-0.15419705858262847,-0.031821222958810694,0.21440779950538855
1729788564451008500,0.942008544921875,0.5637606382369995,0.5494266152381897,0.05304648354649544,0.008197573944926262,0.3082183003425598,-0.9512803554534912,-0.19215750694274902,0.617257833480835,-0.4403517246246338,0.9642925759836745,-0.1532156023380719,-0.029745764813779326,0.2139625904698098
1729788564461038600,0.95203857421875,1.0753329992294312,0.7287821173667908,0.010441231541335583,0.014564920216798782,0.3002614378929138,-0.9537457227706909,-0.1779712587594986,0.5430155396461487,-0.2499437928199768,0.9649672284863141,-0.14989485629721785,-0.02566440688309718,0.21380167768604108
1729788564471068000,0.96206787109375,1.2196006774902344,0.5883795022964478,-0.06662718951702118,0.020975545048713684,0.2890436351299286,-0.9570860862731934,-0.2521919310092926,0.2824895679950714,-0.08402103185653687,0.965951769905164,-0.14494787095187556,-0.021143889676530254,0.21326115388583394
1729788564481099000,0.97209912109375,1.049582839012146,0.3175375461578369,-0.09027818590402603,0.025065677240490913,0.27806222438812256,-0.9602359533309937,-0.23047946393489838,0.06710687279701233,0.013519644737243652,0.9668897995624587,-0.13987451946103024,-0.017808331510399313,0.2127015896778585
1729788564491128800,0.98212890625,0.8408693671226501,0.1322374790906906,-0.23461858928203583,0.02672545611858368,0.268936425447464,-0.9627870917320251,-0.08493770658969879,-0.0345613956451416,0.059619367122650146,0.9677310753432694,-0.13548110089998494,-0.015853579055801866,0.211872574276173
1729788564501160000,0.992159912109375,0.43401166796684265,0.06497710943222046,-0.35829949378967285,0.026920659467577934,0.2628025412559509,-0.9644740223884583,-0.0230754092335701,-0.13681069016456604,0.13892775774002075,0.9684938117874681,-0.13244563365110276,-0.014871183719910466,0.2103729553503261
1729788564511190800,1.002190673828125,0.03131454437971115,-0.15335175395011902,-0.2538202404975891,0.025719303637742996,0.260705828666687,-0.9650756120681763,0.00871981680393219,-0.18337425589561462,0.18234556913375854,0.9689761903388991,-0.13128731403054464,-0.015027384503860894,0.2088612250928613
1729788564521220900,1.012220947265625,-0.21622535586357117,-0.39790138602256775,-0.11575691401958466,0.02259296551346779,0.2617385983467102,-0.9648743271827698,0.1122642457485199,-0.17770841717720032,0.08271795511245728,0.9690693092875227,-0.1314824074429297,-0.016589568566103673,0.20818697699428226
1729788564531252000,1.022251953125,-0.3472752273082733,-0.4870930314064026,-0.22602084279060364,0.017748627811670303,0.2645278573036194,-0.9642146825790405,0.24352765083312988,-0.15478664636611938,-0.1910892128944397,0.9690042685660315,-0.13237604432870445,-0.01921538131410239,0.20769694707434477
1729788564541282800,1.03228271484375,-0.49295535683631897,-0.44280022382736206,-0.4041157364845276,0.012418163940310478,0.26861751079559326,-0.9631668925285339,0.28602853417396545,-0.06280693411827087,-0.35935813188552856,0.9690125422556548,-0.13389427564192158,-0.022110883013735864,0.2063927288822264
1729788564551313000,1.04231298828125,-0.5247753262519836,-0.6742084622383118,-0.4249970316886902,0.006170313339680433,0.2736673057079315,-0.9618046283721924,0.29833412170410156,0.07978731393814087,-0.3144862651824951,0.9690310689676122,-0.13582132183098797,-0.0255001801069519,0.2046484533491897
1729788564561344000,1.052343994140625,-0.5480196475982666,-1.0284759998321533,-0.4454501271247864,-0.0033293236047029495,0.278801292181015,-0.960343062877655,0.3076659142971039,0.15656247735023499,-0.09049922227859497,0.9689887680045562,-0.1374653854315501,-0.030524598985042808,0.20305716737567073
1729788564571374800,1.062374755859375,-0.5133556723594666,-1.2192935943603516,-0.44191399216651917,-0.015510995872318745,0.28390365839004517,-0.9587273597717285,0.22365617752075195,0.15940997004508972,0.08069086074829102,0.9688775896616515,-0.13883554842249196,-0.036891983491459474,0.20159331111445852
1729788564581405000,1.072405029296875,-0.583759069442749,-1.085084080696106,-0.3995758295059204,-0.028046563267707825,0.28895238041877747,-0.956932544708252,0.06561373919248581,0.09448572993278503,0.13385826349258423,0.9686985353350555,-0.14016433673748202,-0.04344745355912428,0.20022356651093182
1729788564591436000,1.08243603515625,-0.696643054485321,-0.7867393493652344,-0.22038373351097107,-0.037815745919942856,0.2951301336288452,-0.9547083973884583,-0.05828407034277916,0.03629079461097717,0.05653035640716553,0.9683342230687279,-0.14234934653485495,-0.048810349746440426,0.19920611114482634
1729788564601467000,1.092466796875,-0.7539169788360596,-0.6662944555282593,-0.2405928671360016,-0.045378781855106354,0.301790714263916,-0.9522936344146729,-0.07380758225917816,-0.006365269422531128,-0.015556097030639648,0.9678455896840856,-0.14499710914810257,-0.05318865546708213,0.19854888205856827
1729788564611497000,1.1024970703125,-1.1077779531478882,-0.6358165740966797,-0.40496155619621277,-0.05246388167142868,0.31047970056533813,-0.9491311311721802,-0.033412542194128036,-0.09018856287002563,-0.11579495668411255,0.9673102934741492,-0.14877698753398452,-0.05744426756581138,0.19717088563365184
1729788564621527800,1.11252783203125,-1.2724347114562988,-0.8984833359718323,-0.4965314269065857,-0.06100158393383026,0.32167118787765503,-0.9448843598365784,0.002682529389858246,-0.10772767663002014,-0.06352323293685913,0.9666121968213832,-0.15374891723886702,-0.06260267812611205,0.19519955749150592
1729788564631559000,1.122558837890625,-1.383103370666504,-1.234054684638977,-0.6174434423446655,-0.07293971627950668,0.3338252007961273,-0.9398087859153748,0.09279143810272217,-0.14473828673362732,-0.015833914279937744,0.9657600367632685,-0.15894596020182514,-0.06951115933910144,0.19290355748096746
1729788564641589000,1.132589111328125,-1.4166637659072876,-1.4391019344329834,-0.6953590512275696,-0.08783085644245148,0.34656885266304016,-0.9339035153388977,0.07202279567718506,-0.15909934043884277,0.0681350827217102,0.9647520964171303,-0.1642485536059701,-0.07791439855730696,0.1902765574275818
1729788564651619800,1.142619873046875,-1.3135617971420288,-1.394539713859558,-0.7147234082221985,-0.10375519096851349,0.35865435004234314,-0.927686333656311,-0.012837179005146027,-0.13496047258377075,0.047650933265686035,0.9636853093179957,-0.16920618468006074,-0.08675310888516825,0.18749373736198233
1729788564661651000,1.15265087890625,-1.198704481124878,-1.1158322095870972,-0.6815007328987122,-0.11802112311124802,0.36954936385154724,-0.9216855764389038,-0.1001947820186615,-0.08923012018203735,-0.07839071750640869,0.9626847305521701,-0.1737909947148252,-0.09462508215955041,0.18461001741796196
1729788564671681000,1.162680908203125,-0.9426745772361755,-0.8636602163314819,-0.6491233706474304,-0.1295793354511261,0.37867075204849243,-0.9164156317710876,-0.17678658664226532,-0.020623236894607544,-0.14196443557739258,0.9618586899684543,-0.17776714921222736,-0.10095053787618775,0.18175733611674003
1729788564681711900,1.1727119140625,-0.6516227722167969,-0.6556169986724854,-0.6481422185897827,-0.13903029263019562,0.385028600692749,-0.9123724699020386,-0.2062150239944458,0.0027125179767608643,-0.13412100076675415,0.9613451996524993,-0.1805475557774046,-0.10590718542920005,0.1788903528432556
1729788564691743000,1.182742919921875,-0.6471891403198242,-0.5493054986000061,-0.5534306764602661,-0.14673057198524475,0.3898799419403076,-0.9091005325317383,-0.19370822608470917,0.02233627438545227,-0.07422161102294922,0.9609950774798066,-0.18271538087109346,-0.10983999935038109,0.17617791564908497
1729788564701773000,1.19277294921875,-0.867722749710083,-0.5875746011734009,-0.4197689890861511,-0.15371443331241608,0.39604946970939636,-0.905271589756012,-0.09207411110401154,0.040123045444488525,-0.02850520610809326,0.9604081893311107,-0.18560791454140624,-0.11363932524462525,0.17393075619259224
1729788564711804000,1.202803955078125,-0.9544848203659058,-0.8759967684745789,-0.4006003737449646,-0.16179314255714417,0.40373918414115906,-0.9004541039466858,0.03857846558094025,-0.00240248441696167,0.041170716285705566,0.9594727931791835,-0.18917720287453846,-0.11825788033517258,0.172159456855577
1729788564721835000,1.2128349609375,-1.0400816202163696,-1.2294492721557617,-0.5717878341674805,-0.1732308715581894,0.41189515590667725,-0.8946135640144348,0.12109163403511047,-0.10372862219810486,0.09148246049880981,0.9582908514161423,-0.19276901626626194,-0.12463277783601596,0.17025045547181147
1729788564731864800,1.22286474609375,-1.1418648958206177,-1.2316935062408447,-0.7499426603317261,-0.1870933324098587,0.4205276370048523,-0.8877795934677124,0.14578783512115479,-0.1422530710697174,0.0452655553817749,0.9569796043889737,-0.19657224495232556,-0.13217246536755395,0.16757039401036153
1729788564741896000,1.23289599609375,-1.04111909866333,-1.1975921392440796,-0.783501923084259,-0.20113927125930786,0.4288260340690613,-0.8807106614112854,0.13342079520225525,-0.07024446129798889,0.0280647873878479,0.9556964683800957,-0.20033765327928144,-0.1396764109420599,0.16431568978721736
1729788564751926800,1.2429267578125,-0.8779075145721436,-1.1349358558654785,-0.7593241333961487,-0.21485459804534912,0.4356206953525543,-0.8741121292114258,0.0846361517906189,0.03036743402481079,0.012112677097320557,0.9545175433405997,-0.20340047992079127,-0.14687467045525163,0.16109671208130505
1729788564761956900,1.252956787109375,-0.5854461789131165,-0.9609492421150208,-0.6414963006973267,-0.22715330123901367,0.4405786991119385,-0.868499755859375,0.023097559809684753,0.1328313648700714,-0.114959716796875,0.953524392578353,-0.20559645655624859,-0.15323259956390284,0.15824382086484706
1729788564771988000,1.262988037109375,-0.09702565521001816,-0.8457424640655518,-0.505772590637207,-0.237455815076828,0.44221484661102295,-0.864905059337616,-0.037339672446250916,0.17590346932411194,-0.17458468675613403,0.9529228974014424,-0.2060760087253116,-0.15836713987740386,0.15617426310591334
1729788564782018800,1.273018798828125,0.12074682116508484,-0.7480041980743408,-0.43012309074401855,-0.24644562602043152,0.4407288134098053,-0.863146960735321,-0.0852804034948349,0.09842526912689209,-0.12070924043655396,0.9526859937979362,-0.20488275539886514,-0.16263329123574996,0.15479901430405676
1729788564792049000,1.283048828125,-0.032289598137140274,-0.7267484068870544,-0.3403242230415344,-0.25440260767936707,0.4392617642879486,-0.8615848422050476,-0.08859968185424805,0.02195039391517639,-0.06668359041213989,0.9524443984505799,-0.2037272495367132,-0.1664415743604038,0.15375971145548922
1729788564802080000,1.293080078125,-0.2860661447048187,-0.8686364889144897,-0.3188205361366272,-0.262649267911911,0.43981510400772095,-0.8588235974311829,-0.017608851194381714,-0.013377726078033447,0.023237109184265137,0.9518604303249733,-0.20361681989136168,-0.17067038579471902,0.15288396414722122
1729788564812110800,1.30311083984375,-0.49676933884620667,-1.0525047779083252,-0.35035157203674316,-0.2724573016166687,0.4423062801361084,-0.8544777035713196,0.05790349841117859,-0.05876132845878601,0.11439591646194458,0.9508727499014558,-0.2044700471236455,-0.17593504295618959,0.15192049358787155
1729788564822141000,1.313140869140625,-0.6649051904678345,-1.2001911401748657,-0.3996221721172333,-0.2837851047515869,0.4462457597255707,-0.8487229943275452,0.10188513994216919,-0.09723144769668579,0.10159164667129517,0.9495405170640095,-0.20605562099814778,-0.18215266237746633,0.1507785888550182
1729788564832172000,1.323172119140625,-0.7416428327560425,-1.228624701499939,-0.42510995268821716,-0.29597267508506775,0.45108407735824585,-0.8419758677482605,0.11410319805145264,-0.09581369161605835,0.0582234263420105,0.9479778209675305,-0.2081426604364419,-0.18891454159695292,0.14941898629042466
1729788564842203000,1.333202880859375,-0.7146028876304626,-1.207324504852295,-0.4038233160972595,-0.30815455317497253,0.4559977948665619,-0.8349292278289795,0.07283353805541992,-0.0558512806892395,0.03176760673522949,0.9463407568643829,-0.21032012238491704,-0.19570598942013662,0.1479995332758279
1729788564852233000,1.34323291015625,-0.6381011605262756,-1.115334153175354,-0.2996599078178406,-0.31948453187942505,0.46051254868507385,-0.8281652927398682,0.018565982580184937,0.016187280416488647,-0.006261587142944336,0.944729250350218,-0.21231053342428127,-0.20209299740957773,0.14686461387257563
1729788564862263800,1.353263916015625,-0.508182942867279,-1.0269660949707031,-0.1619928628206253,-0.3294260501861572,0.4645185172557831,-0.822010338306427,-0.020900458097457886,0.10066702961921692,-0.022807717323303223,0.9431848783358044,-0.21400948406197937,-0.2078334880876511,0.14631306600453373
1729788564872295000,1.363294921875,-0.3020724058151245,-0.9211145043373108,-0.02251378819346428,-0.33783072233200073,0.4676046371459961,-0.8168330788612366,-0.03318667411804199,0.1495828628540039,-0.005463063716888428,0.9417799595866408,-0.2151452743539723,-0.21282850708830028,0.1465161575714278
1729788564882325000,1.373324951171875,-0.11866136640310287,-0.8216503858566284,0.023793790489435196,-0.3449603319168091,0.4692181348800659,-0.8129186034202576,-0.009608089923858643,0.13043701648712158,-0.02953439950942993,0.9406239908735805,-0.21543093333766739,-0.2170949232084709,0.14726078202979562
1729788564892355800,1.38335595703125,-0.12492085993289948,-0.8246719837188721,-0.004233850631862879,-0.35143253207206726,0.47019264101982117,-0.8095764517784119,0.016456395387649536,0.06560447812080383,0.00038760900497436523,0.9396060793445961,-0.2153844207421224,-0.2209554728492772,0.14808330512474185
1729788564902387000,1.393386962890625,-0.13387568295001984,-0.8557561039924622,-0.06631267070770264,-0.3584439754486084,0.47117722034454346,-0.8059217929840088,0.06689435243606567,0.020598292350769043,0.07722312211990356,0.9385388257164481,-0.21536080909375963,-0.2250751708445092,0.14867980769500208
1729788564912417000,1.4034169921875,-0.052616506814956665,-0.8572914004325867,-0.15522949397563934,-0.36590075492858887,0.4715191125869751,-0.8023629784584045,0.10061147809028625,-0.01963004469871521,0.03284698724746704,0.937541995533469,-0.2150262786271371,-0.2293081140031776,0.1489846472081959
1729788564922448000,1.41344775390625,-0.04331209138035774,-0.7944596409797668,-0.18404942750930786,-0.37341615557670593,0.4712040424346924,-0.7990789413452148,0.08217167854309082,-0.043423861265182495,0.0016088485717773438,0.9366649857271161,-0.21440122348253252,-0.23343658608124818,0.1489907686319764
1729788564932479000,1.42347900390625,-0.01278587244451046,-0.7355313301086426,-0.14822565019130707,-0.38025394082069397,0.47084519267082214,-0.7960600852966309,0.03789258003234863,-0.004231452941894531,0.0036101937294006348,0.9358568980922803,-0.2137929225274545,-0.23719725486953913,0.14900266199314788
1729788564942509000,1.433509033203125,0.05468711256980896,-0.6387519836425781,-0.1303931176662445,-0.3864634037017822,0.470092236995697,-0.7935107350349426,0.000004112720489501953,0.053314775228500366,-0.010551154613494873,0.935160215530679,-0.21298460574647976,-0.2405871892728683,0.14909931720527114
1729788564952540000,1.443539794921875,0.10548558086156845,-0.4809444844722748,-0.10571280121803284,-0.39143744111061096,0.4690361022949219,-0.7916955947875977,-0.05912402272224426,0.08189776539802551,-0.08258724212646484,0.93464973140213,-0.21206701438205477,-0.24326896125157485,0.14925729653373815
1729788564962571000,1.453571044921875,0.11544840037822723,-0.3451966345310211,-0.08853434771299362,-0.39517995715141296,0.467703640460968,-0.7906239032745361,-0.09630560874938965,0.07401388883590698,-0.16225695610046387,0.9343438256632527,-0.2110800520882587,-0.2452208479454476,0.14937751512628678
1729788564972600800,1.463600830078125,-0.020736072212457657,-0.24522554874420166,-0.0026620528660714626,-0.39770615100860596,0.4670582711696625,-0.7897381782531738,-0.13391000032424927,0.027433335781097412,-0.16561460494995117,0.934081160485563,-0.21053264586382578,-0.24659058566401032,0.1495375642564239
1729788564982632000,1.4736318359375,-0.2901579439640045,-0.2080381214618683,0.06521233916282654,-0.3992978632450104,0.4683864712715149,-0.7881467342376709,-0.13053300976753235,-0.027148067951202393,-0.1198427677154541,0.9336202390016229,-0.21111156812835025,-0.2477065732011028,0.1497546335914474
1729788564992662800,1.483662841796875,-0.4131232798099518,-0.12281537055969238,0.05527821183204651,-0.40034550428390503,0.4716232717037201,-0.7856811881065369,-0.1081840991973877,-0.057255566120147705,-0.014871180057525635,0.9329539033049984,-0.212823150245705,-0.24872817107986303,0.14979181944601871
1729788565002692900,1.49369287109375,-0.17673465609550476,0.03909353166818619,-0.01247500255703926,-0.40053871273994446,0.4741220772266388,-0.7840771675109863,-0.08821550011634827,-0.054429054260253906,-0.006724834442138672,0.9325622499065606,-0.21425443495981566,-0.24911133736412464,0.14955337417241116
1729788565012724000,1.503723876953125,0.08194589614868164,0.20560741424560547,0.054175663739442825,-0.3995014429092407,0.47453439235687256,-0.7843568325042725,-0.076923668384552,-0.007600188255310059,-0.04280686378479004,0.9326617801726749,-0.2145841391908057,-0.24854622944299692,0.14939988096590107
1729788565022754800,1.5137548828125,0.3292299211025238,0.2801874279975891,0.17943717539310455,-0.39691948890686035,0.4734017848968506,-0.7863495945930481,-0.01509830355644226,0.0844595730304718,-0.058926284313201904,0.9331084581067247,-0.21396669431982232,-0.24706975446821675,0.14994454007836627
1729788565032785000,1.523784912109375,0.5039458274841309,0.22968003153800964,0.17848323285579681,-0.3939606249332428,0.4707910418510437,-0.7893990278244019,0.08652660250663757,0.12405762076377869,-0.059950947761535645,0.9337447248517446,-0.21240955616518972,-0.2453215652772671,0.15106385774422773
1729788565042816000,1.53381591796875,0.5067239999771118,0.0963934138417244,0.07777420431375504,-0.39204010367393494,0.4671631157398224,-0.7925043702125549,0.11942660808563232,0.0705718994140625,-0.03195852041244507,0.9344032911116523,-0.21025268907344238,-0.2440115159205633,0.15212702876481737
1729788565052846800,1.543846923828125,0.30789801478385925,0.02521989867091179,0.05174899101257324,-0.3913179636001587,0.4640919864177704,-0.7946627736091614,0.09311547875404358,-0.012904822826385498,0.001892387866973877,0.934862704945326,-0.20842311226169558,-0.24336889456992675,0.15285025975606084
1729788565062877000,1.553876953125,0.098056361079216,0.06673607230186462,0.11449573189020157,-0.39062806963920593,0.4628171920776367,-0.7957448363304138,0.03969123959541321,-0.06799599528312683,0.028578758239746094,0.9350578441027683,-0.20761804106488882,-0.24294509944887138,0.15342443492294813
1729788565072908000,1.563907958984375,-0.05346738547086716,0.17315492033958435,0.20587117969989777,-0.3889089822769165,0.4632842540740967,-0.7963149547576904,-0.02832731604576111,-0.08810114860534668,0.02165675163269043,0.9351041755873782,-0.2078141691413951,-0.2421895831768942,0.1540703561597798
1729788565082939000,1.57393896484375,-0.1493091583251953,0.26549312472343445,0.2827867567539215,-0.3859812915325165,0.4650825560092926,-0.7966910600662231,-0.08112069964408875,-0.07862317562103271,-0.0071419477462768555,0.9350720974577748,-0.2087768975964764,-0.24097027676723912,0.15487313700595517
1729788565092969000,1.583968994140625,-0.16141454875469208,0.29654425382614136,0.30812913179397583,-0.38231322169303894,0.4675283133983612,-0.797028124332428,-0.08776423335075378,-0.042281121015548706,-0.038710951805114746,0.9350129459507847,-0.21012004270031348,-0.2394483324909771,0.15577137136876812
1729788565102999800,1.593999755859375,-0.06289631128311157,0.30372488498687744,0.32269182801246643,-0.3784150779247284,0.4696730673313141,-0.7976272702217102,-0.06837746500968933,0.007530331611633301,-0.036814868450164795,0.9350023536019811,-0.21128528949937778,-0.23779168609649415,0.15679389612161682
1729788565113031000,1.604031005859375,0.11093007773160934,0.3391326665878296,0.3278820514678955,-0.37428298592567444,0.4707396924495697,-0.7989470362663269,-0.044265538454055786,0.051049888134002686,-0.043795883655548096,0.9351502356782317,-0.2118302509892391,-0.23591188337585467,0.1580112495356977
1729788565123061000,1.61406103515625,0.2702644169330597,0.3971000909805298,0.34363117814064026,-0.36979106068611145,0.4704170823097229,-0.8012255430221558,-0.025579363107681274,0.07781597971916199,-0.04096806049346924,0.9355217298667049,-0.21159851272480698,-0.2336949072356256,0.15941098403582712
1729788565133091800,1.624091796875,0.4665029048919678,0.4821641147136688,0.36890512704849243,-0.36452528834342957,0.4687715172767639,-0.8045958876609802,-0.018195629119873047,0.07717272639274597,-0.011962950229644775,0.9361412886768474,-0.2106451773208563,-0.23093433261788,0.16105056159104864
1729788565143123000,1.634123046875,0.4994655251502991,0.507254421710968,0.33686304092407227,-0.3588733971118927,0.4660542607307434,-0.808704674243927,0.015611737966537476,0.04009506106376648,-0.0553547739982605,0.9369423682736802,-0.20913059725474595,-0.22784218702580533,0.16276096758133726
1729788565153153000,1.644153076171875,0.5039481520652771,0.49311965703964233,0.3135550320148468,-0.3532542586326599,0.46313437819480896,-0.8128455877304077,0.023283004760742188,-0.006255686283111572,-0.045644402503967285,0.9377734959257144,-0.20755526413867767,-0.22471763607044878,0.16432784256249566
1729788565163183900,1.654183837890625,0.45861926674842834,0.48442670702934265,0.29087528586387634,-0.3479025959968567,0.46020612120628357,-0.816807210445404,0.023821234703063965,-0.05729776620864868,-0.003291606903076172,0.9385690607421802,-0.20599377457926885,-0.22172718800835692,0.16580587248732365
1729788565173215000,1.664215087890625,0.32970869541168213,0.4907176196575165,0.2439597100019455,-0.3426744341850281,0.4578346312046051,-0.8203424215316772,0.02144646644592285,-0.08240735530853271,0.001204848289489746,0.9392996102144611,-0.20480694693128237,-0.21882162291533394,0.16699552675054052
1729788565183245000,1.6742451171875,0.21226562559604645,0.5306523442268372,0.269233375787735,-0.33732712268829346,0.4565078616142273,-0.8232927918434143,-0.009093105792999268,-0.05155482888221741,0.009221136569976807,0.9399183709035714,-0.20426410715876275,-0.21593929482113206,0.1679284186664703
1729788565193276000,1.68427587890625,0.22252333164215088,0.6056445837020874,0.34038451313972473,-0.3312860429286957,0.4557960629463196,-0.8261352777481079,-0.032330840826034546,-0.00125199556350708,0.01020205020904541,0.9404783684718448,-0.20407702152196672,-0.2128025896350437,0.1690205544543885
1729788565203307000,1.69430712890625,0.31428539752960205,0.7533655166625977,0.41017186641693115,-0.323954313993454,0.4548336863517761,-0.8295661211013794,-0.04657483100891113,0.028702110052108765,-0.017449259757995605,0.9411457222566356,-0.2038029457240448,-0.20900073143942643,0.17037533120483325
1729788565213336800,1.7043369140625,0.5218561291694641,0.9166886806488037,0.46377331018447876,-0.31494036316871643,0.4527706205844879,-0.8341530561447144,-0.06523233652114868,0.03700602054595947,-0.027541279792785645,0.9420640788196825,-0.20301578894286895,-0.20422550250613647,0.17202274561168313
1729788565223368000,1.714367919921875,0.6655470728874207,1.0025814771652222,0.47905078530311584,-0.30470213294029236,0.449191689491272,-0.8398710489273071,-0.05538994073867798,0.025936484336853027,-0.047778427600860596,0.9432386112638828,-0.2014877683320327,-0.19866339742529693,0.17388609346043588
1729788565233399000,1.72439892578125,0.6644061803817749,0.9937672019004822,0.476044625043869,-0.2940540015697479,0.44496655464172363,-0.8458941578865051,-0.03283500671386719,0.012644559144973755,-0.0426708459854126,0.9444778018745877,-0.19966690681147206,-0.19283681789712945,0.175808302895013
1729788565243428900,1.734428955078125,0.5968671441078186,0.9584036469459534,0.4626569151878357,-0.2836769223213196,0.44091230630874634,-0.8515419960021973,-0.011138081550598145,0.00618550181388855,-0.012853145599365234,0.9456237054148795,-0.19796261401855753,-0.18718924323422498,0.17767053715236783
1729788565253460000,1.7444599609375,0.5112161636352539,0.9875122904777527,0.4843699336051941,-0.2732975482940674,0.4375254511833191,-0.8566679358482361,-0.017367064952850342,-0.014032989740371704,0.018472135066986084,0.9466421829177195,-0.19666232603610564,-0.18163141226493912,0.1794506440375607
1729788565263490800,1.75449072265625,0.43747079372406006,1.0731773376464844,0.52339106798172,-0.2622319757938385,0.4347767233848572,-0.8615123629570007,-0.033880025148391724,-0.03603401780128479,0.03906369209289551,0.9475758177312281,-0.1957821692653241,-0.1758213519169354,0.1812630476637108
1729788565273521000,1.76452099609375,0.3376621603965759,1.2093100547790527,0.5635331869125366,-0.24999412894248962,0.43286699056625366,-0.8660998940467834,-0.043233975768089294,-0.06079667806625366,0.06064951419830322,0.9484401487219439,-0.1954795728121234,-0.16952220410058289,0.1830605439484174
1729788565283552000,1.774552001953125,0.34667089581489563,1.3227369785308838,0.6502582430839539,-0.23628702759742737,0.4313831925392151,-0.8706761598587036,-0.05445389449596405,-0.0694294273853302,0.11570179462432861,0.9492750969962667,-0.1955415339483064,-0.16255903736751742,0.1849721153154014
1729788565293582800,1.784582763671875,0.22848567366600037,1.3880244493484497,0.7412813305854797,-0.22138962149620056,0.4304085075855255,-0.8750629425048828,-0.023330792784690857,-0.06361770629882812,0.1524677276611328,0.9499964427285492,-0.19596454543336805,-0.1551336000726144,0.18718466874749454
1729788565303613000,1.794613037109375,0.27055343985557556,1.2539567947387695,0.7478330135345459,-0.206385537981987,0.4299275279045105,-0.8789580464363098,0.04058358073234558,-0.04082837700843811,0.1702026128768921,0.9505317709671176,-0.1966612426641978,-0.14780162249572712,0.18965286733574782
1729788565313644000,1.80464404296875,0.28921791911125183,1.1169253587722778,0.6896796822547913,-0.19283846020698547,0.42879563570022583,-0.8825801014900208,0.08378393948078156,-0.03374555706977844,0.13766127824783325,0.9509893111768368,-0.1969277487020814,-0.14117155728849035,0.19211825394761065
1729788565323675000,1.8146748046875,0.2528219521045685,1.0085421800613403,0.6654611229896545,-0.1805673986673355,0.4277441203594208,-0.8856807351112366,0.07813519239425659,-0.0022985339164733887,0.09733539819717407,0.9513279105186392,-0.19717624504775033,-0.13520783473127818,0.19446202137180243
1729788565333705000,1.824705078125,0.47211170196533203,1.0006192922592163,0.7284784913063049,-0.16870425641536713,0.42581066489219666,-0.8889455199241638,0.04056099057197571,0.03878897428512573,0.07606405019760132,0.9516529692751707,-0.19692499189968754,-0.12941324140252855,0.19705151049696737
1729788565343735800,1.83473583984375,0.6416366100311279,1.105257511138916,0.635005533695221,-0.15655221045017242,0.4219212234020233,-0.8930139541625977,-0.018496572971343994,-0.008072316646575928,-0.08199214935302734,0.952171575632185,-0.19570879823898268,-0.12325219005195402,0.1996901909195941
1729788565353767000,1.844766845703125,0.6430595517158508,1.314452052116394,0.513374388217926,-0.14315751194953918,0.4168393611907959,-0.8976362943649292,-0.10977213084697723,-0.04186984896659851,-0.1745225191116333,0.9529801263820703,-0.19412437722963677,-0.11617911829903312,0.20161111822242417
1729788565363797000,1.854796875,0.565655529499054,1.295527696609497,0.5067311525344849,-0.12919920682907104,0.4121023714542389,-0.9019308090209961,-0.16100765764713287,-0.024422287940979004,-0.0754556655883789,0.9537969934573143,-0.19287016775748633,-0.10879193618766508,0.20306830074778778
1729788565373827800,1.864827880859375,0.5065075159072876,1.1357872486114502,0.5940839052200317,-0.11588650196790695,0.4079561233520508,-0.9056169986724854,-0.09984222054481506,0.012179404497146606,0.011024713516235352,0.954389039787305,-0.1918608878088727,-0.10188675969656881,0.204816925097417
1729788565383859000,1.87485888671875,0.6169986128807068,1.0544626712799072,0.5933887958526611,-0.10357323288917542,0.4034954905509949,-0.9091006517410278,-0.0234714075922966,0.0021747052669525146,0.022473454475402832,0.9548432748836737,-0.19058257559130742,-0.09554033293614286,0.20694142173907304
1729788565393888800,1.884888671875,0.5999594330787659,1.0743769407272339,0.6000059843063354,-0.09140314906835556,0.39850929379463196,-0.9125983715057373,-0.019879162311553955,-0.02295994758605957,0.010102033615112305,0.9553022781472666,-0.18905703946610605,-0.08920900864696658,0.20903741797389866
1729788565403920000,1.894919921875,0.508806586265564,1.0521397590637207,0.7187361121177673,-0.07910823076963425,0.3938075304031372,-0.9157824516296387,-0.04210755228996277,-0.002740025520324707,0.06803464889526367,0.9556187273770387,-0.18770788391195617,-0.08291273259897187,0.2113861401437808
1729788565413951000,1.904950927734375,0.12590929865837097,1.0634095668792725,0.9832209944725037,-0.06596314162015915,0.39157634973526,-0.9177781939506531,-0.023331239819526672,0.04070514440536499,0.09037041664123535,0.9554245597481374,-0.1876995179013276,-0.07667982392435524,0.2145994565854627
1729788565423980800,1.914980712890625,-0.0031717270612716675,0.9647063612937927,0.9232098460197449,-0.05272786319255829,0.3917405605316162,-0.9185636043548584,0.028512202203273773,0.06254410743713379,0.0064084529876708984,0.9547810143682434,-0.18895050488246967,-0.07082306432696193,0.2183459935848863
1729788565434012000,1.925011962890625,-0.10713168233633041,0.8524682521820068,0.669382631778717,-0.04128425568342209,0.39258894324302673,-0.9187870025634766,0.019845694303512573,0.05312028527259827,-0.15909385681152344,0.9541665201372959,-0.19046424506884702,-0.06580180303744337,0.22126856464413183
1729788565444043000,1.93504296875,-0.04280382767319679,0.7100370526313782,0.6134610772132874,-0.03153626620769501,0.3936253488063812,-0.918729841709137,-0.04091242328286171,0.09277907013893127,-0.18351930379867554,0.953637225150485,-0.19196459906830746,-0.06151962025620393,0.2234748853596341
1729788565454072800,1.94507275390625,0.24749964475631714,0.5617956519126892,0.6922733187675476,-0.02315845526754856,0.39300015568733215,-0.9192467331886292,-0.031086500734090805,0.16031405329704285,-0.15028756856918335,0.9531707717954125,-0.19245144989283372,-0.05778472765658417,0.22602836088123537
1729788565464106200,1.955106201171875,0.3493037521839142,0.6499263048171997,0.7100123763084412,-0.014978897757828236,0.3900858759880066,-0.9206566214561462,-0.014195868745446205,0.1454518735408783,-0.08614873886108398,0.9528541999387834,-0.1917397248678444,-0.05392173657741672,0.22890459636325008
1729788565474137300,1.965137451171875,0.4633059799671173,0.8037676811218262,0.8112455010414124,-0.005205393768846989,0.3867146372795105,-0.9221847653388977,-0.0804879292845726,0.1427501142024994,0.1039932370185852,0.9525287858891562,-0.19100642928839,-0.04923588726983386,0.23190791687094783
1729788565484167200,1.975167236328125,0.854664146900177,0.869913637638092,0.9224061369895935,0.005811707582324743,0.380570650100708,-0.924733579158783,-0.1155681386590004,0.16685369610786438,0.28543609380722046,0.9523382316595316,-0.18901322846289045,-0.043671563328582616,0.23541184665106066
1729788565494198300,1.9851982421875,1.0912715196609497,1.029305100440979,0.9596840143203735,0.018250342458486557,0.3714388608932495,-0.9282780289649963,-0.10942156612873077,0.1549588441848755,0.23353010416030884,0.9523152937163633,-0.1857061569966795,-0.037070381961376485,0.23923742325210012
1729788565504229400,1.9952294921875,1.5976632833480835,0.8850760459899902,0.9041872024536133,0.031116602942347527,0.3588557243347168,-0.9328742027282715,-0.10615929216146469,0.1820225715637207,0.11158519983291626,0.9525592070469399,-0.18076390868658385,-0.029787553658604398,0.2430391662312516
1729788565514259200,2.00525927734375,1.9486114978790283,0.7331666350364685,0.7052072286605835,0.04141192510724068,0.3417072892189026,-0.9388936161994934,-0.03958083316683769,0.1323375105857849,-0.1750285029411316,0.9532587616915477,-0.17326479759948107,-0.023076224986471355,0.24646423710652057
1729788565524290300,2.015290283203125,1.992361068725586,0.6069038510322571,0.4386833906173706,0.04961089417338371,0.3219568729400635,-0.9454536437988281,0.04970859736204147,0.08029535412788391,-0.3422508239746094,0.9543747051854632,-0.16428563812730776,-0.016835069731514343,0.24878870794092742
1729788565534321400,2.0253212890625,1.913010835647583,0.5108974575996399,0.41812193393707275,0.0563138872385025,0.30345118045806885,-0.9511814117431641,0.08049644529819489,0.11320528388023376,-0.20500749349594116,0.9554383269724878,-0.1558199926122042,-0.011376061054383858,0.25045610050793954
1729788565544351000,2.03535107421875,1.9812873601913452,0.3854832649230957,0.5841564536094666,0.06205042079091072,0.2847142815589905,-0.9566020965576172,0.10787148773670197,0.1325678527355194,0.09187126159667969,0.9563005102116765,-0.1471655107373454,-0.006424746614894199,0.25256732329248327
1729788565554382300,2.04538232421875,2.242619276046753,0.36365121603012085,0.6112610101699829,0.06731536239385605,0.2638671100139618,-0.9622072577476501,0.12009312212467194,0.0844910740852356,0.13672202825546265,0.9570384196519822,-0.13745590075819208,-0.00150007538668527,0.25530594965223163
1729788565564413200,2.0554130859375,2.52561354637146,0.34403136372566223,0.4272938668727875,0.07225161045789719,0.2408156841993332,-0.9678778052330017,0.0647570937871933,0.022810444235801697,0.21650457382202148,0.9579039207851879,-0.12667986354067434,0.0036462959729356304,0.2576021319882308
1729788565574443000,2.065443115234375,3.0535383224487305,0.30966541171073914,0.08538684993982315,0.07584324479103088,0.21305470168590546,-0.9740921258926392,-0.007209181785583496,0.05040356516838074,0.29586952924728394,0.9592589076679153,-0.11346323446100463,0.0089457264610822,0.25858908646502954
1729788565584474000,2.07547412109375,3.286484718322754,0.42738986015319824,-0.1308080404996872,0.07936292141675949,0.18197479844093323,-0.9800952672958374,-0.013826392590999603,0.09765779972076416,0.1297534704208374,0.9609899443880355,-0.09865626916541322,0.014809324179151716,0.2579648573768047
1729788565594505200,2.085505126953125,3.431837320327759,0.6675524115562439,0.10084117203950882,0.08452816307544708,0.14878465235233307,-0.9852502942085266,0.008947208523750305,0.13309098780155182,0.2563074231147766,0.9625221120192631,-0.0830893632319557,0.02170294678161717,0.25724732882414986
1729788565604535000,2.09553515625,3.23378849029541,0.8752006888389587,0.4355081021785736,0.0927528664469719,0.11526589095592499,-0.9889947772026062,0.10577927529811859,0.0744619220495224,0.0510675311088562,0.9633190974992532,-0.06785288455920206,0.0299765709270838,0.2579024989095075
1729788565614566100,2.105566162109375,1.941197395324707,0.8703097701072693,0.49048295617103577,0.10222773998975754,0.08858431130647659,-0.99080890417099,0.09915778785943985,-0.0360177606344223,-0.004613399505615234,0.9633660807816751,-0.05619084687284982,0.0379226996546937,0.2594804503904445
1729788565624597200,2.11559716796875,0.5811002254486084,0.4092099070549011,0.4396056532859802,0.10902950912714005,0.0759950503706932,-0.9911293387413025,-0.01183098554611206,-0.12441115081310272,-0.06281048059463501,0.9629486945899383,-0.051062602927894586,0.04275457088738691,0.26133208396422064
1729788565634627000,2.125626953125,-0.04650002717971802,-0.010736504569649696,0.2734489142894745,0.11107521504163742,0.07320944219827652,-0.9911118149757385,-0.035956159234046936,-0.30672991275787354,-0.0217818021774292,0.9624986173905951,-0.05005909728870259,0.04402462395831287,0.2629685325011177
1729788565644658200,2.135658203125,-0.3878867030143738,-0.03719943016767502,0.07303430885076523,0.11088582128286362,0.0754644125699997,-0.990963876247406,0.020339801907539368,-0.4697667360305786,0.16026020050048828,0.9622185522905417,-0.051166469187776016,0.043589465257300876,0.26385086653715356
1729788565654689300,2.145689208984375,-0.33885499835014343,0.13322262465953827,0.09791488945484161,0.11133983731269836,0.0790342390537262,-0.9906346797943115,0.04741264134645462,-0.2679227590560913,0.22581839561462402,0.9620315456326428,-0.0529739206659283,0.04331782380996091,0.2642206519425432
1729788565664719000,2.155718994140625,-0.39460501074790955,0.3073764443397522,0.27960506081581116,0.11368589848279953,0.08231157064437866,-0.990101158618927,0.08383916318416595,-0.008809946477413177,0.052997887134552,0.9616339067635105,-0.054921205595259204,0.043966778843606925,0.2651617681987239
1729788565674750200,2.165750244140625,-0.5316246151924133,0.31364232301712036,0.28000906109809875,0.11719486862421036,0.08648126572370529,-0.9893363118171692,0.10730772465467453,0.06928049027919769,-0.02499169111251831,0.9610376781882569,-0.057484358164921076,0.045026535537765366,0.26659841320963046
1729788565684781300,2.17578125,-0.9687342047691345,0.3731875717639923,0.03886435180902481,0.12056814134120941,0.0933423563838005,-0.9883068799972534,0.036673709750175476,-0.008213549852371216,0.1114606261253357,0.9605392104637183,-0.06130960693368129,0.045691167274837394,0.2674281021814612
1729788565694811100,2.18581103515625,-1.372856616973877,0.4274795651435852,0.0354166254401207,0.12461738288402557,0.1050933450460434,-0.9866234660148621,-0.06889225542545319,-0.03590996563434601,0.19023680686950684,0.9600470588012573,-0.06757438759923705,0.04606474642798764,0.26762159973962085
1729788565704842000,2.195842041015625,-1.5077871084213257,0.4751443862915039,0.15330304205417633,0.12926819920539856,0.11904355883598328,-0.9844381213188171,-0.06640195846557617,-0.02041071653366089,0.26358240842819214,0.9592883850174035,-0.07502362867280096,0.046394054382426386,0.2682997905971299
1729788565714873300,2.205873291015625,-1.7956452369689941,0.39835691452026367,0.09275634586811066,0.1337519735097885,0.13535115122795105,-0.9817283153533936,0.009985849261283875,-0.07320207357406616,-0.09661030769348145,0.9583434739585115,-0.08362008754597056,0.046298222020215836,0.26915052136977996
1729788565724903200,2.215903076171875,-1.655349850654602,0.28276926279067993,-0.017124881967902184,0.13720998167991638,0.1525130569934845,-0.9787303805351257,-0.039675772190093994,-0.0810256153345108,0.05748105049133301,0.9574382003874271,-0.09248955180579312,0.045612344523631235,0.26958707416546
1729788565734934000,2.22593408203125,-1.4284230470657349,0.2078888863325119,-0.07615970820188522,0.13950635492801666,0.16742470860481262,-0.9759646058082581,-0.08144663274288177,-0.11902381479740143,0.10189545154571533,0.9567216652508523,-0.1000954369010648,0.04470563372541948,0.2695659948464238
1729788565744965400,2.23596533203125,-1.4373598098754883,0.08029966056346893,-0.0749458372592926,0.14085039496421814,0.18166907131671906,-0.97322016954422,-0.12688858807086945,-0.15855199098587036,-0.06304991245269775,0.9560384574094065,-0.10725312837588263,0.04343592635297791,0.26944465916896004
1729788565754995200,2.2459951171875,-1.0523662567138672,-0.036602187901735306,-0.16550210118293762,0.1407572627067566,0.19406631588935852,-0.9708375930786133,-0.1846567839384079,-0.16580702364444733,-0.20639318227767944,0.9554952843600748,-0.11331009699440661,0.04173751203022349,0.26916082358918836
1729788565765026000,2.256026123046875,-0.8076634407043457,0.017579395323991776,-0.26580074429512024,0.14010603725910187,0.20324736833572388,-0.9690514802932739,-0.22494488954544067,-0.23881559073925018,-0.2119176983833313,0.9552706388875886,-0.11769443171981381,0.04027745297767781,0.26829777009635863
1729788565775056100,2.26605615234375,-0.7907273173332214,0.1646636575460434,-0.2565087080001831,0.14049440622329712,0.211226224899292,-0.9672873616218567,-0.26627254486083984,-0.2222735583782196,-0.2079445719718933,0.9551364094305475,-0.12162943341426936,0.039529850234781116,0.26712942976358256
1729788565785087200,2.276087158203125,-1.0370419025421143,0.17501051723957062,-0.18750594556331635,0.14164625108242035,0.2202562689781189,-0.9651028513908386,-0.24192699790000916,-0.1776079386472702,-0.0759432315826416,0.9548464272289228,-0.1262049839241857,0.03899844317403299,0.2661194592260377
1729788565795118000,2.2861181640625,-1.2803221940994263,-0.17555390298366547,-0.178717240691185,0.14152264595031738,0.23176532983779907,-0.9624220132827759,-0.1723606139421463,-0.24404864013195038,-0.022044479846954346,0.9543155437628326,-0.13185350291204972,0.037465131211077245,0.2655049950361826
1729788565805148200,2.296148193359375,-1.4401805400848389,-0.5899826884269714,-0.3340149521827698,0.13718277215957642,0.24530266225337982,-0.9596913456916809,-0.08962111175060272,-0.40178152918815613,-0.17214453220367432,0.9537890911105346,-0.13792803418924268,0.03361821024408895,0.2648243897445845
1729788565815179000,2.306178955078125,-1.3659038543701172,-0.7232443690299988,-0.6102142930030823,0.1293659210205078,0.25935831665992737,-0.95707768201828,-0.04634280502796173,-0.4092148542404175,-0.4083092212677002,0.9535249866401982,-0.14376904015383365,0.028135617661122554,0.263303857316866
1729788565825210000,2.316210205078125,-1.225818157196045,-0.3875260651111603,-0.8195409178733826,0.12185888737440109,0.2729503810405731,-0.9542790651321411,-0.007662080228328705,-0.10780447721481323,-0.2906397581100464,0.9535888618027302,-0.14942309478753368,0.023091489018767612,0.2603992166987968
1729788565835240200,2.326240234375,-0.7567311525344849,0.10723786056041718,-0.5982607007026672,0.11849381774663925,0.2833273708820343,-0.95167475938797,0.06572557240724564,0.3110177516937256,0.24601680040359497,0.9538075681053654,-0.1540737280132638,0.020589170700640223,0.2570769467935446
1729788565845271000,2.33627099609375,-0.3817254304885864,0.2827599048614502,0.05184353515505791,0.11988604068756104,0.2889895737171173,-0.9497959613800049,0.26648178696632385,0.5366940498352051,0.4381840229034424,0.9537189469649708,-0.15707008075406126,0.020760817286712585,0.25557403817647467
1729788565855302100,2.34630224609375,-0.21660570800304413,-0.2084665149450302,0.49087125062942505,0.12143013626337051,0.29122859239578247,-0.9489154815673828,0.509871780872345,0.4974524676799774,0.1873646378517151,0.9530928280824038,-0.15843725099292771,0.020973439611007883,0.25704455979182267
1729788565865332200,2.356332275390625,-0.5757856369018555,-0.5745643377304077,0.25019603967666626,0.11862360686063766,0.2941955626010895,-0.9483550786972046,0.572004497051239,0.1683136224746704,-0.13096004724502563,0.9523182021474011,-0.15958795635094025,0.018818410465943253,0.2593597224140546
1729788565875363000,2.366363037109375,-1.133227825164795,-0.6125559210777283,-0.19241096079349518,0.11294732242822647,0.30246248841285706,-0.946445643901825,0.285780131816864,-0.16942107677459717,-0.25419217348098755,0.951643113342495,-0.1629648651151745,0.014819971647039205,0.2599967668487139
1729788565885394200,2.376394287109375,-1.310792326927185,-0.5180493593215942,-0.352115660905838,0.10657748579978943,0.31441959738731384,-0.9432823061943054,-0.07348114252090454,-0.34896549582481384,-0.3118903636932373,0.9510338402047163,-0.16809021865357138,0.010223210929347177,0.2591829871452474
1729788565895424000,2.386424072265625,-1.4595890045166016,-0.144708514213562,-0.3005342185497284,0.10230771452188492,0.3279942572116852,-0.9391234517097473,-0.20721185207366943,-0.4173497259616852,-0.3216644525527954,0.9502856895850028,-0.17434406835903915,0.006512040378311437,0.2579127460455051
1729788565905455000,2.396455078125,-1.1508995294570923,-0.016804302111268044,-0.1638120710849762,0.10102210938930511,0.34073930978775024,-0.9347145557403564,-0.17592746019363403,-0.25748732686042786,-0.043907880783081055,0.9493990420673158,-0.18062115236210854,0.004328103462050675,0.2569021159341731
1729788565915486200,2.406486328125,-0.7218398451805115,-0.07020388543605804,-0.12204064428806305,0.10019274055957794,0.3495996296405792,-0.9315264225006104,-0.034427329897880554,-0.062322407960891724,0.19242125749588013,0.9487143366026133,-0.18501038204940856,0.0028174108162735503,0.2563286033363411
1729788565925516000,2.41651611328125,-0.35827162861824036,-0.08612708002328873,-0.16055741906166077,0.09889228641986847,0.3547746241092682,-0.9297071099281311,0.05467219650745392,0.0499190092086792,0.2084699273109436,0.9483909166449157,-0.18746716982155945,0.0015830074353588761,0.25575056234099675
1729788565935547100,2.426547119140625,-0.15184363722801208,0.0007700030691921711,-0.1391541212797165,0.09796035289764404,0.35719388723373413,-0.9288790225982666,0.020280025899410248,0.10853484272956848,0.24266082048416138,0.9483598432497238,-0.18857256510696985,0.0009319568512189983,0.2550548464041311
1729788565945578000,2.436577880859375,-0.07287504523992538,0.06035120040178299,-0.171039879322052,0.09768879413604736,0.3582805395126343,-0.928489089012146,-0.02208145707845688,0.07560315728187561,0.177939772605896,0.9484543314397902,-0.18908948369174503,0.0007961142127119633,0.254320424037817
1729788565955608000,2.446608154296875,-0.2518623471260071,0.08346451073884964,-0.2239270657300949,0.09770554304122925,0.3598434329032898,-0.927882730960846,-0.027270935475826263,-0.025370746850967407,0.08564335107803345,0.9485741204653849,-0.1898894456561276,0.000799542067329441,0.25327550523324377
1729788565965639200,2.45663916015625,-0.39569932222366333,-0.008950215764343739,-0.20782825350761414,0.09733203798532486,0.36317744851112366,-0.9266221523284912,-0.029155738651752472,-0.08755791187286377,0.08075118064880371,0.9485277426955486,-0.1915431581375543,0.00037776474948402703,0.2522026880192349
1729788565975670000,2.466669921875,-0.4903824031352997,-0.05622585490345955,-0.15795977413654327,0.09621595591306686,0.3676559329032898,-0.9249711632728577,0.022314347326755524,-0.10338893532752991,-0.008958280086517334,0.9483240782393473,-0.19368549281194836,-0.0006021953727828444,0.2513304142364707
1729788565985700000,2.4767001953125,-0.06128263100981712,0.003585017751902342,-0.028701111674308777,0.09552536904811859,0.3703530430793762,-0.9239661693572998,0.029779836535453796,-0.023749619722366333,-0.05485457181930542,0.9481774162749785,-0.194975444911401,-0.001216524989125371,0.2508837309696043
1729788565995731200,2.486731201171875,0.5702122449874878,0.044532716274261475,-0.056667495518922806,0.09583386033773422,0.36794015765190125,-0.9248977899551392,0.009451821446418762,0.07824212312698364,-0.13325345516204834,0.9484462194546276,-0.19377975581949064,-0.0007193193683690658,0.25079588401950026
1729788566005762000,2.496761962890625,0.9524580836296082,0.2554819881916046,-0.15659330785274506,0.09662927687168121,0.36093929409980774,-0.9275697469711304,-0.07967673242092133,0.10735297203063965,-0.10110151767730713,0.9493492161301604,-0.1903011922970003,0.0007704350199341416,0.2500416675555744
1729788566015792000,2.506792236328125,0.9894179701805115,0.28615841269493103,-0.13525685667991638,0.0987698882818222,0.35141146183013916,-0.9309964776039124,-0.20198029279708862,0.17948758602142334,-0.04341447353363037,0.9505016614609544,-0.1857173733476557,0.0032877330605333016,0.24908788052266614
1729788566025823200,2.5168232421875,0.4536501467227936,0.2697470188140869,-0.07345819473266602,0.10114692896604538,0.34476110339164734,-0.9332250952720642,-0.1212579756975174,0.18824368715286255,0.02106994390487671,0.9512976328526912,-0.1826397047189708,0.005494384716774379,0.24828483293550727
1729788566035854000,2.52685400390625,-0.13672766089439392,0.03891381993889809,0.02303505316376686,0.10250751674175262,0.34330135583877563,-0.9336146712303162,-0.022978678345680237,0.14089056849479675,0.10823631286621094,0.9514672577833592,-0.18207589941195584,0.006404868664269013,0.24802697745274832
1729788566045884200,2.53688427734375,-0.5951993465423584,-0.12339477241039276,0.10440527647733688,0.10229193419218063,0.34681057929992676,-0.9323405027389526,0.08546749502420425,-0.02636072039604187,0.03869426250457764,0.951038494678071,-0.18383829832579837,0.005765248879149963,0.2483867352227196
1729788566055915000,2.5469150390625,-0.6938090324401855,-0.15638893842697144,0.1908312439918518,0.10144634544849396,0.35299310088157654,-0.9301099181175232,0.10621054470539093,-0.10676202178001404,-0.03293323516845703,0.9502204080331897,-0.18688517188166862,0.004354900698728296,0.249271018288393
1729788566065946000,2.556946044921875,-0.3190837502479553,-0.09590503573417664,0.1546841561794281,0.1008942499756813,0.35766518115997314,-0.9283835291862488,0.05787348002195358,-0.023543447256088257,-0.17713099718093872,0.9495101857023589,-0.18920248018452837,0.003265176064619805,0.2502441215265728
1729788566075976200,2.56697607421875,0.01590942218899727,0.07655301690101624,0.21294932067394257,0.10139477998018265,0.3588589131832123,-0.9278681874275208,-0.05006418377161026,0.09711951017379761,-0.3124881982803345,0.9491489762419882,-0.18988361566313808,0.0031795859191209,0.25109850004277706
1729788566086007000,2.577007080078125,0.483320951461792,0.2489335834980011,0.2079567015171051,0.10373374074697495,0.3564704358577728,-0.9285300970077515,-0.12089984863996506,0.22597283124923706,-0.28375017642974854,0.9490881604949079,-0.18898395936002027,0.004473379432266599,0.2519856208321756
1729788566096038100,2.5870380859375,0.8505067229270935,0.3266070485115051,0.19780099391937256,0.10727634280920029,0.34984251856803894,-0.9306460022926331,-0.1397470235824585,0.30280643701553345,-0.29063689708709717,0.9494729051217284,-0.1860867753457989,0.006978819938916374,0.2526346761328355
1729788566106068200,2.597068115234375,1.0021528005599976,0.12170654535293579,0.26271769404411316,0.11034423112869263,0.3408384323120117,-0.933623731136322,-0.21150997281074524,0.31739524006843567,-0.0312504768371582,0.9500352742471951,-0.1819263082412832,0.009536571199161882,0.25346546641348366
1729788566116099000,2.60709912109375,1.206164836883545,-0.10465442389249802,0.3222755491733551,0.1112683042883873,0.33023801445961,-0.9373164772987366,-0.19244502484798431,0.3710101842880249,0.26069605350494385,0.9506583117382168,-0.17668315005947416,0.01117208229426252,0.2547685994171098
1729788566126130200,2.617130126953125,1.4104429483413696,-0.13544556498527527,0.42125168442726135,0.11115841567516327,0.31755876541137695,-0.9417006969451904,-0.10928156226873398,0.40802717208862305,0.2663772702217102,0.9513224081756445,-0.17027464226680145,0.012497598700717389,0.2565852590727648
1729788566136160300,2.62716015625,1.877400517463684,0.03824206441640854,0.5702009201049805,0.11232124269008636,0.3013898432254791,-0.9468622207641602,0.00485103577375412,0.3563707768917084,0.12510019540786743,0.9520521105857579,-0.1623219761358594,0.014847767167081714,0.2588976183284034
1729788566146191000,2.637191162109375,1.6841412782669067,0.08511663228273392,0.398373007774353,0.11441643536090851,0.28321167826652527,-0.9522079825401306,0.11353464424610138,0.05806642770767212,-0.014283716678619385,0.9528433157295928,-0.15353638555765606,0.017960895331869283,0.26113874370723433
1729788566156222200,2.64722216796875,0.7513483762741089,0.01754211261868477,0.05023312196135521,0.11565910279750824,0.2711387574672699,-0.9555661678314209,0.20950572192668915,-0.3347678780555725,0.13030987977981567,0.9534913935658024,-0.14769618730018713,0.020068432653421172,0.26198695171364544
1729788566166252000,2.657251953125,0.08311735093593597,-0.26663386821746826,-0.12478343397378922,0.11444371193647385,0.26763448119163513,-0.956699788570404,0.24836455285549164,-0.45604997873306274,0.32817500829696655,0.9538284518508401,-0.14577787310677429,0.01997327799788181,0.26184202728522876
1729788566176283100,2.667283203125,-0.0326654352247715,-0.3698164224624634,-0.33489006757736206,0.11048296838998795,0.2677309811115265,-0.9571382403373718,0.28732895851135254,-0.4244082272052765,0.2902529239654541,0.9541794852504648,-0.1452617199581497,0.018163347251733276,0.2609799028339861
1729788566186314000,2.67731396484375,-0.0767548680305481,-0.33623677492141724,-0.2521935999393463,0.10636261105537415,0.26868292689323425,-0.9573382139205933,0.17024874687194824,-0.21860358119010925,0.025194108486175537,0.9545798798898119,-0.14514719040441562,0.01622278302556426,0.2597043870511006
1729788566196344000,2.687343994140625,0.01631622202694416,-0.38905391097068787,0.05169279873371124,0.10261587798595428,0.2691458463668823,-0.9576171040534973,0.008895382285118103,0.08481231331825256,-0.07364815473556519,0.9547099164383778,-0.14486208341908582,0.014367717104804865,0.25949466300880475
1729788566206375200,2.697375244140625,0.014569519087672234,-0.4111349880695343,0.14787419140338898,0.09906598925590515,0.26871994137763977,-0.9581103920936584,-0.03185098618268967,0.16412615776062012,-0.06277889013290405,0.9546088145472781,-0.14417641322812916,0.012568549297072552,0.26034041553531345
1729788566216406000,2.707406005859375,-0.21058078110218048,-0.36520424485206604,0.053941305726766586,0.09564215689897537,0.2694217264652252,-0.9582611918449402,-0.10643009096384048,0.05522429943084717,-0.015417397022247314,0.954431472142324,-0.1440665889083283,0.010687327174374857,0.26113450611735234
1729788566226436000,2.71743603515625,-0.5730696320533752,-0.40553706884384155,-0.05972453951835632,0.0919969454407692,0.27314502000808716,-0.9575637578964233,-0.1473710536956787,-0.11521652340888977,0.07790982723236084,0.954174121882115,-0.1454238948817402,0.008367037573841099,0.26140724877024735
1729788566236467200,2.72746728515625,-0.9126615524291992,-0.5115340948104858,-0.11528660356998444,0.08734653890132904,0.2803885340690613,-0.9559041857719421,-0.07350678741931915,-0.2497183382511139,0.10289216041564941,0.9537570839367713,-0.14839675829239454,0.005128147680519287,0.26134171686137875
1729788566246498000,2.737498046875,-0.9673779606819153,-0.5271801948547363,-0.20490890741348267,0.08183259516954422,0.2898946702480316,-0.9535536170005798,0.017319053411483765,-0.2718282639980316,0.11050552129745483,0.9532323813117137,-0.1523868666392445,0.0011982660305307079,0.26100720678383965
1729788566256528100,2.747528076171875,-0.6026082634925842,-0.3441515564918518,-0.3999180495738983,0.07680404186248779,0.29775646328926086,-0.9515472650527954,0.029931217432022095,-0.19628551602363586,0.07279366254806519,0.9529989342859388,-0.15563329158911646,-0.0021538729921907304,0.25993576245728106
1729788566266559200,2.757559326171875,-0.25961169600486755,-0.23155255615711212,-0.5466089844703674,0.07254849374294281,0.3020852506160736,-0.9505162835121155,-0.06137903779745102,-0.091941237449646,0.049896836280822754,0.9533045851606037,-0.15723188053666953,-0.004471267673576362,0.2578149418411087
1729788566276590000,2.767590087890625,0.08790924400091171,-0.14427252113819122,-0.3773192763328552,0.06938769668340683,0.3033141791820526,-0.950360894203186,-0.17114852368831635,0.029785215854644775,0.1679818034172058,0.953837998639833,-0.15743433568626694,-0.00582844828254709,0.2556827526179917
1729788566286620200,2.7776201171875,0.30822497606277466,-0.02698167786002159,-0.17497549951076508,0.06766920536756516,0.3014667332172394,-0.9510723948478699,-0.12255503237247467,0.09730648994445801,0.15306824445724487,0.9543444697073845,-0.15628530241233998,-0.0062217887183086094,0.25448543071690316
1729788566296651000,2.787651123046875,0.3790118098258972,0.0938267633318901,-0.03625383600592613,0.06778500229120255,0.2980360984802246,-0.9521448016166687,-0.05415886640548706,0.06614544987678528,0.1204797625541687,0.9547761598233735,-0.154583644833697,-0.005613069039064837,0.2539189995564867
1729788566306682000,2.79768212890625,0.031058749184012413,0.009038745425641537,0.11281740665435791,0.06850714981555939,0.2959713935852051,-0.9527369737625122,-0.006159700453281403,0.05134919285774231,0.09539139270782471,0.9548795246217288,-0.15364362780267926,-0.005015625415482215,0.254113321405488
1729788566316712200,2.807712158203125,-0.32680031657218933,-0.14906726777553558,-0.004895646125078201,0.06810378283262253,0.29730674624443054,-0.9523500204086304,0.13518908619880676,0.025370866060256958,-0.12626320123672485,0.9546763865279733,-0.15425710526345152,-0.005452970889289461,0.2544953259937302
1729788566326743000,2.817742919921875,-0.6217359900474548,-0.31076064705848694,-0.24367094039916992,0.06547179073095322,0.3019483685493469,-0.951073408126831,0.15994632244110107,-0.06671887636184692,-0.15766066312789917,0.9544589548455681,-0.15623752789871437,-0.007289219391627337,0.25405647324954495
1729788566336774100,2.827774169921875,-0.8753805160522461,-0.3824004828929901,-0.30467355251312256,0.061251092702150345,0.3092820346355438,-0.9489957690238953,0.08450089395046234,-0.14135903120040894,-0.056695759296417236,0.9542180170006325,-0.1593712080915287,-0.010146262203201915,0.25291451757871014
1729788566346804200,2.83780419921875,-0.9786997437477112,-0.40716010332107544,-0.2035168707370758,0.056680694222450256,0.3184066414833069,-0.9462581872940063,0.04300500825047493,-0.14006191492080688,-0.023697257041931152,0.9537536601908444,-0.1633712805881767,-0.013444165586102787,0.2519584201039537
1729788566356835000,2.8478349609375,-0.8544550538063049,-0.38359591364860535,-0.17679816484451294,0.052314452826976776,0.32728227972984314,-0.9434773325920105,0.03232608363032341,-0.10400041937828064,0.0014760494232177734,0.953184784347548,-0.16728252177163502,-0.016669845851031404,0.2513512467190356
1729788566366866200,2.8578662109375,-0.6304958462715149,-0.304819256067276,-0.2662025988101959,0.04830562323331833,0.33434832096099854,-0.9412108063697815,-0.011440351605415344,-0.05039748549461365,0.015322744846343994,0.9528077136915001,-0.17034285950118527,-0.019439800353288524,0.25052534749981026
1729788566376896300,2.867896240234375,-0.4008519649505615,-0.18712857365608215,-0.29839757084846497,0.04504973441362381,0.3394721746444702,-0.9395366907119751,-0.06882289052009583,0.029988914728164673,0.0376049280166626,0.9526891475080121,-0.17253731675461398,-0.021506613959368887,0.2493025068019408
1729788566386927000,2.877927001953125,-0.1329066902399063,-0.13545319437980652,-0.20711825788021088,0.042680371552705765,0.3420414328575134,-0.9387151002883911,-0.07127530872821808,0.08988913893699646,0.09173023700714111,0.9527657709349525,-0.17355719527928853,-0.02281123586524578,0.24818302937794093
1729788566396958200,2.887958251953125,0.050432510673999786,-0.06487462669610977,-0.17352168262004852,0.04111810028553009,0.34243515133857727,-0.9386413097381592,-0.016856588423252106,0.08407855033874512,0.06699824333190918,0.9529482907888975,-0.17357305236191692,-0.023489356200746467,0.2474070236293421
1729788566406988000,2.897988037109375,0.0861726626753807,-0.03568238765001297,-0.18930970132350922,0.04008732736110687,0.34181562066078186,-0.9389116764068604,0.024381093680858612,0.05648458003997803,-0.0014722347259521484,0.9532407057283289,-0.17314669283831158,-0.02375694750731959,0.2465525181975607
1729788566417019100,2.90801904296875,-0.06589356809854507,-0.17831677198410034,0.007701638154685497,0.03886217623949051,0.3414834141731262,-0.939083993434906,0.019533246755599976,0.04367893934249878,0.03995990753173828,0.9533953209712386,-0.172830990850197,-0.02423713246484589,0.24612864325831582
1729788566427050200,2.91805029296875,-0.38497546315193176,-0.3684867024421692,0.05805215984582901,0.036320336163043976,0.34373724460601807,-0.9383631944656372,0.09357777237892151,0.03599300980567932,-0.05576211214065552,0.9530737915365396,-0.17363365551199483,-0.0258794565842778,0.24664112014241552
1729788566437080000,2.928080078125,-0.5505724549293518,-0.31561657786369324,-0.18101422488689423,0.032885290682315826,0.34815940260887146,-0.9368583559989929,0.12075549364089966,-0.006988108158111572,-0.17858964204788208,0.9526862912091286,-0.17543699735487406,-0.028154527632100246,0.24661318927942108
1729788566447111200,2.938111083984375,-0.5477744340896606,-0.2428409606218338,-0.29930198192596436,0.029327314347028732,0.3535563349723816,-0.9349533915519714,-0.027618292719125748,-0.05230206251144409,-0.13079673051834106,0.9524607617955323,-0.17775617075164904,-0.030431172232483567,0.24555071365782508
1729788566457142000,2.94814208984375,-0.3278316259384155,-0.16752861440181732,-0.17163483798503876,0.026598209515213966,0.35779085755348206,-0.933422863483429,-0.08673305809497833,-0.04150664806365967,-0.07719725370407104,0.9523311306472635,-0.1795977968829927,-0.032143504470579905,0.2444927794759544
1729788566467171600,2.958171630859375,-0.0980403870344162,-0.08105386793613434,-0.10271994024515152,0.02490611933171749,0.359786719083786,-0.9327021241188049,-0.04535285755991936,-0.01249668002128601,-0.09761708974838257,0.9522711143356225,-0.18041648812507677,-0.03314879820992386,0.24398935526947121
1729788566477202700,2.96820263671875,0.03188645839691162,0.07629954069852829,-0.1554657220840454,0.02446611225605011,0.3600209951400757,-0.9326233267784119,-0.039541758596897125,-0.007832884788513184,-0.028787195682525635,0.9524062405500551,-0.18050119640373083,-0.033281381626689185,0.24338039129759936
1729788566487233500,2.978233642578125,0.08745750784873962,0.11002693325281143,-0.1453009694814682,0.02489554136991501,0.359488844871521,-0.9328172206878662,-0.05069812014698982,-0.013236403465270996,0.051393330097198486,0.9526665115216532,-0.18031277642690463,-0.032843394504000534,0.24255947832045696
1729788566497263600,2.988263671875,0.06304164975881577,-0.0046152276918292046,-0.12115354835987091,0.02497141622006893,0.35872042179107666,-0.9331109523773193,0.013099297881126404,-0.03920137882232666,0.12605834007263184,0.9529123831025572,-0.17995327482881468,-0.03257818501447947,0.24189537199767935
1729788566507294700,2.998294677734375,-0.06944955140352249,-0.09441531449556351,-0.13798180222511292,0.02401045709848404,0.3588143289089203,-0.9331001043319702,0.07221150398254395,-0.0707893967628479,0.16309583187103271,0.9530472995828349,-0.17989859775180664,-0.0329613165390007,0.24135220110646316
1729788566517325600,3.00832568359375,-0.13065271079540253,-0.1164788007736206,-0.22405889630317688,0.022356322035193443,0.35984376072883606,-0.9327446818351746,0.08244107663631439,-0.07509949803352356,0.10501641035079956,0.9531480041089487,-0.18024262054659312,-0.03376762277662703,0.24058518144373717
1729788566527355600,3.018355712890625,-0.10893690586090088,-0.04600394517183304,-0.2843342125415802,0.020610446110367775,0.3610026240348816,-0.9323370456695557,0.04831354320049286,-0.060755401849746704,0.008661508560180664,0.9533405503588358,-0.18065817458484465,-0.0345559420302572,0.239395773424718
1729788566537386800,3.02838671875,-0.008383666165173054,0.022364724427461624,-0.2534671127796173,0.019545795395970345,0.3617636561393738,-0.9320648908615112,-0.00193711556494236,-0.010658890008926392,-0.0778990387916565,0.9536010981003591,-0.1809626054772462,-0.034929580529137555,0.23807008917146494
1729788566547416600,3.03841650390625,0.1179070919752121,0.046762898564338684,-0.16721771657466888,0.01907007023692131,0.36119797825813293,-0.9322941303253174,-0.031887415796518326,0.034630268812179565,-0.08629101514816284,0.9539169750328345,-0.18065224923167458,-0.034895468772219086,0.2370433518807055
1729788566557447700,3.04844775390625,0.10527492314577103,0.09563270956277847,-0.07481613755226135,0.019341379404067993,0.36008965969085693,-0.9327172040939331,-0.04839407652616501,0.047960907220840454,-0.032034993171691895,0.954178398596142,-0.18014160074559757,-0.03450229885789279,0.23643643709644735
1729788566567478800,3.058478759765625,0.14418283104896545,0.15967443585395813,-0.04352719336748123,0.02036922611296177,0.3591521084308624,-0.9330567121505737,-0.04206719249486923,0.05156871676445007,0.034954965114593506,0.9543546714615873,-0.179801931470982,-0.033806827518874163,0.2360837650441329
1729788566577508600,3.068508544921875,0.2436058223247528,0.16201083362102509,-0.05736284703016281,0.02165437489748001,0.35714593529701233,-0.9337975382804871,-0.022691935300827026,0.0024579763412475586,0.053212881088256836,0.954637813158472,-0.17894812768340543,-0.032844960688055244,0.2357232182299835
1729788566587539700,3.078539794921875,0.14357011020183563,0.12950816750526428,0.0235154889523983,0.023042749613523483,0.35536307096481323,-0.9344443082809448,-0.002855336293578148,-0.056641727685928345,0.06919467449188232,0.9548560031319314,-0.17821536324655002,-0.03189262802687386,0.2355253861863998
1729788566597570600,3.088570556640625,0.09270107001066208,0.02347361110150814,-0.03923151269555092,0.023743731901049614,0.35416802763938904,-0.9348803162574768,0.04633992165327072,-0.08681875467300415,0.11203491687774658,0.9549767468265424,-0.17769256240689518,-0.03138764700550733,0.23549854092445244
1729788566607600600,3.0986005859375,-0.16322864592075348,-0.005677723325788975,-0.1169220507144928,0.02367178350687027,0.35419762134552,-0.9348709583282471,0.047708868980407715,-0.15101155638694763,0.08756566047668457,0.9550751291195492,-0.1777122738547708,-0.03135080502275884,0.2350893653213982
1729788566617631700,3.1086318359375,-0.43912386894226074,-0.03281054273247719,-0.09124837815761566,0.023087112233042717,0.3570745587348938,-0.9337905049324036,0.011413045227527618,-0.1358678638935089,0.10966336727142334,0.9549250301741941,-0.17912719274265226,-0.03190896466098247,0.23454967798671514
1729788566627662600,3.11866259765625,-0.2703244090080261,-0.019266821444034576,-0.06798779964447021,0.022370988503098488,0.36072054505348206,-0.9324055910110474,0.0230392012745142,-0.03656286001205444,0.02516382932662964,0.9546660870522868,-0.1809171657708684,-0.0326523457858257,0.23412693242535135
1729788566637692700,3.128692626953125,0.07866688072681427,0.07739873230457306,-0.0666053518652916,0.022068947553634644,0.3617566227912903,-0.9320113062858582,-0.012455875054001808,0.07308831810951233,-0.14448094367980957,0.9546572303493307,-0.18142338643216632,-0.03286178161942294,0.23374170218764945
1729788566647723800,3.138723876953125,0.48151135444641113,0.29283377528190613,-0.08017042279243469,0.023452388122677803,0.35921165347099304,-0.9329614043235779,-0.08377034217119217,0.18874675035476685,-0.17813783884048462,0.9550233470066953,-0.18030678243543904,-0.03176101339864561,0.2332619024192864
1729788566657754600,3.148754638671875,0.8087916970252991,0.4266083538532257,0.013307326473295689,0.02679693140089512,0.3532065451145172,-0.9351615309715271,-0.11905153095722198,0.2971078157424927,-0.1910439133644104,0.9557019205915867,-0.17765937446492078,-0.029264135148897353,0.23284026421290116
1729788566667784700,3.15878466796875,0.9374010562896729,0.41394028067588806,0.11274363845586777,0.030994215980172157,0.344714492559433,-0.9381957650184631,-0.09886527061462402,0.3122221827507019,-0.13388675451278687,0.9564778386627364,-0.1738373058081817,-0.026128842313062384,0.232911837691235
1729788566677815600,3.168815673828125,0.7123282551765442,0.37733617424964905,0.1508619785308838,0.03523215651512146,0.3367674648761749,-0.9409284591674805,-0.048278387635946274,0.19057628512382507,-0.031849801540374756,0.9570892195849426,-0.17029858914909451,-0.023111977463633582,0.23333313351000284
1729788566687846700,3.1788466796875,0.45826202630996704,0.2532143294811249,0.1276160478591919,0.03874640166759491,0.3312627971172333,-0.942742645740509,-0.018131744116544724,0.033040791749954224,0.09281283617019653,0.9574440161527501,-0.16791997983974932,-0.020774101491446605,0.23382113609729452
1729788566697876700,3.188876708984375,0.2170477956533432,0.15665452182292938,0.06322108954191208,0.04090779274702072,0.32789120078086853,-0.943829357624054,0.024430379271507263,-0.13366204500198364,0.06782233715057373,0.9576537612785342,-0.16646715680296226,-0.019338920250074654,0.2341235763837758
1729788566707907600,3.198907470703125,-0.08097244799137115,0.05299432575702667,0.07923334836959839,0.04225143417716026,0.3274018168449402,-0.9439400434494019,0.05137652903795242,-0.17855232954025269,-0.00836092233657837,0.957620555652687,-0.16637834166505333,-0.018660456486750198,0.23437758760782618
1729788566717938700,3.208938720703125,-0.2371513992547989,-0.052824780344963074,0.14367277920246124,0.04245789349079132,0.3288034200668335,-0.9434434771537781,0.06673403829336166,-0.04750761389732361,-0.03841376304626465,0.9573708539449178,-0.16710483939339124,-0.018820871493918697,0.23486752957213985
1729788566727968800,3.21896875,-0.3079749643802643,-0.03854358196258545,0.22555992007255554,0.042669203132390976,0.3315407931804657,-0.9424754977226257,0.03002370148897171,0.0919363796710968,-0.13581734895706177,0.9568883758831852,-0.16850099189168313,-0.019227053136573878,0.23580125363657195
1729788566737999600,3.22899951171875,-0.06740070879459381,0.0980217233300209,0.21049149334430695,0.04356233775615692,0.333175927400589,-0.9418578147888184,-0.020323164761066437,0.1725614070892334,-0.18707895278930664,0.9564812553859069,-0.16942122414637698,-0.019171488126397924,0.23679640618497003
1729788566748030700,3.23903076171875,0.1130731850862503,0.22710402309894562,0.30814269185066223,0.04609321802854538,0.33284687995910645,-0.9418537020683289,-0.1070825606584549,0.18349531292915344,-0.18798333406448364,0.9562113829511133,-0.16954758392624467,-0.01807682163357705,0.23787936405021262
1729788566758060800,3.249060791015625,0.3503267467021942,0.2314995676279068,0.3479769229888916,0.04937191680073738,0.3305074870586395,-0.9425111413002014,-0.1295873373746872,0.18147069215774536,-0.045419156551361084,0.956023343548405,-0.16874479881246604,-0.01642044937851982,0.23932169918795254
1729788566768091600,3.259091552734375,0.5653682947158813,0.25216221809387207,0.3029117286205292,0.05276334285736084,0.32600080966949463,-0.9438959360122681,-0.09751734137535095,0.11975422501564026,0.0008264780044555664,0.9560385315777493,-0.16686576787831997,-0.014417318125451987,0.24070355386966066
1729788566778122800,3.269122802734375,0.7082396745681763,0.1718199998140335,0.28390634059906006,0.055788349360227585,0.3196483850479126,-0.9458924531936646,-0.0510428324341774,0.02414742112159729,0.07569903135299683,0.9562391689459607,-0.16401718230692441,-0.012333956102126129,0.24197701040285532
1729788566788152600,3.279152587890625,0.5876932144165039,0.16247916221618652,0.1691693514585495,0.058069974184036255,0.31327149271965027,-0.9478865265846252,0.04848218709230423,-0.08757874369621277,0.12603288888931274,0.9565013048747484,-0.1610748636316899,-0.01056562517146727,0.24299894081364937
1729788566798183700,3.28918359375,0.43538811802864075,0.06332621723413467,0.08935336023569107,0.05964360386133194,0.30834224820137024,-0.9494038820266724,0.12137144804000854,-0.14804863929748535,0.06814777851104736,0.9567696074681411,-0.15878490126288405,-0.009242394169733199,0.24350327809123087
1729788566808214800,3.29921484375,0.2400597780942917,-0.12332068383693695,0.14238354563713074,0.059692397713661194,0.30499956011772156,-0.9504799246788025,0.11163332313299179,-0.15445631742477417,0.11043781042098999,0.9569037244270541,-0.1571023336606155,-0.008882184718635814,0.2440803638640377
1729788566818244600,3.30924462890625,0.06246953457593918,-0.3300458788871765,0.1141953244805336,0.057970479130744934,0.30360761284828186,-0.9510319828987122,0.11318738758563995,-0.10004007816314697,0.04531604051589966,0.956827484002806,-0.1561735463372136,-0.00968659878041308,0.24494316724560106
1729788566828275700,3.319275634765625,0.0941917821764946,-0.40168794989585876,-0.04885724559426308,0.05436591058969498,0.30287426710128784,-0.9514786005020142,0.08369565010070801,-0.004503875970840454,-0.19714200496673584,0.9568291519568582,-0.15533857797626552,-0.01142928846540613,0.24539191321986362
1729788566838306600,3.329306640625,0.06610181927680969,-0.2749353349208832,-0.031874533742666245,0.05097772926092148,0.30212077498435974,-0.9519056081771851,0.007020961493253708,0.06085529923439026,-0.25616317987442017,0.9569385622087008,-0.1545264182247103,-0.012991400458577645,0.24540034296699925
1729788566848336600,3.339336669921875,0.0950043722987175,-0.15452739596366882,0.06746616959571838,0.04903128743171692,0.30131250619888306,-0.9522640109062195,-0.054554931819438934,0.07411476969718933,-0.17000466585159302,0.9569619858549326,-0.153867695453812,-0.013883123622802468,0.24567382187207595
1729788566858367700,3.34936767578125,-0.03266090899705887,-0.16747808456420898,0.004044319503009319,0.047738250344991684,0.30086034536361694,-0.9524726271629333,-0.0869838148355484,-0.026400506496429443,-0.07517629861831665,0.9569282177359606,-0.1534701373675289,-0.014512276647907465,0.24601745476112116
1729788566868398600,3.359398681640625,-0.32694539427757263,-0.24532444775104523,-0.07428190857172012,0.04569058492779732,0.30257880687713623,-0.9520285725593567,-0.10973168909549713,-0.13970646262168884,0.08993756771087646,0.9568274235492025,-0.15407237320038725,-0.015729197243091714,0.24595856739385716
1729788566878428700,3.3694287109375,-0.44183921813964844,-0.23418313264846802,-0.04562576487660408,0.043056782335042953,0.30642640590667725,-0.950920045375824,-0.04903819411993027,-0.13688597083091736,0.15485382080078125,0.956571311675533,-0.15567181585964615,-0.017500101072383333,0.24582797038916882
1729788566888459800,3.379459716796875,-0.4300480782985687,-0.07660627365112305,-0.04778265953063965,0.041515715420246124,0.31068626046180725,-0.949605405330658,0.03889813646674156,-0.08134663105010986,0.07625341415405273,0.9562598760037031,-0.15762027934143857,-0.018791777769466014,0.24570240406402452
1729788566898490600,3.38949072265625,-0.25780999660491943,-0.20331814885139465,-0.18566356599330902,0.04000774398446083,0.31402823328971863,-0.9485703110694885,0.026764750480651855,-0.013170689344406128,0.0171891450881958,0.9561083869567406,-0.1591199846205398,-0.019891527710300793,0.24523838548245588
1729788566908520700,3.399520751953125,-0.10835680365562439,-0.3198171854019165,-0.2381984144449234,0.036702368408441544,0.3158080577850342,-0.948112964630127,0.007044617086648941,0.024066239595413208,0.04775285720825195,0.9562131899453172,-0.1596152355636998,-0.02159842926765104,0.24436192606166982
1729788566918551800,3.4095517578125,-0.06902112066745758,-0.337897390127182,-0.16540490090847015,0.0328374020755291,0.31668874621391296,-0.9479609727859497,0.027617957442998886,0.027671635150909424,-0.004309535026550293,0.9563581662779139,-0.15958651109426122,-0.023487716718686952,0.24363819901577982
1729788566928582700,3.419582763671875,-0.02673957124352455,-0.2238333821296692,-0.16380886733531952,0.029685158282518387,0.3171646296977997,-0.9479057788848877,0.0373162180185318,0.0013625919818878174,0.00999385118484497,0.9564729215036373,-0.15944136025134775,-0.02501114167913596,0.24313050769053554
1729788566938612700,3.42961279296875,-0.14406992495059967,-0.1083264946937561,-0.2777508795261383,0.02738533727824688,0.317981481552124,-0.9477013349533081,-0.006389208137989044,-0.07350516319274902,0.02689450979232788,0.9566544615634086,-0.15958875266563274,-0.026091386465019732,0.2422044722335851
1729788566948643600,3.4396435546875,-0.19613958895206451,-0.09011846780776978,-0.3122132420539856,0.02553093433380127,0.3196646571159363,-0.9471867084503174,-0.06508167833089828,-0.10462251305580139,0.09235882759094238,0.956877087480424,-0.16024523197870494,-0.02698349848658827,0.24078943468381186
1729788566958674700,3.4496748046875,-0.24917590618133545,0.004089260473847389,-0.2406914085149765,0.02419525757431984,0.3218621611595154,-0.9464773535728455,-0.06968166679143906,-0.095604807138443,0.17836517095565796,0.9570215865068107,-0.16122623807062886,-0.027702624009365902,0.23947490341779468
1729788566968704800,3.459704833984375,-0.2216966152191162,0.14350424706935883,-0.2438373863697052,0.024053724482655525,0.32424429059028625,-0.9456675052642822,-0.03000461310148239,-0.07248950004577637,0.16232705116271973,0.9571164821354163,-0.16244827734247164,-0.027871164954383035,0.2382469917683517
1729788566978735600,3.469735595703125,-0.09839464724063873,0.25677382946014404,-0.20782986283302307,0.025296302512288094,0.3258002698421478,-0.9451001286506653,-0.04102807864546776,-0.03850778937339783,0.19403207302093506,0.9572972689147586,-0.1634265424558538,-0.027234102430211085,0.2369216322081741
1729788566988766700,3.4797666015625,-0.07747724652290344,0.1345100700855255,-0.01843728870153427,0.02684010937809944,0.32659709453582764,-0.9447824954986572,-0.003005845472216606,0.03163352608680725,0.12720131874084473,0.9573932218943716,-0.1640396617237665,-0.02645280139784194,0.23619767986536855
1729788566998796800,3.489796875,-0.02517223358154297,0.06015780195593834,0.019404102116823196,0.027757860720157623,0.32713964581489563,-0.9445682168006897,0.10673314332962036,0.09060025215148926,0.020572304725646973,0.9573371884049836,-0.16442688708043868,-0.026070659864085053,0.23619824661261601
1729788567008827600,3.49982763671875,0.06066564470529556,0.04909050464630127,-0.09760907292366028,0.028133433312177658,0.32692834734916687,-0.9446302652359009,0.11420059204101562,0.06632119417190552,-0.05688035488128662,0.9574054844537475,-0.16437165891065567,-0.025822793523171773,0.2359871574818139
1729788567018858800,3.509858642578125,0.045439284294843674,0.09324172139167786,-0.1612682193517685,0.02833440899848938,0.32637056708335876,-0.9448171257972717,0.017716649919748306,-0.008026450872421265,-0.044623732566833496,0.957629225802887,-0.164132872099799,-0.025531062951410256,0.235275822291402
1729788567028888600,3.519888671875,-0.09091529250144958,0.09919388592243195,-0.10608112066984177,0.028822124004364014,0.32658952474594116,-0.9447267055511475,-0.02757086791098118,-0.05716508626937866,-0.010931253433227539,0.957790279045472,-0.16432322022203294,-0.02518978013320152,0.23452308323864152
1729788567038919700,3.529919677734375,-0.25258809328079224,0.05902516096830368,-0.026445943862199783,0.029397936537861824,0.32823890447616577,-0.9441371560096741,-0.02060883864760399,-0.061637312173843384,0.05157428979873657,0.9577321483394746,-0.16523936404471085,-0.025047470441553116,0.23413147242677268
1729788567048950800,3.53995068359375,-0.29203030467033386,0.030857279896736145,-0.009281073696911335,0.029735511168837547,0.33089742064476013,-0.9431981444358826,-0.001216799020767212,-0.046687185764312744,0.05914968252182007,0.9575171528689642,-0.16663164937416233,-0.02519586603690402,0.234008540551545
1729788567058980600,3.549980712890625,-0.2069460153579712,0.0892241820693016,-0.059728000313043594,0.030166734009981155,0.3333301246166229,-0.9423274397850037,0.00303642638027668,-0.03439515829086304,0.03244584798812866,0.9573513701055107,-0.16792519670193073,-0.025246989741530605,0.233756506178966
1729788567069011700,3.56001171875,-0.11077475547790527,0.07411926239728928,-0.04503960162401199,0.030778376385569572,0.33480513095855713,-0.9417846202850342,-0.015275411307811737,-0.02085551619529724,0.08021235466003418,0.9573038285042355,-0.16875866161687564,-0.02506423596978505,0.2333704053991253
1729788567079042600,3.57004248046875,-0.031287647783756256,-0.01720266044139862,0.0081349341198802,0.031450193375349045,0.3358038663864136,-0.9414067268371582,-0.0005205944180488586,0.012600064277648926,0.12616020441055298,0.9572252621260762,-0.16934983738111262,-0.024844822707734058,0.23328743447227462
1729788567089072600,3.58007275390625,-0.00009724078699946404,-0.05511840432882309,0.008938943035900593,0.03151638060808182,0.3360614478588104,-0.9413126111030579,0.04692909121513367,0.05756956338882446,0.01875096559524536,0.9571705495411186,-0.16948553983074435,-0.024866666689645135,0.23341124428129648
1729788567099103700,3.590103759765625,0.053016580641269684,-0.04447907209396362,0.028167232871055603,0.03115137293934822,0.33568769693374634,-0.9414581060409546,0.042350251227617264,0.08588212728500366,-0.08406984806060791,0.957177256382901,-0.16924789676328378,-0.025021931752181162,0.23353974417949627
1729788567109134600,3.600134521484375,0.11893540620803833,-0.05788840726017952,0.08715465664863586,0.0307856984436512,0.33461782336235046,-0.9418509006500244,0.010336773470044136,0.07422620058059692,-0.08309715986251831,0.9572034977489883,-0.16865179781998457,-0.02512190512059651,0.2338523846871543
1729788567119164700,3.61016455078125,0.08777162432670593,-0.07932153344154358,0.09052328765392303,0.03031482733786106,0.3333628177642822,-0.9423111081123352,-0.009700166061520576,0.01995447278022766,-0.06493675708770752,0.9571947294471471,-0.16794337782552038,-0.025287550677978513,0.23437972988556083
1729788567129195800,3.62019580078125,0.010078963823616505,-0.019508903846144676,0.03226291015744209,0.03003307618200779,0.3328218460083008,-0.9425113201141357,-0.023914266377687454,-0.033902138471603394,-0.07544821500778198,0.9571591276485211,-0.16762495340858607,-0.025420515953775025,0.23473842338732823
1729788567139226600,3.6302265625,-0.03523791581392288,0.02510703355073929,-0.021101513877511024,0.030088279396295547,0.3328278660774231,-0.9425074458122253,-0.04636937379837036,-0.0641968846321106,-0.028760194778442383,0.9571550377715822,-0.16763442578569054,-0.02539626377575762,0.23475071625857813
1729788567149256700,3.640256591796875,-0.05397958308458328,0.06419089436531067,-0.019305210560560226,0.030347811058163643,0.3333453834056854,-0.9423162341117859,-0.03960986062884331,-0.06776612997055054,0.011469066143035889,0.9571456623687219,-0.16793313243838043,-0.02530517917163003,0.2345853233417346
1729788567159287800,3.650287841796875,-0.0794077068567276,0.06907273083925247,0.02917204424738884,0.031035801395773888,0.3343653678894043,-0.9419323801994324,-0.015822753310203552,-0.0339503288269043,0.06279724836349487,0.9570614263125067,-0.16853661302380696,-0.02508440815567325,0.2345200805613775
1729788567169318700,3.660318603515625,-0.08744432777166367,0.021492857486009598,0.08729446679353714,0.031981296837329865,0.3354727327823639,-0.9415069222450256,0.00555536150932312,0.013358473777770996,0.10999447107315063,0.956888135183432,-0.16920787562824322,-0.02480417842808008,0.23477318900600044
1729788567179348700,3.6703486328125,-0.0850975513458252,-0.029718931764364243,0.10916648060083389,0.03246396407485008,0.33649635314941406,-0.9411250352859497,0.028067689388990402,0.036947280168533325,0.10044205188751221,0.9566683478733498,-0.1697741867497702,-0.024783347407714765,0.23526206479385273
1729788567189379600,3.680379638671875,-0.06262753158807755,-0.04928911477327347,0.07187236845493317,0.03241518512368202,0.3373924195766449,-0.9408058524131775,0.03774476423859596,0.03019183874130249,0.03449481725692749,0.9564690785998888,-0.17021112756136925,-0.025005166194593576,0.2357322982212466
1729788567199410700,3.69041064453125,-0.005335478577762842,-0.04937220737338066,0.041003137826919556,0.03204647824168205,0.33766794204711914,-0.9407196044921875,0.019726630300283432,0.008355647325515747,-0.0127716064453125,0.9563741707249136,-0.17029803221891585,-0.025274073883609183,0.2360256871952709
1729788567209440800,3.700440673828125,0.023044897243380547,-0.05357164144515991,0.03971949219703674,0.03154285252094269,0.3372131586074829,-0.9408997297286987,-0.008029025048017502,-0.01265871524810791,-0.026736319065093994,0.9563646276111456,-0.1699989657367639,-0.02550455875647684,0.23625487356992708
1729788567219471600,3.7104716796875,-0.0013051838614046574,-0.0033534755930304527,0.04878329485654831,0.031146323308348656,0.3367258310317993,-0.9410874843597412,-0.01486515998840332,-0.01885470747947693,-0.04408097267150879,0.9563548151157859,-0.1696962478575105,-0.02567970357464228,0.23649355958724727
1729788567229502700,3.720502685546875,0.020311828702688217,0.022917969152331352,0.07650334388017654,0.0312776155769825,0.3363071382045746,-0.9412328004837036,-0.018765371292829514,-0.0011020302772521973,-0.05241948366165161,0.9563238847584148,-0.16949238284961565,-0.025610889420834133,0.23677237035208593
1729788567239532800,3.73053271484375,0.03863437846302986,-0.011936950497329235,0.10094716399908066,0.03153311088681221,0.3359013795852661,-0.9413691759109497,-0.013008907437324524,0.008138567209243774,-0.022421717643737793,0.9562541656523177,-0.16930661291290602,-0.02550843926237368,0.2371975126766803
1729788567249563600,3.740563720703125,0.057532165199518204,-0.04754389077425003,0.09429911524057388,0.03164636343717575,0.3358090817928314,-0.9413983225822449,-0.0008540898561477661,0.007132232189178467,-0.00016051530838012695,0.9561382938853431,-0.16926052347630607,-0.025528852421139347,0.23769449275719992
1729788567259594800,3.7505947265625,0.05449935793876648,-0.07988425344228745,0.09367114305496216,0.03162958845496178,0.33579474687576294,-0.9414039850234985,0.000902179628610611,0.0036370158195495605,0.0010506510734558105,0.9560135656445737,-0.16923762406618348,-0.02562499344223605,0.23820138141240893
1729788567269624800,3.760624755859375,0.037807397544384,-0.1137923151254654,0.10596855729818344,0.0314168743789196,0.33568641543388367,-0.941449761390686,0.007523592561483383,-0.006035506725311279,0.014615654945373535,0.9558803612227831,-0.16914055280853557,-0.02581866377913906,0.23878359996694992
1729788567279655700,3.77065576171875,0.03988200053572655,-0.12835341691970825,0.08253087103366852,0.030802777037024498,0.33537089824676514,-0.9415825009346008,0.021733270958065987,-0.014234423637390137,0.00690537691116333,0.9557670742499916,-0.16888794634785537,-0.026184458062801435,0.23937546754926492
1729788567289686800,3.780686767578125,0.008204897865653038,-0.1203697919845581,0.0939590260386467,0.029814554378390312,0.33487266302108765,-0.9417915940284729,0.010194029659032822,-0.012881666421890259,0.0174141526222229,0.9556965053670947,-0.16849820556351988,-0.026693839167265483,0.23987487394359142
1729788567299716600,3.790716552734375,0.01155009400099516,-0.17044708132743835,0.12958626449108124,0.028682222589850426,0.3344516456127167,-0.9419763684272766,-0.01015801727771759,0.003713667392730713,0.06802922487258911,0.9555741523395176,-0.16812407564184084,-0.027315295992853088,0.24055389850181141
1729788567309747700,3.800747802734375,0.0014676996506750584,-0.15057866275310516,0.1224074438214302,0.02733750082552433,0.33416280150413513,-0.9421188235282898,0.0013948343694210052,0.013325631618499756,0.018992602825164795,0.9554258227364496,-0.16778789235655622,-0.02806792140139289,0.24129016190200897
1729788567319778600,3.810778564453125,0.03190150484442711,-0.1385856568813324,0.12049289792776108,0.026326481252908707,0.3340846300125122,-0.9421753287315369,0.0016581714153289795,0.014960169792175293,-0.03122854232788086,0.9552674838227966,-0.16760100623022772,-0.028674601665832564,0.24197441518074556
1729788567329808600,3.82080859375,0.1146824061870575,-0.20217400789260864,0.06433802098035812,0.025115611031651497,0.3334270715713501,-0.9424412846565247,0.016693508252501488,-0.007285714149475098,-0.049257874488830566,0.9551803075992771,-0.16709688249032806,-0.02929145786033137,0.24259237171022943
1729788567339839700,3.83083984375,0.07332377880811691,-0.23132950067520142,-0.014821247197687626,0.023243114352226257,0.3325997591018677,-0.9427816271781921,0.020427577197551727,-0.037540555000305176,-0.07685643434524536,0.9551913862906554,-0.16643258220096147,-0.030156133385316305,0.24289977058226178
1729788567349870600,3.84087060546875,0.015043895691633224,-0.25670960545539856,0.00799432024359703,0.02125115506350994,0.33222153782844543,-0.9429619312286377,-0.009349264204502106,-0.026404887437820435,-0.04231327772140503,0.955190117028233,-0.16598404648662166,-0.03111787514870179,0.2430900145038544
1729788567359900700,3.850900634765625,-0.04804585874080658,-0.25612160563468933,0.059098780155181885,0.019502082839608192,0.3322039544582367,-0.9430059194564819,-0.011140229180455208,-0.010273993015289307,-0.02241760492324829,0.9550911861732166,-0.16574024468662626,-0.03204996064249835,0.24352369374962024
1729788567369931800,3.860931884765625,-0.08671608567237854,-0.20277023315429688,0.06699292361736298,0.017882613465189934,0.3328952193260193,-0.9427942633628845,-0.0012352392077445984,-0.0106600821018219,-0.08041435480117798,0.9549011969597558,-0.16586743786295824,-0.03302831493441844,0.24405082164871536
1729788567379962600,3.870962646484375,-0.015823539346456528,-0.1799091249704361,-0.016765087842941284,0.016185175627470016,0.3336688280105591,-0.9425513744354248,-0.015208575874567032,-0.030034154653549194,-0.09474104642868042,0.9547677118301127,-0.16603457043409856,-0.03401208155091815,0.24432396743164875
1729788567389992700,3.88099267578125,-0.042958155274391174,-0.10097372531890869,-0.05722356587648392,0.014870150946080685,0.3341963291168213,-0.9423861503601074,-0.050590939819812775,-0.06098771095275879,-0.014294147491455078,0.9547451034291153,-0.16613806835572245,-0.034714010621448355,0.24424328249998517
1729788567400023800,3.89102392578125,-0.03503445163369179,-0.05308103188872337,-0.006098862271755934,0.01421645563095808,0.33461713790893555,-0.9422469139099121,-0.05411815270781517,-0.03589582443237305,0.026734888553619385,0.9547387835172175,-0.16627265599134516,-0.03507051220435735,0.24412556448542624
1729788567410054700,3.9010546875,-0.04026263579726219,-0.06630304455757141,0.08406085520982742,0.014093884266912937,0.33474528789520264,-0.9422032237052917,-0.013071510009467602,0.004335552453994751,0.03857779502868652,0.9546555014845947,-0.1663116624684727,-0.035196684124540634,0.24440649393910796
1729788567420084700,3.911084716796875,0.042514536529779434,-0.10897274315357208,0.060250066220760345,0.013818787410855293,0.33420035243034363,-0.9424007534980774,0.02847861312329769,0.03617626428604126,0.03828698396682739,0.9545844892936735,-0.16598349296990092,-0.0353426567346646,0.24488546955566864
1729788567430115600,3.921115478515625,0.10073743015527725,-0.1588481068611145,0.015123601071536541,0.012627224437892437,0.33304882049560547,-0.9428250193595886,0.029090341180562973,0.03481006622314453,-0.0007936954498291016,0.9546163565641386,-0.16523875514210096,-0.035827932134914454,0.24519394376426806
1729788567440146700,3.931146728515625,0.02665840834379196,-0.1405458003282547,0.0076371897011995316,0.011181710287928581,0.33222660422325134,-0.9431332945823669,0.009951752610504627,0.0009490847587585449,-0.007199287414550781,0.9546454463594902,-0.16463232699429997,-0.036462836628371215,0.24539491544745468
1729788567450176800,3.9411767578125,-0.0137411467730999,-0.09728401899337769,-0.008210749365389347,0.010129675269126892,0.33188220858573914,-0.9432664513587952,0.0020468756556510925,-0.018146246671676636,-0.034882962703704834,0.9546475277789224,-0.16432003563872233,-0.036955447487594245,0.24552249032273446
1729788567460207600,3.95120751953125,-0.00899086706340313,-0.05863675847649574,-0.05391165614128113,0.009146585129201412,0.3313204348087311,-0.9434739351272583,-0.020010802894830704,-0.04015219211578369,-0.050864994525909424,0.9547172850224325,-0.16391394018490732,-0.037352901831204224,0.24546266981906312
1729788567470238000,3.961238037109375,-0.03584218770265579,0.03628091141581535,-0.09464097768068314,0.008147486485540867,0.3307384252548218,-0.9436873197555542,-0.04522630572319031,-0.04851183295249939,-0.0601731538772583,0.9548755502543206,-0.16350914902471064,-0.037697572946460436,0.24506417109063736
1729788567480267800,3.971267822265625,-0.09668130427598953,0.12084239721298218,0.007644913159310818,0.008101468905806541,0.33111923933029175,-0.943554162979126,-0.05772301182150841,-0.02363935112953186,-0.00020194053649902344,0.9549383577846668,-0.16371076337343393,-0.037705620727722475,0.2446832290143953
1729788567490299000,3.981298828125,0.09084278345108032,-0.0027965549379587173,0.07926903665065765,0.008903139270842075,0.3314639627933502,-0.9434258937835693,-0.020499780774116516,0.00009429454803466797,0.07889342308044434,0.9548519756993804,-0.16397809026439142,-0.03739311983978417,0.24488920529410438
1729788567500328700,3.99132861328125,0.07499830424785614,0.023859821259975433,-0.029404718428850174,0.009129433892667294,0.33081015944480896,-0.9436531662940979,0.015177854336798191,-0.03506428003311157,0.1039772629737854,0.9548687934193726,-0.16366989638556378,-0.03722343038417725,0.2450555051418406
1729788567510359800,4.00135986328125,0.054251618683338165,0.13261421024799347,-0.03227240964770317,0.01002515759319067,0.33056262135505676,-0.9437308311462402,-0.03497324138879776,0.001926422119140625,0.11156225204467773,0.9549553767645299,-0.16366807655657936,-0.036706303559164113,0.24479703977412867
1729788567520391000,4.011390869140625,0.23395666480064392,0.12300179898738861,0.07257544249296188,0.011419563554227352,0.3292529582977295,-0.9441726803779602,-0.004736175760626793,0.08317682147026062,0.08829200267791748,0.9550705638149528,-0.16318269367563848,-0.03584778599819239,0.24479891847885782
1729788567530420700,4.021420654296875,0.429375022649765,-0.015321187674999237,0.08070793747901917,0.012299624271690845,0.3258945643901825,-0.9453260898590088,0.08215231448411942,0.07744097709655762,-0.014527976512908936,0.9552627486850869,-0.16158275108167766,-0.03504228874332926,0.24522670290798115
1729788567540451800,4.031451904296875,0.42622771859169006,-0.04722798988223076,-0.05038536712527275,0.011765782721340656,0.32138943672180176,-0.9468740224838257,0.0806109607219696,0.04129675030708313,-0.06795752048492432,0.9556155263356556,-0.15923602452430335,-0.034740294785110114,0.24542974263473494
1729788567550483000,4.04148291015625,0.3625269830226898,0.013391682878136635,-0.09916355460882187,0.011098955757915974,0.3173988461494446,-0.9482271671295166,-0.0009823394939303398,0.01792830228805542,-0.0944364070892334,0.9560535965356655,-0.1571535016887098,-0.03448464712558153,0.24510207131914888
1729788567560512800,4.0515126953125,0.25616776943206787,0.13633863627910614,-0.051185645163059235,0.011248177848756313,0.3143947124481201,-0.9492257237434387,-0.0594048798084259,-0.015993833541870117,-0.06874912977218628,0.9564113778772371,-0.15567380987474738,-0.03395309510819016,0.24472462939366943
1729788567570543900,4.0615439453125,0.17455725371837616,0.19630998373031616,-0.02781081572175026,0.012680559419095516,0.3125793933868408,-0.9498069882392883,-0.060883037745952606,-0.04877018928527832,-0.058768391609191895,0.9566387166211048,-0.15495125923961475,-0.03296374963429447,0.24442962987984193
