time,seconds_elapsed,rotationRateX,rotationRateY,rotationRateZ,gravityX,gravityY,gravityZ,accelerationX,accelerationY,accelerationZ,quaternionW,quaternionX,quaternionY,quaternionZ
1729785767487638300,0.15963818359375,0.006021371576935053,-0.033370230346918106,0.03338942676782608,0.11982740461826324,-0.28758034110069275,-0.9502310156822205,-0.021972812712192535,0.0010661184787750244,0.004811704158782959,0.9874794461187766,0.14561332533568394,0.06067336573712754,-4.2475790629046975e-17
1729785767497669000,0.169669189453125,-0.02560499869287014,-0.02490377426147461,0.02272426337003708,0.11941244453191757,-0.28722262382507324,-0.950391411781311,-0.019406363368034363,-0.00968286395072937,0.007489800453186035,0.9875200073640708,0.14541892162528713,0.06047833244044153,0.00011924569694792891
1729785767507699200,0.17969921875,-0.043372876942157745,-0.009971272200345993,0.01319786999374628,0.1188630610704422,-0.2862522304058075,-0.9507529735565186,-0.02343461662530899,-0.01111099123954773,0.013634443283081055,0.987611533478609,0.14490861031691607,0.06020800063202466,0.00021105844804404032
1729785767517729300,0.189729248046875,-0.026026641950011253,-0.0041352203115820885,0.012741670943796635,0.11816423386335373,-0.2847573757171631,-0.9512888193130493,-0.03065510094165802,-0.0030080676078796387,0.016474366188049316,0.9877471648788565,0.14412762179451405,0.059856573561170155,0.0002847715699584797
1729785767527760400,0.199760498046875,-0.007872672751545906,0.009447273798286915,0.025771718472242355,0.11766300350427628,-0.2831946313381195,-0.9518173336982727,-0.03410588949918747,0.0038977861404418945,0.008885204792022705,0.9878809418030486,0.14331126153533055,0.059608829166803025,0.0003832608697409146
1729785767537790000,0.2097900390625,-0.003776197787374258,0.022543368861079216,0.030660483986139297,0.11727568507194519,-0.28205108642578125,-0.9522045850753784,-0.028118595480918884,0.004035979509353638,-0.001073002815246582,0.9879788342835988,0.14270919435400525,0.05942879088583711,0.0005363771524170779
1729785767547821300,0.2198212890625,-0.013066768646240234,0.01653042994439602,0.02339005470275879,0.11671406030654907,-0.28144189715385437,-0.9524538516998291,-0.018279634416103363,0.0011532604694366455,-0.0009305477142333984,0.9880416732325894,0.14238080919366097,0.059167499582164586,0.000722881115228812
1729785767557851100,0.22985107421875,-0.026658477261662483,0.0014896956272423267,0.013776841573417187,0.11608293652534485,-0.28112903237342834,-0.9526233673095703,-0.007043652236461639,-0.00303533673286438,0.0018634796142578125,0.9880844937337816,0.1422076723451522,0.05886687324561089,0.0008718060569744349
1729785767567882000,0.239882080078125,-0.04273924231529236,-0.0011737318709492683,-0.0015405956655740738,0.11557603627443314,-0.28101032972335815,-0.9527199864387512,-0.0011656507849693298,-0.008418351411819458,0.0037453770637512207,0.9881088611163872,0.1421392873460139,0.058621065262863516,0.0009566467776339966
1729785767577912000,0.249912109375,-0.009791679680347443,0.00931672565639019,-0.013859845697879791,0.11523324996232986,-0.28120332956314087,-0.9527045488357544,-0.0038746222853660583,-0.004822641611099243,0.0078040361404418945,0.9881049757295189,0.14223680488777515,0.05845005067996242,0.0009713429006504268
1729785767587943200,0.259943115234375,0.05569791421294212,0.027449816465377808,-0.009087461978197098,0.11494934558868408,-0.28193044662475586,-0.952523946762085,-0.013447903096675873,0.010705500841140747,0.005716085433959961,0.9880593195058752,0.14261199913472733,0.058308129853898695,0.000962168091604428
1729785767597973000,0.269972900390625,0.1286642700433731,0.040618348866701126,0.020893339067697525,0.11459725350141525,-0.28311049938201904,-0.9522163271903992,-0.02270885556936264,0.030714958906173706,-0.00582200288772583,0.9879813152424194,0.14321570031253208,0.05814727746779846,0.001045944009202912
1729785767608004000,0.280004150390625,0.16092440485954285,0.04024939611554146,0.045623455196619034,0.11413933336734772,-0.2845454216003418,-0.9518435597419739,-0.019977368414402008,0.03663593530654907,-0.012099921703338623,0.987886714972822,0.1439431362719511,0.05795348138773755,0.0012630590161800744
1729785767618034200,0.2900341796875,0.12115701287984848,0.029273178428411484,0.04308199882507324,0.11372669786214828,-0.28582140803337097,-0.9515105485916138,-0.011248692870140076,0.01857900619506836,-0.01514899730682373,0.9878020441969119,0.1445863780200091,0.057788367071319985,0.001522397046357691
1729785767628065000,0.30006494140625,0.03231922164559364,0.014654126949608326,0.03826034814119339,0.11346638947725296,-0.2864830493927002,-0.9513426423072815,-0.007036350667476654,-0.009842604398727417,-0.008297860622406006,0.9877592466709096,0.1449143799773126,0.05769310847321737,0.0017507308368517977
1729785767638095000,0.31009521484375,-0.05641304329037666,-0.010406219400465488,0.03754502162337303,0.11325758695602417,-0.28635889291763306,-0.9514049291610718,-0.0038673505187034607,-0.02690395712852478,0.0018047094345092773,0.9877746298296518,0.14483785213906755,0.05761546603643558,0.0019490852556364627
1729785767648126200,0.320126220703125,-0.11277758330106735,-0.0216950923204422,0.04398960620164871,0.11301258951425552,-0.28568223118782043,-0.9516374468803406,0.00042122602462768555,-0.03270763158798218,0.009681880474090576,0.9878330039256051,0.14447399995340102,0.05751992921828306,0.0021719469636710793
1729785767658156000,0.330156005859375,-0.13097096979618073,-0.019443124532699585,0.052726905792951584,0.11266970634460449,-0.2846117615699768,-0.951998770236969,0.003037676215171814,-0.025675654411315918,0.008669912815093994,0.9879238434688745,0.1439036418154238,0.05737900596347005,0.002440775169040154
1729785767668187100,0.340187255859375,-0.11392367631196976,-0.01684584841132164,0.06021358072757721,0.11210473626852036,-0.2832636535167694,-0.9524674415588379,-0.001249648630619049,-0.009918689727783203,0.00836038589477539,0.9880416271116857,0.14318667884263586,0.057130114080248054,0.0027555932358429643
1729785767678217200,0.35021728515625,-0.09120771288871765,-0.01594596728682518,0.06512977927923203,0.11133593320846558,-0.281684547662735,-0.953025758266449,-0.00058765709400177,0.0012585818767547607,0.0019759535789489746,0.9881818454677337,0.14234832604110406,0.056780846810893,0.0031039102816070173
1729785767688248000,0.360248046875,-0.0653090626001358,-0.013017714954912663,0.05593947321176529,0.11064624786376953,-0.28026309609413147,-0.9535250663757324,0.007563576102256775,0.009755313396453857,0.0035585761070251465,0.9883070828915788,0.14159404433963876,0.05646772749273456,0.0034205660357167576
1729785767698278100,0.370278076171875,-0.03384967893362045,-0.008197125978767872,0.04416164755821228,0.11020506918430328,-0.2795138657093048,-0.9537960290908813,0.010842882096767426,0.014178812503814697,0.010345101356506348,0.9883747802371438,0.14119133033119088,0.05627606054279163,0.0036780200848465184
1729785767708308200,0.38030810546875,-0.017795877531170845,0.0009200982749462128,0.049900759011507034,0.1099366769194603,-0.27963119745254517,-0.9537926316261292,0.012072570621967316,0.012358307838439941,0.01456838846206665,0.988372975849917,0.1412373621150062,0.05617563049481523,0.0039234364783922605
1729785767718339300,0.39033935546875,-0.01198405958712101,0.002211465034633875,0.06624750792980194,0.10977151989936829,-0.2802225947380066,-0.9536380767822266,0.01541157066822052,0.010966062545776367,0.013589799404144287,0.9883325757144745,0.14152449167377748,0.0561408350882737,0.004239950144125474
1729785767728369200,0.400369140625,-0.03792031854391098,-0.0017629293724894524,0.06936579942703247,0.10965775698423386,-0.2808739244937897,-0.9534595012664795,0.022498592734336853,0.005498617887496948,0.013457059860229492,0.988285707452525,0.14183960764474293,0.0561406612771366,0.004611780936556447
1729785767738400300,0.410400146484375,-0.07222077250480652,0.001079995185136795,0.05861515551805496,0.10960496217012405,-0.28104743361473083,-0.9534144401550293,0.030760623514652252,-0.007831931114196777,0.025908946990966797,0.9882726280372608,0.14190992568125974,0.0561636283585328,0.0049503040423333035
1729785767748430300,0.420430419921875,-0.08800812065601349,-0.00574339646846056,0.06576228141784668,0.10945155471563339,-0.28061869740486145,-0.9535583257675171,0.033752165734767914,-0.010320603847503662,0.03099668025970459,0.9883073424453853,0.14166966329194494,0.05612963323466226,0.005276724954840522
1729785767758461200,0.430461181640625,-0.0926569327712059,-0.013773626647889614,0.08662894368171692,0.10917998105287552,-0.27985426783561707,-0.9538140892982483,0.04075285792350769,-0.0009531676769256592,0.01936584711074829,0.9883698437287148,0.14125264642263788,0.05604147303504269,0.005661571986864985
1729785767768491300,0.4404912109375,-0.09809418022632599,-0.025112885981798172,0.11443553864955902,0.1089041456580162,-0.27890798449516296,-0.95412278175354,0.05070275813341141,0.001869499683380127,0.008672952651977539,0.9884450209838738,0.14073539018762024,0.05596581874584807,0.006160933653377188
1729785767778522400,0.4505224609375,-0.124301016330719,-0.04449164494872093,0.13777095079421997,0.10849744826555252,-0.2777957320213318,-0.954493522644043,0.059974826872348785,0.0012759864330291748,-0.004002571105957031,0.9885349022791555,0.1401269239390944,0.0558362825361386,0.006760950462956488
1729785767788552200,0.46055224609375,-0.1706434041261673,-0.07500172406435013,0.16380095481872559,0.10780079662799835,-0.27646201848983765,-0.9549595713615417,0.06816352903842926,-0.003994464874267578,-0.006069481372833252,0.9886476064075221,0.1393978952007675,0.055573794054172156,0.007478593172910608
1729785767798583300,0.470583251953125,-0.24829426407814026,-0.09943702816963196,0.18948501348495483,0.10674022138118744,-0.274626761674881,-0.9556080102920532,0.08446764945983887,-0.021164804697036743,0.0019336938858032227,0.9888046043029748,0.138402654888214,0.05514252267455984,0.00834571374397529
1729785767808613000,0.480613037109375,-0.3440985083580017,-0.13598401844501495,0.2092459350824356,0.10531678050756454,-0.272072970867157,-0.9564960598945618,0.10070737451314926,-0.03867223858833313,0.008528470993041992,0.9890202982376569,0.13703231596992516,0.05453550453302357,0.009328685648937239
1729785767818644000,0.49064404296875,-0.4443015456199646,-0.18070009350776672,0.23860594630241394,0.10346837341785431,-0.26870501041412354,-0.9576491713523865,0.1172347292304039,-0.04751810431480408,0.013008058071136475,0.9893008288643813,0.13523977354770403,0.05371797396116198,0.010418889626906548
1729785767828674000,0.500674072265625,-0.5700330138206482,-0.23273701965808868,0.26036158204078674,0.10103978216648102,-0.26428523659706116,-0.9591372609138489,0.1404305398464203,-0.056546032428741455,0.015915215015411377,0.9896631730610147,0.13290383811035925,0.05261119878709826,0.011643568316503696
1729785767838705200,0.510705078125,-0.7698260545730591,-0.2750439941883087,0.27874380350112915,0.09810926020145416,-0.25824248790740967,-0.9610855579376221,0.16508957743644714,-0.08262354135513306,0.03109288215637207,0.9901386700073673,0.12973594534429314,0.05124274658672856,0.012970922990975171
1729785767848735000,0.52073486328125,-1.033948540687561,-0.32065916061401367,0.3125065565109253,0.09448982775211334,-0.24984246492385864,-0.9636651277542114,0.18131276965141296,-0.10931886732578278,0.05712515115737915,0.9907690024632005,0.125361668166153,0.04951667313612386,0.014475485090615308
1729785767858766000,0.53076611328125,-1.3214391469955444,-0.38970375061035156,0.34715747833251953,0.09024357050657272,-0.23874102532863617,-0.9668809771537781,0.19706416130065918,-0.13145241141319275,0.08518236875534058,0.9915536080085755,0.11961262826713329,0.047458723772340755,0.016186292046533702
1729785767868796200,0.540796142578125,-1.6063525676727295,-0.4739174246788025,0.38440418243408203,0.08520705252885818,-0.22480684518814087,-0.9706707000732422,0.20757856965065002,-0.14791955053806305,0.08775138854980469,0.992475903977835,0.11243606534388964,0.044975231460364806,0.018084110512353462
1729785767878827000,0.550826904296875,-1.8602938652038574,-0.5748009085655212,0.4315064549446106,0.07919381558895111,-0.2081727683544159,-0.9748807549476624,0.2181847095489502,-0.14102454483509064,0.06370216608047485,0.9934947678523659,0.10391395175166433,0.04197051934246684,0.020214656615484848
1729785767888857000,0.560857177734375,-2.0430378913879395,-0.6736442446708679,0.48292621970176697,0.07216744124889374,-0.18933764100074768,-0.9792563915252686,0.22928518056869507,-0.12426093220710754,0.034050703048706055,0.9945442039216802,0.09431545692293754,0.03842378695108255,0.022588369031474466
1729785767898888200,0.57088818359375,-2.155212163925171,-0.7579820156097412,0.5208730697631836,0.06419539451599121,-0.16897259652614594,-0.9835279583930969,0.2451460063457489,-0.10599073767662048,-0.016929805278778076,0.9955556157728702,0.08399492374638774,0.03436394634716632,0.02516248795408152
1729785767908918000,0.58091796875,-2.2057180404663086,-0.8423960208892822,0.5293205976486206,0.05544409528374672,-0.147689089179039,-0.9874785542488098,0.2580476999282837,-0.08796758949756622,-0.057138144969940186,0.9964763152560792,0.0732716529822598,0.0298662022152311,0.027826788056589946
1729785767918949000,0.59094921875,-2.209421396255493,-0.9183791875839233,0.5458897352218628,0.04597029834985733,-0.12602563202381134,-0.9909613132476807,0.2578016519546509,-0.07670257985591888,-0.08449339866638184,0.997271174402088,0.06242162031383498,0.02495790395541009,0.0305126607947113
1729785767928979200,0.600979248046875,-2.2076001167297363,-0.995812177658081,0.5857996344566345,0.0357724092900753,-0.10428524762392044,-0.9939038753509521,0.2454470545053482,-0.08652585744857788,-0.09830498695373535,0.9979188815570088,0.05159549775887105,0.019645987697690957,0.03331486462131352
1729785767939010000,0.611010009765625,-2.2397303581237793,-1.0449743270874023,0.6392298340797424,0.025015396997332573,-0.08226612210273743,-0.9962964057922363,0.22562545537948608,-0.1062103807926178,-0.07741880416870117,0.9984130509811788,0.040688770611847946,0.014008006747995062,0.036326438589425004
1729785767949040000,0.6210400390625,-2.2822587490081787,-1.112111210823059,0.7166122198104858,0.013764469884335995,-0.05979166924953461,-0.9981159567832947,0.20251359045505524,-0.12703688442707062,-0.08594471216201782,0.9987419817172754,0.02961321095761639,0.008066670602633498,0.03965418576933703
1729785767959070200,0.6310703125,-2.362441301345825,-1.1843798160552979,0.7906078696250916,0.0018925776239484549,-0.036587320268154144,-0.9993286728858948,0.1940302550792694,-0.13901075720787048,-0.09622186422348022,0.9988920144797906,0.01823849246549525,0.0017388307303749485,0.04334872049469057
1729785767969101300,0.641101318359375,-2.4337828159332275,-1.2590259313583374,0.846077024936676,-0.010548269376158714,-0.012491020374000072,-0.9998663663864136,0.18426956236362457,-0.14534582197666168,-0.09568417072296143,0.9988439394866356,0.0064885603974694644,-0.004972519067967292,0.04737014840109771
1729785767979131100,0.651131103515625,-2.508922815322876,-1.3352789878845215,0.8659204840660095,-0.02357356995344162,0.012429317459464073,-0.9996448159217834,0.17365899682044983,-0.16007329523563385,-0.11520802974700928,0.9985810606834691,-0.005599118150043647,-0.01209262979687314,0.051559138814661905
1729785767989162200,0.661162353515625,-2.6317598819732666,-1.423217535018921,0.8728945255279541,-0.037146247923374176,0.03845934569835663,-0.9985694885253906,0.16345848143100739,-0.15605875849723816,-0.1366080641746521,0.998084157620907,-0.01816959124168913,-0.019624442507286358,0.05579221964633546
1729785767999192300,0.6711923828125,-2.7209858894348145,-1.5372929573059082,0.8885799646377563,-0.05149981006979942,0.06568339467048645,-0.9965106248855591,0.16563552618026733,-0.12418553233146667,-0.14817315340042114,0.9973203343025386,-0.03126160811497034,-0.02770180995612968,0.06006325194014002
1729785768009223200,0.68122314453125,-2.7572073936462402,-1.681847333908081,0.8745267391204834,-0.06683511286973953,0.09354831278324127,-0.993368923664093,0.18029944598674774,-0.0933346077799797,-0.16158407926559448,0.9962650188599447,-0.04459697609036322,-0.03642330013815228,0.06434749604975282
1729785768019253200,0.691253173828125,-2.72479248046875,-1.810163974761963,0.822913646697998,-0.08329498022794724,0.12151613086462021,-0.9890883564949036,0.18320950865745544,-0.06199152022600174,-0.16490334272384644,0.9949150937789252,-0.057913422902599904,-0.04584600930236346,0.06847112675752888
1729785768029284400,0.701284423828125,-2.648386240005493,-1.908475399017334,0.7789661288261414,-0.10062866657972336,0.1488710194826126,-0.9837231636047363,0.16784361004829407,-0.0076356083154678345,-0.1781725287437439,0.993289927372829,-0.07087179719851637,-0.05581754509714562,0.07236551019861165
1729785768039314200,0.711314208984375,-2.523878574371338,-2.0069830417633057,0.7564014196395874,-0.11863988637924194,0.17522184550762177,-0.9773545265197754,0.14940157532691956,0.0598398894071579,-0.1817336082458496,0.9914021323976685,-0.08328335908238764,-0.06623153245034762,0.07615135641623502
1729785768049345300,0.72134521484375,-2.2667884826660156,-2.054394483566284,0.7408011555671692,-0.1371278315782547,0.19966422021389008,-0.9702216982841492,0.126889169216156,0.1142396479845047,-0.20452189445495605,0.9893034832850633,-0.0946934960200566,-0.07695639882576329,0.0799349258055357
1729785768059375000,0.731375,-1.9111446142196655,-2.0857064723968506,0.7152166962623596,-0.1556287258863449,0.22106175124645233,-0.9627624154090881,0.10190249979496002,0.17679598927497864,-0.27002567052841187,0.9871024312924124,-0.1045364912944145,-0.08769793723636492,0.08372661836763559
1729785768069406200,0.74140625,-1.595757007598877,-2.1701550483703613,0.7003048658370972,-0.17439891397953033,0.2392231971025467,-0.9551739692687988,0.08753059804439545,0.23341788351535797,-0.29078245162963867,0.9848475417753915,-0.11269190370226301,-0.0985573637572349,0.08753532379455749
1729785768079436000,0.75143603515625,-1.2679637670516968,-2.2538468837738037,0.6691104769706726,-0.19384977221488953,0.25412386655807495,-0.9475459456443787,0.09367580711841583,0.2444571554660797,-0.26293373107910156,0.9825469398397448,-0.11909806067049639,-0.10973912495976708,0.09151241995343391
1729785768089467100,0.761467041015625,-0.8602093458175659,-2.2398853302001953,0.5545724630355835,-0.21357578039169312,0.26540952920913696,-0.9401825070381165,0.06753388047218323,0.2250843048095703,-0.25203239917755127,0.9803124944443921,-0.12361416976883753,-0.12094739112462286,0.09528317832195048
1729785768099497000,0.7714970703125,-0.557886004447937,-2.208146333694458,0.47562941908836365,-0.23307280242443085,0.2731685936450958,-0.9333038330078125,0.01955653727054596,0.22016340494155884,-0.2367706298828125,0.9782137296821029,-0.12631397095660254,-0.13188205780963452,0.09874158261388731
1729785768109528000,0.781528076171875,-0.3062833249568939,-2.2076213359832764,0.4655288755893707,-0.2523397207260132,0.2783503830432892,-0.9267392754554749,0.006902068853378296,0.22833305597305298,-0.19436967372894287,0.976185226864614,-0.1276499974073826,-0.14260375953947205,0.10213725821836468
1729785768119558100,0.79155810546875,-0.054565075784921646,-2.2517237663269043,0.44824573397636414,-0.27172383666038513,0.2812340259552002,-0.9203660488128662,0.007823050022125244,0.22169575095176697,-0.1886427402496338,0.974174141523725,-0.12771289985782244,-0.15331798074197642,0.10567844272312354
1729785768129589000,0.801589111328125,0.12262634187936783,-2.2575716972351074,0.4074477255344391,-0.2912396192550659,0.28211233019828796,-0.9141073226928711,-0.00571170449256897,0.2092817723751068,-0.1776590347290039,0.9721717128685607,-0.12666118516681818,-0.1640222429261999,0.10925194137054042
1729785768139619000,0.811619140625,0.24482204020023346,-2.225081205368042,0.33057209849357605,-0.3106692135334015,0.28155556321144104,-0.9078607559204102,-0.0208890438079834,0.20587128400802612,-0.12596797943115234,0.9701773093522956,-0.1248344165209947,-0.1746023909300521,0.11263458314024269
1729785768149650200,0.821650146484375,0.3477311134338379,-2.1830830574035645,0.2517108619213104,-0.3298491835594177,0.27980566024780273,-0.9016143083572388,-0.036727964878082275,0.18789157271385193,-0.09234315156936646,0.9682064955424112,-0.1223962928058093,-0.1849648698999712,0.11568649263141469
1729785768159680300,0.83168017578125,0.424124151468277,-2.154881715774536,0.21360312402248383,-0.3487359881401062,0.2771255671977997,-0.8953126072883606,-0.058643192052841187,0.16682898998260498,-0.08152449131011963,0.9662386851718276,-0.11947822243862653,-0.19511189579766378,0.11848742639587145
1729785768169711000,0.841711181640625,0.5010478496551514,-2.1417598724365234,0.2019592523574829,-0.3673780858516693,0.2737616002559662,-0.8888689279556274,-0.07798025012016296,0.15351510047912598,-0.06660592555999756,0.9642298748360898,-0.11617225686538786,-0.20510863301904422,0.12122373560873803
1729785768179741200,0.8517412109375,0.5858807563781738,-2.0984654426574707,0.1904139220714569,-0.3856674134731293,0.2697100043296814,-0.8823361992835999,-0.10896152257919312,0.13795915246009827,-0.05374467372894287,0.9621859522343198,-0.11246842279860954,-0.21490172892077652,0.12396114762044505
1729785768189772000,0.86177197265625,0.6647544503211975,-2.0705654621124268,0.18393471837043762,-0.40353602170944214,0.26495227217674255,-0.8757619261741638,-0.14040932059288025,0.11197042465209961,-0.062317848205566406,0.9601199697786894,-0.10836210623398182,-0.2244475034151477,0.12669115097905548
1729785768199802000,0.871802001953125,0.7734500765800476,-2.0677080154418945,0.1667562574148178,-0.42118582129478455,0.25944599509239197,-0.8690744042396545,-0.13719433546066284,0.0888969898223877,-0.04749053716659546,0.9580046968256379,-0.10380363068074186,-0.23385382892213158,0.12947674723909147
1729785768209832200,0.881832275390625,0.887018084526062,-2.0015177726745605,0.13946978747844696,-0.43844589591026306,0.2529498040676117,-0.8624277114868164,-0.13615435361862183,0.06534862518310547,-0.01986593008041382,0.9558872302628854,-0.09868911490228005,-0.24299504341971978,0.13226292609413773
1729785768219863300,0.89186328125,0.9571825265884399,-1.9048711061477661,0.11795144528150558,-0.45500025153160095,0.24558614194393158,-0.8559569120407104,-0.15103310346603394,0.041248664259910583,0.009063661098480225,0.9538161027198949,-0.09312644760509474,-0.25169228874254934,0.1349567075863333
1729785768229893000,0.90189306640625,1.0243709087371826,-1.827528715133667,0.07785516232252121,-0.47070345282554626,0.23763346672058105,-0.8496873378753662,-0.16285675764083862,0.02300199866294861,0.026735126972198486,0.9518011401004419,-0.0872781681202853,-0.25988235462964376,0.13754404801361558
1729785768239924200,0.91192431640625,1.09822416305542,-1.7471421957015991,0.038051024079322815,-0.48572495579719543,0.22896438837051392,-0.8435915112495422,-0.17919209599494934,0.006158381700515747,0.02489650249481201,0.9498420111505341,-0.08108371908216702,-0.2676372119406527,0.13998604448420607
1729785768249954300,0.921954345703125,1.1957340240478516,-1.6717524528503418,0.019732467830181122,-0.5000706315040588,0.21950355172157288,-0.8377037644386292,-0.18968766927719116,0.0006656050682067871,0.03272634744644165,0.9479392936711705,-0.0744907083035743,-0.2749532000107915,0.14234823769594737
1729785768259985200,0.931985107421875,1.3227812051773071,-1.6119165420532227,0.036430224776268005,-0.513763964176178,0.20914851129055023,-0.8320478200912476,-0.1812129020690918,0.004535660147666931,0.03408944606781006,0.9460711355983296,-0.06739173437747185,-0.28184118034354483,0.14482228043232367
1729785768270015200,0.94201513671875,1.4818217754364014,-1.5686670541763306,0.09550739079713821,-0.52684086561203,0.19786758720874786,-0.8266118168830872,-0.15684449672698975,-0.0007849782705307007,0.045590758323669434,0.9441974727626451,-0.05969750729612914,-0.2883232397746478,0.14763832810320618
1729785768280046300,0.95204638671875,1.5976612567901611,-1.527227520942688,0.1927577704191208,-0.539370596408844,0.18594467639923096,-0.821281909942627,-0.12218952178955078,-0.013779684901237488,0.07036638259887695,0.9422530085337069,-0.051481967265515856,-0.29446333520348134,0.15099774809559915
1729785768290076200,0.962076171875,1.6531859636306763,-1.469177007675171,0.2822008430957794,-0.5512396693229675,0.17394894361495972,-0.8160126209259033,-0.08352595567703247,-0.019850358366966248,0.1062043309211731,0.9402142924428492,-0.04303141993529023,-0.3002365624386457,0.15493021646536692
1729785768300107300,0.972107177734375,1.6378722190856934,-1.4359759092330933,0.2934529781341553,-0.562569260597229,0.16216710209846497,-0.8106896281242371,-0.069907546043396,-0.03120085597038269,0.11426329612731934,0.9380999949145937,-0.034585356763121904,-0.30571071860552196,0.1591014859851652
1729785768310137300,0.982137451171875,1.623504877090454,-1.4147967100143433,0.2875668406486511,-0.5736798048019409,0.15065976977348328,-0.8051044344902039,-0.06332886219024658,-0.0696508139371872,0.13225293159484863,0.9359040789750578,-0.02624546202071563,-0.3110610285143336,0.16320478956813278
1729785768320168200,0.992168212890625,1.5108026266098022,-1.3802424669265747,0.3106681704521179,-0.5844903588294983,0.13972945511341095,-0.7992789149284363,-0.046857357025146484,-0.09894263744354248,0.15308445692062378,0.9336340270820884,-0.01817938563861887,-0.31627530254437347,0.1672335355760859
1729785768330198000,1.002197998046875,1.2434966564178467,-1.378522515296936,0.3536803722381592,-0.595044732093811,0.1307085007429123,-0.7929925322532654,-0.04689258337020874,-0.08488626778125763,0.14859867095947266,0.9312474051246667,-0.011104677491749789,-0.32152825833499055,0.17109864925841295
1729785768340229400,1.0122294921875,0.9685579538345337,-1.3822687864303589,0.37683334946632385,-0.6055150032043457,0.12420327216386795,-0.7860822081565857,-0.05355793237686157,-0.06914949417114258,0.1507977843284607,0.9287278336878173,-0.005370561230566919,-0.32700162116573794,0.1746592192983211
1729785768350259000,1.022259033203125,0.6810444593429565,-1.3749233484268188,0.36969128251075745,-0.6158710718154907,0.12005338072776794,-0.7786463499069214,-0.06338924169540405,-0.06980611383914948,0.11925303936004639,0.9261272197385015,-0.0009472598278084693,-0.33267993764880405,0.1777967360868805
1729785768360289000,1.0322890625,0.3921225965023041,-1.3936735391616821,0.3443150818347931,-0.6261889338493347,0.11815671622753143,-0.770666241645813,-0.07496768236160278,-0.06676502525806427,0.060735881328582764,0.9234743703549131,0.0021588174083563886,-0.33861808403951116,0.18035649136225632
1729785768370318800,1.04231884765625,0.1525186002254486,-1.4617072343826294,0.31399765610694885,-0.6367446780204773,0.11821558326482773,-0.7619588971138,-0.0663345456123352,-0.05748552829027176,0.006603062152862549,0.9207269828362016,0.004113871192885125,-0.34496903672068924,0.1823222831581696
1729785768380350200,1.05235009765625,-0.00013059680350124836,-1.5432894229888916,0.2846837043762207,-0.6478220820426941,0.11962500959634781,-0.7523406744003296,-0.041692137718200684,-0.04864104092121124,-0.021478235721588135,0.9178195810527804,0.005288483466276729,-0.35185463594645855,0.18378720237414523
1729785768390380000,1.062380126953125,-0.12473370879888535,-1.6234791278839111,0.2809339761734009,-0.6593294143676758,0.12197712808847427,-0.7418938279151917,-0.016757071018218994,-0.0341322124004364,-0.03999704122543335,0.9147378336847714,0.0059461759741602435,-0.3591903968805541,0.18493744825911146
1729785768400411000,1.072410888671875,-0.22552557289600372,-1.6932199001312256,0.2628124952316284,-0.6712611317634583,0.12515340745449066,-0.730578601360321,0.001140892505645752,-0.015320584177970886,-0.029705703258514404,0.9114589214443083,0.006163703565767021,-0.3669777864012578,0.18582777654331095
1729785768410441000,1.08244091796875,-0.2830910384654999,-1.6891186237335205,0.2383154034614563,-0.6832663416862488,0.12875334918498993,-0.7187278270721436,0.006798446178436279,-0.014205560088157654,0.02327805757522583,0.9080741473684721,0.006097840314533323,-0.3749652008626641,0.18645453604326756
1729785768420471000,1.092470947265625,-0.36714279651641846,-1.6199041604995728,0.20615586638450623,-0.6948235630989075,0.13262991607189178,-0.7068448066711426,-0.009247541427612305,-0.02162216603755951,0.05592012405395508,0.9047230382383854,0.005746245148680214,-0.3828114253583086,0.18681187940952573
1729785768430502000,1.102501953125,-0.4834643602371216,-1.5487964153289795,0.17189936339855194,-0.7056793570518494,0.13701047003269196,-0.6951581239700317,-0.04865419864654541,-0.017045781016349792,0.057829082012176514,0.9014888111857269,0.004903873252340877,-0.39038043236300857,0.1868075769011262
1729785768440532000,1.112531982421875,-0.5403063297271729,-1.5232248306274414,0.12456274777650833,-0.7160913944244385,0.14167878031730652,-0.6834766864776611,-0.0865514874458313,-0.00016869604587554932,0.04100543260574341,0.8983227109193629,0.0036978458813733896,-0.39780394157306753,0.1864266268620226
1729785768450563000,1.12256298828125,-0.5083153247833252,-1.5002484321594238,0.07389584183692932,-0.7262030839920044,0.14603765308856964,-0.671790361404419,-0.11963742971420288,0.022511020302772522,0.012000322341918945,0.895194574536522,0.002510593608819131,-0.40509076710558284,0.18580105781160036
1729785768460593000,1.132593017578125,-0.4069191813468933,-1.4592869281768799,0.028068430721759796,-0.7360244393348694,0.14951980113983154,-0.6602363586425781,-0.1534867286682129,0.04574701189994812,-0.019878387451171875,0.8921121585920483,0.0017071636639709351,-0.412163696783006,0.1850790853261819
1729785768470624000,1.1426240234375,-0.2601242661476135,-1.3890049457550049,-0.005199778825044632,-0.7453502416610718,0.15185265243053436,-0.6491485238075256,-0.18490183353424072,0.0697813332080841,-0.047933876514434814,0.889134356780716,0.0014841056157525847,-0.4188359192198772,0.18442996177672324
1729785768480654000,1.152654052734375,-0.07142921537160873,-1.2982803583145142,-0.038491424173116684,-0.754057765007019,0.15280917286872864,-0.6387850046157837,-0.21038931608200073,0.09348300099372864,-0.06850558519363403,0.8863082027949422,0.0020130120630784884,-0.42497463515223594,0.18398448210684348
1729785768490685000,1.162684814453125,0.012459097430109978,-1.2217214107513428,-0.08918709307909012,-0.7621580958366394,0.1525074541568756,-0.6291713714599609,-0.23149430751800537,0.10309261083602905,-0.08123207092285156,0.8836613553633205,0.003196480126525188,-0.4305857604766176,0.18365292496384808
1729785768500715000,1.172715087890625,-0.02129194140434265,-1.1389429569244385,-0.11786667257547379,-0.7696965336799622,0.15177461504936218,-0.6201062798500061,-0.24728649854660034,0.07790075242519379,-0.06014573574066162,0.8811921870009013,0.0044736387550335655,-0.4358059688409498,0.1831765648698596
1729785769022300000,1.6942998046875,3.4168038368225098,0.6097542643547058,-0.1909044086933136,-0.7840844988822937,0.3589302599430084,-0.5063403844833374,0.17184090614318848,0.10714951157569885,-0.05060535669326782,0.7727727277829459,0.021449120866678332,-0.4963564621340842,0.3949589566186355
1729785769032331000,1.7043310546875,3.131971597671509,0.6738213896751404,-0.2559654116630554,-0.7815628051757812,0.34012365341186523,-0.5229489803314209,0.18013757467269897,-0.005818784236907959,-0.061660945415496826,0.7743597664874272,0.03351463306995926,-0.4872394339352249,0.4022954639260095
1729785769042361000,1.714361083984375,2.432976007461548,0.6571089625358582,-0.2555273175239563,-0.7788224220275879,0.3231349587440491,-0.5376054644584656,0.15588229894638062,-0.1637568175792694,-0.02777838706970215,0.7759798712972917,0.043703372706999796,-0.4788395177555694,0.40823785786152217
1729785769052392000,1.724391845703125,1.1654584407806396,0.4404701590538025,-0.22933168709278107,-0.7765546441078186,0.31126299500465393,-0.5477940440177917,0.1204114556312561,-0.32537731528282166,-0.022258996963500977,0.7773793665326056,0.05027479944998919,-0.4728376243735045,0.41179905442083947
1729785769062422000,1.734422119140625,-0.2753938138484955,0.11805455386638641,-0.2391773909330368,-0.7757076025009155,0.30710387229919434,-0.5513302087783813,0.13666951656341553,-0.48351067304611206,0.07057154178619385,0.7784186376553586,0.051905512062484005,-0.47078733085263624,0.4119825163362104
1729785769072453000,1.744453125,-1.3067055940628052,-0.09977391362190247,-0.21967053413391113,-0.7764407396316528,0.3098228871822357,-0.5487710237503052,0.17153656482696533,-0.583885908126831,0.11142361164093018,0.7791004594881104,0.04925374227714758,-0.47242835203238204,0.4091309299980601
1729785769082483000,1.75448291015625,-1.806870937347412,-0.23494771122932434,-0.18147867918014526,-0.7779887914657593,0.3170298635959625,-0.5424256920814514,0.18652760982513428,-0.49882298707962036,0.03865683078765869,0.7794733107011927,0.043822982589963706,-0.47630524873845986,0.40451742900754534
1729785769092514000,1.76451416015625,-1.749498963356018,-0.19802697002887726,-0.2751622796058655,-0.7799099087715149,0.3251170814037323,-0.5348266363143921,0.15173602104187012,-0.21702370047569275,-0.038232386112213135,0.779724142849068,0.037736872276670975,-0.4807937168383367,0.3993040758242751
1729785769102544100,1.774544189453125,-1.256651759147644,-0.10606376826763153,-0.49978527426719666,-0.7819967269897461,0.3302115201950073,-0.5286223888397217,0.04487508535385132,0.05649203062057495,-0.12047123908996582,0.780401814552725,0.033008113805577374,-0.4843545031865388,0.3940612810880558
1729785769112575000,1.784574951171875,-0.4201086461544037,0.009097708389163017,-0.490983247756958,-0.7839512825012207,0.330708384513855,-0.5254070162773132,-0.021041452884674072,0.1464950442314148,-0.199019193649292,0.7814172140114776,0.031015013206688178,-0.48614252621564524,0.389988226821745
1729785769122605000,1.79460498046875,0.45028936862945557,0.058728110045194626,-0.377154141664505,-0.7851775884628296,0.32715997099876404,-0.5257971882820129,0.03731369972229004,0.1470527946949005,-0.26796501874923706,0.782375266349864,0.03207078806136489,-0.48587330205594925,0.3883139478633192
1729785769132636200,1.80463623046875,0.9887089133262634,0.13588576018810272,-0.17119275033473969,-0.7855622172355652,0.32100874185562134,-0.5290042757987976,0.09424751996994019,0.1477718949317932,-0.2987239360809326,0.7830178808731875,0.03550875549295079,-0.48398034808951257,0.3890826634809313
1729785769142666000,1.814666015625,1.1240830421447754,0.13872361183166504,-0.05869656056165695,-0.7851437926292419,0.31447961926460266,-0.5335277915000916,0.16064733266830444,0.104389488697052,-0.13392215967178345,0.7833653134504532,0.039687200495646724,-0.4813117916006532,0.39128354454547687
1729785769152697000,1.824697021484375,0.9720167517662048,0.12362082302570343,-0.022560127079486847,-0.7845732569694519,0.3083709180355072,-0.5379148125648499,0.12945234775543213,-0.003042459487915039,-0.04921281337738037,0.7835469120766453,0.04374462011884092,-0.4786742035218098,0.39371541751129197
1729785769162727200,1.83472705078125,0.5559495091438293,0.04708903282880783,0.054840922355651855,-0.7840783596038818,0.3043241798877716,-0.5409324169158936,0.09572392702102661,-0.11371132731437683,-0.00853651762008667,0.7835454574395809,0.04656447199814445,-0.4768286396373834,0.3956294806735918
1729785769172758000,1.844758056640625,0.3316394090652466,0.04354090243577957,0.11945506185293198,-0.7835544347763062,0.3027627468109131,-0.5425654649734497,0.08436614274978638,-0.18681108951568604,0.05883133411407471,0.783363902739559,0.04791520188296105,-0.47583759113302454,0.3970186844408697
1729785769182787800,1.854787841796875,0.3736065626144409,0.14539705216884613,0.09095684438943863,-0.7827204465866089,0.3017117381095886,-0.5443517565727234,0.04587352275848389,-0.20495566725730896,0.018137216567993164,0.7832824065451529,0.048844946329888526,-0.4748034255147924,0.39830220762455937
1729785769192818000,1.86481787109375,0.5665390491485596,0.18369561433792114,0.0890260562300682,-0.7815234661102295,0.2998863756656647,-0.5470733642578125,0.012297391891479492,-0.15981066226959229,-0.07168573141098022,0.7833971542257644,0.05010025748253761,-0.47323703557933494,0.3997818767178859
1729785769202849000,1.87484912109375,0.7801660895347595,0.23849068582057953,0.11588110774755478,-0.7800828814506531,0.2969871759414673,-0.5506989359855652,0.06719225645065308,-0.09876015782356262,-0.08934617042541504,0.7835148289771408,0.052075829888163214,-0.4711036346856852,0.40181342981228146
1729785769212878800,1.88487890625,0.6832627058029175,0.18791192770004272,0.1953761875629425,-0.7782754898071289,0.29402539134025574,-0.5548301339149475,0.14677518606185913,-0.10049808025360107,-0.10946124792098999,0.783549328792667,0.05420542230211875,-0.4686648176600556,0.4043088237050918
1729785769222910000,1.894909912109375,0.22206199169158936,0.06327812373638153,0.2477158159017563,-0.7769507169723511,0.29308927059173584,-0.5571771264076233,0.2178228497505188,-0.17257526516914368,-0.12585198879241943,0.7832671798359896,0.055298315898349555,-0.4672831420395002,0.4063018216415179
1729785769232940000,1.90493994140625,-0.5191598534584045,-0.09210135042667389,0.2581818103790283,-0.77623051404953,0.29586008191108704,-0.5567163228988647,0.20677250623703003,-0.2719189524650574,-0.09060728549957275,0.7827586040740199,0.05417627593872126,-0.46766095187579826,0.40699781533040935
1729785769242971000,1.914970947265625,-1.191665530204773,-0.21793703734874725,0.20398485660552979,-0.7764122486114502,0.3025517165660858,-0.5528531074523926,0.1702568531036377,-0.35771217942237854,-0.039233624935150146,0.7821290528138597,0.05052602898026975,-0.47012825006510045,0.4058333829610059
1729785769253001000,1.9250009765625,-1.5848438739776611,-0.34084179997444153,-0.02539932355284691,-0.7776381373405457,0.311068594455719,-0.5463655591011047,0.10202473402023315,-0.35412880778312683,-0.10362833738327026,0.7816088569207008,0.04534532061488182,-0.4740896859461426,0.40282800044151035
1729785769263032000,1.935031982421875,-1.6819584369659424,-0.3056880831718445,-0.29207494854927063,-0.7799957990646362,0.31877627968788147,-0.5385055541992188,0.02035224437713623,-0.1961718201637268,-0.15950769186019897,0.7814908869462208,0.039932204430743926,-0.4786988915978624,0.39815173729289355
1729785769273062000,1.945061767578125,-1.3895306587219238,-0.16480277478694916,-0.4666843116283417,-0.7825027108192444,0.3241552412509918,-0.5316135883331299,-0.02361917495727539,0.02626296877861023,-0.16078448295593262,0.7819705720864712,0.03520739640024339,-0.4826527283039098,0.39284717672737124
1729785769283093000,1.955093017578125,-0.8767081499099731,-0.005131348967552185,-0.6228688359260559,-0.7847476005554199,0.32585543394088745,-0.5272470712661743,0.0012087821960449219,0.16857516765594482,-0.1627247929573059,0.7830330649865322,0.032257109090854934,-0.485114357622306,0.38792112014761054
1729785769293123000,1.965123046875,-0.5478082299232483,0.048380717635154724,-0.6672951579093933,-0.7866949439048767,0.32444775104522705,-0.5252091884613037,0.030530452728271484,0.20094293355941772,-0.1759931445121765,0.7844632910337526,0.031034173879890957,-0.4862430453064538,0.383695050323099
1729785769303154000,1.97515380859375,-0.3891429305076599,0.1087372675538063,-0.699521005153656,-0.7885292768478394,0.3214203417301178,-0.524319052696228,0.05268949270248413,0.10031735897064209,-0.1272159218788147,0.7860250454089169,0.030779594177829207,-0.4867166545115046,0.37990010808379565
1729785769313184000,1.98518408203125,-0.4957042634487152,0.08951718360185623,-0.7122229337692261,-0.790229856967926,0.31810352206230164,-0.5237814784049988,0.07259374856948853,-0.08020368218421936,-0.08118367195129395,0.787678222518058,0.03061132780503048,-0.48700330056583924,0.3761034959827843
1729785769323215000,1.995215087890625,-0.8734329342842102,0.02084650844335556,-0.7585672736167908,-0.7922258377075195,0.31582269072532654,-0.5221438407897949,0.13020801544189453,-0.17791369557380676,-0.03802144527435303,0.7893128447494491,0.029614054819897154,-0.4879047852072651,0.3715604167958939
1729785769333245000,2.005244873046875,-1.271762490272522,-0.08360426127910614,-0.7809168100357056,-0.7948547601699829,0.3152858018875122,-0.5184599757194519,0.18284004926681519,-0.18184760212898254,-0.022784411907196045,0.7908102744753964,0.027310269037743168,-0.4899225976493653,0.36585399036979893
1729785769343276000,2.015276123046875,-1.520491361618042,-0.190998375415802,-0.7771119475364685,-0.7980384230613708,0.31634339690208435,-0.5128953456878662,0.21332156658172607,-0.1467876136302948,-0.02895951271057129,0.7920748812015113,0.023883159764467855,-0.4929319703336079,0.35925637229344626
1729785769353306600,2.025306640625,-1.5688742399215698,-0.3005084693431854,-0.694965660572052,-0.801695704460144,0.31831857562065125,-0.505922257900238,0.19525033235549927,-0.1123705804347992,-0.06811332702636719,0.7929435819232505,0.020005682331182446,-0.49662725986545514,0.3524225846683485
1729785769363337500,2.03533740234375,-1.5746948719024658,-0.2585274577140808,-0.5293223857879639,-0.8050886988639832,0.3213566839694977,-0.4985600411891937,0.12970417737960815,-0.08078652620315552,-0.08295238018035889,0.793422998306986,0.015775200923592976,-0.5004709070156871,0.346063566117975
1729785769373367600,2.045367431640625,-1.620534062385559,-0.07315625995397568,-0.4273366332054138,-0.807447075843811,0.3254413306713104,-0.4920542240142822,0.04946666955947876,-0.053636401891708374,-0.0476338267326355,0.7939351189896859,0.010900844092401251,-0.5038393236642761,0.34013864744451255
1729785769383398700,2.055398681640625,-1.613437533378601,0.04517517611384392,-0.3715450167655945,-0.8087660670280457,0.3301464915275574,-0.4867245554924011,0.021992385387420654,-0.04982718825340271,-0.03584316372871399,0.7946728470476858,0.005471118745047766,-0.5065646950589858,0.3344508572525514
1729785769393428500,2.065428466796875,-1.6362086534500122,0.003002370707690716,-0.3892132043838501,-0.8098840713500977,0.33496206998825073,-0.48154768347740173,0.07222843170166016,-0.023453831672668457,-0.056232959032058716,0.7953923944433494,-0.00007933305732941287,-0.5091425619841748,0.32882329661448273
1729785769403459600,2.07545947265625,-1.6286143064498901,-0.08782580494880676,-0.465994268655777,-0.8115467429161072,0.3393648564815521,-0.475629597902298,0.10628539323806763,0.027944833040237427,-0.05558985471725464,0.7959508672586316,-0.005457488864116444,-0.5120111423373408,0.32291979883546
1729785769413489700,2.08548974609375,-1.4752931594848633,-0.09727805852890015,-0.5200202465057373,-0.813706636428833,0.34275582432746887,-0.46946778893470764,0.10257077217102051,0.08615356683731079,-0.07022026181221008,0.796415668899723,-0.010257758079905713,-0.5149377528799071,0.31694795694982375
1729785769423519500,2.09551953125,-1.4196346998214722,-0.0057585230097174644,-0.5709441304206848,-0.8158189654350281,0.3450186550617218,-0.4641137719154358,0.08148974180221558,0.13700655102729797,-0.08649954199790955,0.7970582533982247,-0.014504073188341878,-0.5174289747139375,0.3110547552906396
1729785769433550600,2.105550537109375,-1.3454612493515015,-0.02148960344493389,-0.5772917866706848,-0.8178579807281494,0.3467384874820709,-0.45921754837036133,0.038912057876586914,0.16198962926864624,-0.1054186224937439,0.7978115324148568,-0.018556046983576265,-0.519660372842404,0.30513200581579863
1729785769443580700,2.11558056640625,-1.3339556455612183,-0.05776798725128174,-0.5348609685897827,-0.8199844360351562,0.3482162654399872,-0.4542807340621948,0.02596282958984375,0.1045883297920227,-0.09952166676521301,0.798428039748275,-0.022351233199322758,-0.5218812666577769,0.2994211280526062
1729785769453611500,2.125611572265625,-1.4280682802200317,-0.06219585984945297,-0.40924179553985596,-0.8219229578971863,0.3505362570285797,-0.44896209239959717,0.02587193250656128,0.0005227923393249512,-0.07696253061294556,0.7987983976728068,-0.02650845217622506,-0.5242292013176154,0.29394246514713906
1729785769463641600,2.1356416015625,-1.5929629802703857,-0.12758952379226685,-0.4196172058582306,-0.8237927556037903,0.35396602749824524,-0.4428020715713501,0.03140383958816528,-0.03591170907020569,-0.06290465593338013,0.7989229890470436,-0.03138552998019844,-0.5268907993677026,0.288310962551343
1729785769473672700,2.145672607421875,-1.6055940389633179,-0.15591606497764587,-0.3776726722717285,-0.8258861899375916,0.3576503098011017,-0.43588802218437195,0.005131185054779053,-0.03645271062850952,-0.06328797340393066,0.7988582652026843,-0.03652975532639125,-0.5298316457745619,0.28243510026348934
1729785769483702800,2.155702880859375,-1.5589873790740967,-0.24618472158908844,-0.21677541732788086,-0.8278043866157532,0.362028568983078,-0.4285736680030823,0.011825323104858398,-0.002378791570663452,-0.12597644329071045,0.7984416039546722,-0.041778497826883663,-0.5328862234517099,0.2770883985054633
1729785769493733600,2.165733642578125,-1.5328619480133057,-0.3097943067550659,-0.13237424194812775,-0.8296551704406738,0.36723706126213074,-0.42048710584640503,0.029285788536071777,0.033992886543273926,-0.15067988634109497,0.7975500457519733,-0.04713805635838656,-0.5362223835558991,0.272319055598301
1729785769503763700,2.175763671875,-1.5027532577514648,-0.35095295310020447,-0.09936675429344177,-0.8314785957336426,0.37262803316116333,-0.4120580554008484,-0.0037418603897094727,0.03511741757392883,-0.08827763795852661,0.7964195573356582,-0.05244432972755197,-0.539648557131182,0.2678527170869908
1729785769513794600,2.185794677734375,-1.4957194328308105,-0.2555060088634491,-0.035913750529289246,-0.8329571485519409,0.37817808985710144,-0.4039354920387268,-0.015645146369934082,0.039149850606918335,0.013005375862121582,0.7952840024920803,-0.057824253306434106,-0.5428522971148118,0.26361193257718857
1729785769523824600,2.19582470703125,-1.3338367938995361,-0.25868740677833557,-0.04321453720331192,-0.8341290950775146,0.3836534321308136,-0.39628109335899353,0.0064313411712646484,0.05987390875816345,0.029658257961273193,0.7941880399696005,-0.06311831500636779,-0.5457797447088722,0.2596265255704446
1729785769533855700,2.205855712890625,-1.0540577173233032,-0.23337166011333466,-0.08597877621650696,-0.8353280425071716,0.38784775137901306,-0.38961681723594666,0.006668984889984131,0.08171108365058899,0.02430623769760132,0.7932102515708318,-0.06739562673008237,-0.5483150734716014,0.2561756507641279
1729785769543885800,2.2158857421875,-0.8134395480155945,-0.22729457914829254,-0.1297406405210495,-0.8366442322731018,0.3905394971370697,-0.3840641975402832,-0.022807002067565918,0.10227367281913757,-0.024672865867614746,0.7923933224140655,-0.07049191620845224,-0.5504532568917531,0.2532684096495885
1729785769553916700,2.225916748046875,-0.7030436992645264,-0.13904953002929688,-0.12540128827095032,-0.837867259979248,0.3923215866088867,-0.37955552339553833,-0.06531578302383423,0.10773950815200806,-0.025321125984191895,0.791772667051133,-0.07287638728010791,-0.5521877148566118,0.2507467235968097
1729785769563946800,2.23594677734375,-0.6277060508728027,-0.13729876279830933,-0.14094136655330658,-0.8388769030570984,0.3937564194202423,-0.37582096457481384,-0.07309508323669434,0.07702308893203735,-0.021975547075271606,0.7913254440628941,-0.07500410537571643,-0.5535918143336803,0.24842409828904688
1729785769573977600,2.2459775390625,-0.7220289707183838,-0.10157906264066696,-0.16603900492191315,-0.8399245738983154,0.39490970969200134,-0.37225428223609924,-0.04062974452972412,0.040149033069610596,-0.02725127339363098,0.7909403518246338,-0.07701662525959019,-0.5549245883037571,0.24605018062512277
1729785769584007700,2.256007568359375,-0.9426167607307434,-0.18557702004909515,-0.15280601382255554,-0.8410811424255371,0.39666011929512024,-0.36775481700897217,0.017426788806915283,0.03270706534385681,-0.008374303579330444,0.790415143427483,-0.07970572413630707,-0.5565694875681773,0.24314924258433124
1729785769594038800,2.266038818359375,-1.2092572450637817,-0.3083331286907196,-0.13402807712554932,-0.8425323963165283,0.39938825368881226,-0.3614253103733063,0.08839726448059082,-0.01616370677947998,0.00957295298576355,0.789473638862595,-0.0832748690256769,-0.5588851807440369,0.2396750153014089
1729785769604068600,2.276068603515625,-1.408204436302185,-0.3943612277507782,-0.14837585389614105,-0.84437495470047,0.4029383063316345,-0.3530888259410858,0.11352473497390747,-0.02331480383872986,0.012512683868408203,0.7880662586510647,-0.08767169248785169,-0.5619335091064123,0.2355760160028869
1729785769614099700,2.286099609375,-1.304743766784668,-0.34673625230789185,-0.1793217808008194,-0.8463820815086365,0.4063377380371094,-0.34427765011787415,0.0675123929977417,0.0595589280128479,0.03060281276702881,0.7865653027172671,-0.09218839128331552,-0.5651216468535847,0.23120099310930128
1729785769624129500,2.296129638671875,-0.9554895758628845,-0.30112215876579285,-0.20038685202598572,-0.8482481241226196,0.40861955285072327,-0.33690524101257324,0.010525405406951904,0.12975633144378662,0.0015171468257904053,0.7853463728832331,-0.09579349023006162,-0.5677772311670288,0.22734040782366463
1729785769634160600,2.30616064453125,-0.6963116526603699,-0.2937960624694824,-0.20407800376415253,-0.85008305311203,0.40959805250167847,-0.3310410678386688,-0.01553279161453247,0.12281164526939392,-0.060926586389541626,0.7843249999907763,-0.09804388829474257,-0.5699709313254314,0.22439873237489202
1729785769644190500,2.3161904296875,-0.4530470669269562,-0.2571006417274475,-0.18993555009365082,-0.8517904281616211,0.40984582901000977,-0.32631218433380127,-0.01587015390396118,0.05927044153213501,0.018923938274383545,0.7834800974164472,-0.09948550678757355,-0.5717923971766182,0.22207011784552272
1729785769654220500,2.326220458984375,-0.5800469517707825,-0.07398907840251923,-0.12632061541080475,-0.8530499935150146,0.41012969613075256,-0.3226448595523834,-0.00035899877548217773,0.022075682878494263,0.1669137179851532,0.7828679185875806,-0.10080394513514015,-0.5731632707999198,0.2200920317090283
1729785769664251600,2.336251708984375,-0.43311071395874023,-0.07900727540254593,-0.140271857380867,-0.8537318110466003,0.41070520877838135,-0.32009899616241455,-0.03275805711746216,0.013184040784835815,0.2321016490459442,0.7826155098087608,-0.10244322969411099,-0.5739824769362546,0.2180884483735787
1729785769674281500,2.346281494140625,-0.40994080901145935,-0.15694937109947205,-0.08667439967393875,-0.8546162247657776,0.4109666347503662,-0.31739166378974915,-0.05416667461395264,-0.07129067182540894,0.019509702920913696,0.7821780996130144,-0.10352523187030864,-0.5749666894516436,0.21654844369714835
1729785769684312600,2.3563125,-0.5245249271392822,-0.19141307473182678,-0.08518195897340775,-0.8554925322532654,0.4117927551269531,-0.31394174695014954,-0.03258436918258667,-0.025073885917663574,-0.007881313562393188,0.781506301970005,-0.10495123172219605,-0.5762068726387566,0.21498585149719932
1729785769694342700,2.3663427734375,-0.5871337652206421,-0.24829170107841492,-0.13931125402450562,-0.8566475510597229,0.41255077719688416,-0.3097693920135498,-0.034130096435546875,0.016663819551467896,-0.04890364408493042,0.7807133393485242,-0.10659344502702432,-0.577713718571869,0.21300594907004866
1729785769704373500,2.37637353515625,-0.603425920009613,-0.4116513133049011,-0.10792376101016998,-0.8581772446632385,0.4132883846759796,-0.3045072853565216,-0.01166534423828125,-0.02248018980026245,-0.14245307445526123,0.7795787989580765,-0.10819138576184112,-0.5796904171888484,0.21097550915439328
1729785769714403600,2.386403564453125,-0.8232646584510803,-0.5871281027793884,-0.09617789089679718,-0.8600900769233704,0.41455796360969543,-0.2972993552684784,0.030194997787475586,-0.07945960760116577,-0.17645543813705444,0.7778353585871587,-0.11009070022105086,-0.5824348600557275,0.20885861905686712
1729785769724434700,2.3964345703125,-1.2808860540390015,-0.6696863174438477,-0.1472860872745514,-0.8624763488769531,0.4165968894958496,-0.2873702943325043,0.01939767599105835,-0.09637585282325745,-0.057890236377716064,0.7754871105188175,-0.11315309789294177,-0.5860983157796005,0.2056816737466932
1729785769734464800,2.40646484375,-1.5264805555343628,-0.6221064925193787,-0.15238870680332184,-0.8649278283119202,0.4193246066570282,-0.27580195665359497,-0.01695382595062256,-0.04575887322425842,0.07891789078712463,0.7729191158955129,-0.1176099680140069,-0.5901414355660978,0.2012387249993187
1729785769744495600,2.41649560546875,-1.270864725112915,-0.6160438060760498,-0.10037050396203995,-0.8671475052833557,0.42205172777175903,-0.2644383907318115,-0.024347245693206787,0.08165627717971802,0.0440099835395813,0.7703596974374101,-0.12210945231622145,-0.5940286928713152,0.196888908356772
1729785769754525700,2.426525634765625,-0.8217561841011047,-0.523645281791687,-0.05896740406751633,-0.8689954280853271,0.42410576343536377,-0.25491443276405334,-0.02260613441467285,0.2153138518333435,-0.0068652331829071045,0.7680474208262165,-0.12536113670344884,-0.597350284261165,0.1938051883531368
1729785769764556500,2.436556640625,-0.3620496094226837,-0.3941223919391632,-0.06649855524301529,-0.870402455329895,0.42507654428482056,-0.24841396510601044,-0.056797802448272705,0.27954384684562683,0.044678717851638794,0.7663591782669718,-0.12701005219331074,-0.59971781771186,0.1920952687306534
1729785769774586600,2.446586669921875,0.020773086696863174,-0.24959225952625275,-0.05470528081059456,-0.8714447021484375,0.4249628782272339,-0.24493002891540527,-0.0832672119140625,0.2687017619609833,0.11233121156692505,0.7653455119439749,-0.12713394413859092,-0.6011421998909747,0.19160200742447095
1729785769784617700,2.45661767578125,0.08796411007642746,-0.09782299399375916,-0.11922195553779602,-0.8722360730171204,0.4240627884864807,-0.24367034435272217,-0.07577729225158691,0.25417521595954895,0.20421117544174194,0.7649339238962616,-0.12644639996528387,-0.6018107158834448,0.19160218758516392
1729785769794647800,2.466647705078125,0.2103719711303711,0.006592525169253349,-0.18212954699993134,-0.872977077960968,0.4224106967449188,-0.24388641119003296,-0.08472573757171631,0.24101108312606812,0.27556368708610535,0.7650414576334454,-0.12543422263952247,-0.6019327650326337,0.19145489113139788
1729785769804678700,2.4766787109375,0.3946336805820465,0.049708835780620575,-0.2555025517940521,-0.8738293647766113,0.41975662112236023,-0.24541135132312775,-0.08997684717178345,0.17194879055023193,0.2071271538734436,0.7655220124390085,-0.12363209869210452,-0.601672191487802,0.19152490984667864
1729785769814708700,2.486708740234375,0.43091708421707153,0.16602714359760284,-0.31722158193588257,-0.8747466802597046,0.41626104712486267,-0.24808287620544434,-0.08368837833404541,0.148756742477417,0.1717890053987503,0.7663704079844741,-0.12129958626722721,-0.6010365797630051,0.19161912919050203
1729785769824739600,2.496739501953125,0.5919885039329529,0.2055753469467163,-0.4116564691066742,-0.8757948279380798,0.41176941990852356,-0.25185200572013855,-0.06751877069473267,0.1811414361000061,0.1540127396583557,0.7675970305844696,-0.11842221701934542,-0.6000418122364231,0.19162692730638617
1729785769834769700,2.506769775390625,0.8430094718933105,0.23798073828220367,-0.44379016757011414,-0.8769945502281189,0.4061785936355591,-0.25670886039733887,-0.06427431106567383,0.1820477545261383,0.1222333014011383,0.769089762879928,-0.11460460173698464,-0.5987581726079365,0.1919774648437334
1729785769844800800,2.51680078125,1.1070665121078491,0.33049601316452026,-0.4012243449687958,-0.8779831528663635,0.39986366033554077,-0.2631630599498749,-0.05568695068359375,0.1554800570011139,0.12307220697402954,0.7708969839719179,-0.10979429057027769,-0.5969620395889161,0.19313077334479756
1729785769854830800,2.526830810546875,1.1960535049438477,0.3841736614704132,-0.40819090604782104,-0.8786113262176514,0.3932638466358185,-0.27089861035346985,-0.07204192876815796,0.17089954018592834,0.18235191702842712,0.7729714258158209,-0.10448383826898519,-0.594671189243452,0.19484531557074322
1729785769864861700,2.53686181640625,1.524641513824463,0.37742066383361816,-0.5002835392951965,-0.8793026208877563,0.38561874628067017,-0.27950912714004517,-0.1208958625793457,0.2861648499965668,0.22939929366111755,0.7752453575277537,-0.09836546830636833,-0.592089240690143,0.1968487172983222
1729785769874891500,2.5468916015625,1.9946125745773315,0.507093071937561,-0.5300965905189514,-0.8800808191299438,0.37597304582595825,-0.2900037467479706,-0.15814250707626343,0.4177892506122589,0.16633135080337524,0.7778542955791675,-0.0903546265336227,-0.5889262829074146,0.19986167023172371
1729785769884922600,2.556922607421875,2.635313034057617,0.592047393321991,-0.46780896186828613,-0.8802856802940369,0.3646324574947357,-0.3035462498664856,-0.14022213220596313,0.41561055183410645,0.13638627529144287,0.7809951889297996,-0.08036458401490242,-0.5846096211070778,0.20449865365746336
1729785769894952400,2.566952392578125,3.1010308265686035,0.6031177043914795,-0.4534699618816376,-0.880024254322052,0.3516899347305298,-0.31917327642440796,-0.049632728099823,0.29390949010849,0.16640236973762512,0.7842933384217017,-0.06841247139072779,-0.5794247969072284,0.21088072464953647
1729785769904982500,2.576982421875,3.3163516521453857,0.7565786242485046,-0.5152249336242676,-0.8795229196548462,0.33682262897491455,-0.3361397087574005,-0.03548556566238403,0.2466125190258026,0.1948128640651703,0.787719952898166,-0.0550085008503008,-0.5735017155943604,0.21809877779406334
1729785769915013600,2.587013671875,3.202690601348877,0.9029574990272522,-0.4596101641654968,-0.8781121373176575,0.3210766017436981,-0.3547239601612091,-0.0804908275604248,0.14659014344215393,0.21068108081817627,0.7915713829423467,-0.04154625394856105,-0.5664908934647442,0.22533720034138913
1729785769925043500,2.59704345703125,2.4770760536193848,0.7509035468101501,-0.3714302182197571,-0.8764649629592896,0.3068319857120514,-0.3710300922393799,-0.10002124309539795,-0.10147914290428162,0.04385119676589966,0.7948756457253073,-0.029766523518322964,-0.5599990211101398,0.23170631078422635
1729785769935074600,2.607074462890625,1.5088106393814087,0.21239995956420898,-0.29250264167785645,-0.8755485415458679,0.2965601682662964,-0.38140130043029785,-0.12321555614471436,-0.4437158703804016,-0.10257691144943237,0.7969322282512397,-0.021635630866486972,-0.5557258796898302,0.2357960338565162
1729785769945104600,2.617104736328125,0.9298806190490723,-0.08534543961286545,-0.09977848082780838,-0.8759908080101013,0.29012757539749146,-0.38531309366226196,-0.03506571054458618,-0.7007567882537842,-0.15150627493858337,0.7973926216094513,-0.016265773292653187,-0.5541469866231932,0.2383728088446856
1729785769955135500,2.627135498046875,0.3771652281284332,-0.0905773863196373,0.045814935117959976,-0.8764143586158752,0.2875223755836487,-0.38630151748657227,0.04613780975341797,-0.5917367935180664,0.04908236861228943,0.7971784086883481,-0.01353413917483855,-0.5537743845080264,0.2401195617750755
1729785769965165600,2.63716552734375,0.19633206725120544,-0.02467453107237816,-0.00664481008425355,-0.8765566945075989,0.28679147362709045,-0.3865218460559845,0.008835077285766602,-0.3027063310146332,0.22503817081451416,0.796992232665586,-0.012513783036361909,-0.5536989045109262,0.2409655370211177
1729785769975196700,2.64719677734375,0.42463794350624084,0.08352949470281601,-0.0655083954334259,-0.8765745759010315,0.28525978326797485,-0.3876131474971771,-0.06184101104736328,-0.08825349807739258,0.156457781791687,0.7971412422372373,-0.011248426148930036,-0.5532331307120943,0.24160394028275958
1729785769985226800,2.657226806640625,0.6742706298828125,0.1707639992237091,-0.019309207797050476,-0.8761887550354004,0.2827000916004181,-0.39035093784332275,-0.049622952938079834,0.031890422105789185,0.05835029482841492,0.7975783538061217,-0.00904104421753554,-0.5520351334629933,0.24299017027905118
1729785769995257600,2.667257568359375,0.6751759052276611,0.1862339824438095,-0.05298487842082977,-0.8755394816398621,0.2797417938709259,-0.3939230144023895,0.041020989418029785,0.09029915928840637,0.08549720048904419,0.7981537604725405,-0.006436093614710689,-0.5504516970480281,0.24476972386755172
1729785770005287700,2.67728759765625,0.6017895340919495,0.14958728849887848,-0.1256455034017563,-0.8751086592674255,0.27645421028137207,-0.3971877098083496,0.06878840923309326,0.06479346752166748,0.13453823328018188,0.7987505757287721,-0.003869837765029371,-0.5489910403447573,0.24615350479217912
1729785770015318500,2.687318603515625,0.5678532719612122,0.12296739220619202,-0.20149526000022888,-0.8750156760215759,0.2726776897907257,-0.3999931812286377,0.05270421504974365,-0.026690661907196045,0.11184626817703247,0.7993307170611784,-0.0012342645893239643,-0.5477242773249781,0.2471175071560362
1729785770025348600,2.6973486328125,0.5400024652481079,0.08909331262111664,-0.2649970054626465,-0.8752079010009766,0.26841408014297485,-0.4024488627910614,0.04441261291503906,-0.08045622706413269,0.07826068997383118,0.7999185024504538,0.0014823210410307857,-0.5466016556988637,0.2476991560225082
1729785770035379700,2.707379638671875,0.591720700263977,0.05385170131921768,-0.35033106803894043,-0.8757332563400269,0.2634952664375305,-0.40455126762390137,0.051926374435424805,-0.05188623070716858,0.05474352836608887,0.8004832302194166,0.004453754452001849,-0.5456230686975396,0.24799682362004843
1729785770045409800,2.717409912109375,0.8806438446044922,0.06677442789077759,-0.4387083351612091,-0.8765490055084229,0.2570857107639313,-0.40690165758132935,0.047508418560028076,-0.004033893346786499,0.01708543300628662,0.8010944723619869,0.008371527108226234,-0.5444989311346086,0.24839211464152458
1729785770055440600,2.727440673828125,1.2337403297424316,0.14119631052017212,-0.4640589654445648,-0.8772677779197693,0.2487419992685318,-0.4105226397514343,0.051278889179229736,0.010657519102096558,-0.012771427631378174,0.8018899224070931,0.013743943318843538,-0.5427244036777544,0.24946754893550693
1729785770065470700,2.737470703125,1.471609115600586,0.1939529925584793,-0.46995973587036133,-0.8777095079421997,0.23897765576839447,-0.4153503179550171,0.08960825204849243,0.016362980008125305,0.013128697872161865,0.8028209618577083,0.02028881685090166,-0.540289930733496,0.2513041785286645
1729785770075501600,2.74750146484375,1.5134161710739136,0.22924445569515228,-0.4656968116760254,-0.8779276013374329,0.22858184576034546,-0.4207060635089874,0.12289214134216309,0.019526183605194092,0.08183896541595459,0.8037996688459732,0.02732124266136749,-0.5374946635430993,0.25349409972888165
1729785770085531600,2.75753173828125,1.5603543519973755,0.2980078160762787,-0.4304772913455963,-0.8778265714645386,0.2180679738521576,-0.4264586865901947,0.1317175030708313,-0.031086668372154236,0.1337493658065796,0.8048371682338422,0.03441769143505189,-0.5344025472679024,0.25586446300354804
1729785770095561500,2.7675615234375,1.5390417575836182,0.3568570613861084,-0.37410563230514526,-0.8772715926170349,0.20783299207687378,-0.4326663911342621,0.12765300273895264,-0.07990323007106781,0.15233194828033447,0.8059416990043461,0.041336225578170724,-0.5309972933548999,0.2584402685343494
1729785770105592800,2.7775927734375,1.464408040046692,0.42341798543930054,-0.30266422033309937,-0.8762370944023132,0.19828559458255768,-0.4391942024230957,0.11029154062271118,-0.07626092433929443,0.1530003547668457,0.8070858087798062,0.04781383337317147,-0.5273677365876259,0.26117006668242077
1729785770115622400,2.787622314453125,1.405472755432129,0.4562767446041107,-0.23678800463676453,-0.8748137354850769,0.1896122843027115,-0.445811927318573,0.09112226963043213,-0.07092933356761932,0.15351462364196777,0.8082305071051018,0.05371134400243896,-0.5236498112437529,0.26394985327573595
1729785770125653500,2.797653564453125,1.4768747091293335,0.4300358295440674,-0.20584100484848022,-0.8731814622879028,0.18126267194747925,-0.4524357318878174,0.06287872791290283,-0.059268563985824585,0.12318164110183716,0.8092928113058717,0.05948807513048207,-0.5198493092032552,0.2669516011543678
1729785770135683600,2.80768359375,1.6217700242996216,0.3779653310775757,-0.239179790019989,-0.8717319369316101,0.172313392162323,-0.45868468284606934,0.03521454334259033,-0.023234933614730835,0.08101445436477661,0.8101404205843723,0.06578190385929626,-0.5160720831537798,0.2702127925752888
1729785770145714400,2.81771435546875,1.6604557037353516,0.39878034591674805,-0.3483422100543976,-0.8704373240470886,0.16212798655033112,-0.464815616607666,0.006499886512756348,0.013088762760162354,0.08467346429824829,0.810949117134716,0.07272918970039076,-0.5121549181539796,0.2734400496347362
1729785770155744500,2.82774462890625,1.9973342418670654,0.28040122985839844,-0.514519989490509,-0.8694331645965576,0.14996591210365295,-0.47074025869369507,-0.009732544422149658,0.003964826464653015,0.06497859954833984,0.8117562717986367,0.0806498496574807,-0.5080605002981531,0.2764453759318858
1729785770165775600,2.837775634765625,2.256574869155884,0.34316420555114746,-0.6139813661575317,-0.8689107894897461,0.13469693064689636,-0.4762887954711914,-0.010911047458648682,0.04212199151515961,0.05473428964614868,0.8123512651315408,0.09050392701357717,-0.5036513035512657,0.2796963723006281
1729785770175805700,2.8478056640625,2.3207848072052,0.5909667611122131,-0.5932161211967468,-0.8674202561378479,0.11848006397485733,-0.4832645356655121,-0.0324820876121521,0.11194298416376114,0.16902509331703186,0.8132896743832678,0.10064250802866694,-0.4982356988037536,0.2831823270096479
1729785770185836500,2.85783642578125,2.5125036239624023,0.7976546883583069,-0.5558248162269592,-0.8646218776702881,0.1016596183180809,-0.49203091859817505,-0.05552893877029419,0.058206796646118164,0.09510403871536255,0.8145777490651394,0.11092387567037255,-0.4916100498474816,0.2871908941574974
1729785770195866600,2.86786669921875,2.5249528884887695,0.7775182723999023,-0.5154126882553101,-0.8611307144165039,0.08442467451095581,-0.5013247132301331,-0.02719026803970337,-0.018552400171756744,-0.009798884391784668,0.8158266068296071,0.12143719692197757,-0.484345588965771,0.29170087827641467
1729785770205897500,2.8778974609375,2.387995481491089,0.6401034593582153,-0.5589396953582764,-0.8579418659210205,0.06737673282623291,-0.5093095302581787,0.04602169990539551,-0.05851132422685623,0.019578754901885986,0.8167713723668742,0.13172133661799665,-0.4774879318885068,0.2958704804343406
1729785770215927600,2.887927490234375,2.407973289489746,0.5595520734786987,-0.5585061311721802,-0.8551952242851257,0.05029767006635666,-0.5158596634864807,0.04818844795227051,-0.10399326682090759,-0.01828944683074951,0.8173928415595467,0.14193832260194286,-0.4710877676630622,0.2996643371037809
1729785770225958700,2.897958740234375,2.3546268939971924,0.41280150413513184,-0.5448430180549622,-0.8528873324394226,0.03306613862514496,-0.5210468173027039,0.03153723478317261,-0.08692960441112518,-0.12014275789260864,0.8176167826317228,0.1523259482942284,-0.4650520482964155,0.30335813274411405
1729785770235988700,2.90798876953125,2.442293643951416,0.38730525970458984,-0.5034303665161133,-0.8509552478790283,0.01610482670366764,-0.5249912142753601,0.01637578010559082,-0.007514052093029022,-0.06349450349807739,0.8174494370569095,0.1626962090117724,-0.4593847430730327,0.3070374893369601
1729785770246019600,2.91801953125,2.6878833770751953,0.35817134380340576,-0.4613582491874695,-0.8490120768547058,-0.0015255757607519627,-0.5283713340759277,-0.025591254234313965,0.0638883039355278,-0.041544437408447266,0.8168921224595093,0.17371191390064114,-0.45347383375150757,0.31124421224969095
1729785770256049700,2.928049560546875,3.044412851333618,0.32339024543762207,-0.48109760880470276,-0.8471491932868958,-0.02069880999624729,-0.5309517979621887,-0.05806326866149902,0.09047732502222061,-0.032494187355041504,0.8158243102832601,0.18593239682740617,-0.44716131495095907,0.3160800348814801
1729785770266080500,2.93808056640625,3.3335177898406982,0.2977501153945923,-0.5062010884284973,-0.8453313708305359,-0.04191696271300316,-0.5325954556465149,-0.08368474245071411,0.08728140592575073,-0.06742584705352783,0.8141991632088404,0.19961092125036103,-0.4402928041781806,0.3215236821775751
1729785770276110600,2.948110595703125,3.465365171432495,0.40339532494544983,-0.47432756423950195,-0.8432029485702515,-0.06438582390546799,-0.5337257981300354,-0.10520708560943604,0.07305287569761276,-0.06283175945281982,0.8122370538341854,0.2140460332479527,-0.432806413751204,0.3273130957162344
1729785770286141700,2.9581416015625,3.208024263381958,0.37943434715270996,-0.367176353931427,-0.8407440781593323,-0.08595860004425049,-0.5345659255981445,-0.0657501220703125,0.008962810039520264,0.005436897277832031,0.8100684264689373,0.22796761777054592,-0.42514445771562076,0.3332751154368209
1729785770296171800,2.968171875,2.579904794692993,0.3020396828651428,-0.2931186556816101,-0.8386043906211853,-0.10430797934532166,-0.5346612930297852,0.015026390552520752,-0.09713851660490036,0.13413327932357788,0.8079151795418862,0.2399007005273654,-0.41846985113091695,0.33853198231330905
1729785770306201600,2.97820166015625,1.7081226110458374,0.23109014332294464,-0.2585015296936035,-0.8368539214134216,-0.1181630939245224,-0.5345214009284973,0.05120939016342163,-0.19398590922355652,0.21976310014724731,0.8063094570110336,0.24872774399565234,-0.41336884810536517,0.34223668551264025
1729785770316232700,2.988232666015625,0.8561484217643738,0.10376892983913422,-0.1938871443271637,-0.8356395363807678,-0.12688273191452026,-0.5344226360321045,0.05843305587768555,-0.23902298510074615,0.185072660446167,0.8054649440510782,0.2540258601521113,-0.410194525957277,0.3441478381000989
1729785770326262800,2.9982626953125,0.387493371963501,-0.06303044408559799,-0.16398756206035614,-0.8353407979011536,-0.13149496912956238,-0.5337740778923035,0.08038169145584106,-0.20810458064079285,0.08336526155471802,0.8050315764897548,0.2567465656229211,-0.4088938135600103,0.34468999790070803
1729785770336293600,3.008293701171875,0.32958877086639404,-0.13558481633663177,-0.208958238363266,-0.8356620669364929,-0.13487495481967926,-0.5324262380599976,0.07015907764434814,-0.11369065940380096,-0.01609671115875244,0.8046992795178167,0.25868103654191854,-0.40849846692669867,0.34448835250823634
1729785770346323700,3.01832373046875,0.46608084440231323,-0.09369061142206192,-0.2195323258638382,-0.8360010385513306,-0.13876645267009735,-0.5308918952941895,0.01866394281387329,-0.03664851188659668,-0.05213111639022827,0.804318421087621,0.2609052110557428,-0.40802268206585557,0.34426428822612903
1729785770356355600,3.02835546875,0.6433306336402893,0.008290876634418964,-0.16669787466526031,-0.83597332239151,-0.14336511492729187,-0.5297123789787292,-0.012659549713134766,0.03423430025577545,-0.029796898365020752,0.8038324024345113,0.2636247838752184,-0.4069960560829387,0.3445428706309426
1729785770366385700,3.0383857421875,0.7925134897232056,0.15449735522270203,-0.08524081856012344,-0.8353590965270996,-0.1482347697019577,-0.5293408036231995,0.001557767391204834,0.09971186518669128,0.03458988666534424,0.8032620267737188,0.2666331085519415,-0.4052608716727998,0.34560175125734116
1729785770376416800,3.048416748046875,0.9370113015174866,0.2501101493835449,-0.03991701081395149,-0.8341565132141113,-0.15326200425624847,-0.5298053026199341,0.05617189407348633,0.10615818202495575,0.04562872648239136,0.8026113918532433,0.26985970027719897,-0.4028313404144236,0.3474443368880467
1729785770386446600,3.058446533203125,0.9939422607421875,0.2021130621433258,-0.17830339074134827,-0.8327869176864624,-0.159272700548172,-0.5301868915557861,0.0988544225692749,0.06323395669460297,-0.018107116222381592,0.8019154387795167,0.2735829800470253,-0.40007364256484923,0.3493208442503498
1729785770396477700,3.068477783203125,0.9414172768592834,0.18339557945728302,-0.29011353850364685,-0.83134526014328,-0.16641384363174438,-0.5302560925483704,0.08505314588546753,0.02081453800201416,0.02860814332962036,0.8013731844604399,0.2776264387955587,-0.3972348496385116,0.3506123882010655
1729785770406507800,3.0785078125,0.8536999225616455,0.2212582677602768,-0.2740802466869354,-0.8298179507255554,-0.1736966222524643,-0.5303128957748413,0.062239766120910645,-0.003961428999900818,0.1359647512435913,0.8010103771332843,0.28150976455059173,-0.39445633453337414,0.3514810697735283
1729785770416538600,3.08853857421875,0.5408807396888733,0.35552507638931274,-0.17590628564357758,-0.8278265595436096,-0.17931661009788513,-0.5315531492233276,0.02033144235610962,-0.0489090234041214,0.1695536971092224,0.8010209277151011,0.2842285317858702,-0.3917110950288089,0.352337977117376
1729785770426568700,3.098568603515625,0.2937265932559967,0.2457468956708908,-0.009621958248317242,-0.8260018229484558,-0.18229395151138306,-0.5333760380744934,-0.0055106282234191895,-0.16641511023044586,0.037221312522888184,0.8012049177456434,0.28551943227133536,-0.38960315718537114,0.3532122280416909
1729785770436599800,3.108599853515625,0.14933179318904877,-0.04710766673088074,0.05294288694858551,-0.8255093693733215,-0.18314583599567413,-0.533846378326416,0.05193448066711426,-0.24760973453521729,-0.10757207870483398,0.801035047930234,0.28612925172189074,-0.388853250616123,0.3539295204418031
1729785770446630000,3.1186298828125,0.0979066863656044,-0.17953521013259888,-0.06808420270681381,-0.8262184858322144,-0.18376582860946655,-0.532534658908844,0.10301291942596436,-0.16347838938236237,-0.0915345549583435,0.8006176251443058,0.28682163428950724,-0.3891863488393386,0.3539475089605629
1729785770456660700,3.12866064453125,0.2923431694507599,-0.08428794890642166,-0.07377404719591141,-0.8267946243286133,-0.1853955239057541,-0.5310736298561096,0.0747498869895935,-0.004408508539199829,-0.02498716115951538,0.8002147734192059,0.2879666026556424,-0.3892793704429179,0.35382652486456856
1729785770466690800,3.13869091796875,0.5811360478401184,0.08310237526893616,-0.011791102588176727,-0.8267216682434082,-0.18805231153964996,-0.5302524566650391,0.06205791234970093,0.10374754667282104,-0.04053306579589844,0.799664796502739,0.28978394878308233,-0.3884572404118658,0.35448912363536267
1729785770476721700,3.1487216796875,0.9020053148269653,0.29779574275016785,0.023070741444826126,-0.8257210850715637,-0.19197188317775726,-0.5304068922996521,0.034369826316833496,0.08564868569374084,-0.0495796799659729,0.7989311646564916,0.2924278394319293,-0.3863709620250723,0.3562477227515458
1729785770486751500,3.15875146484375,1.0481739044189453,0.3047471344470978,0.027570683509111404,-0.8240796327590942,-0.1970064789056778,-0.5311131477355957,-0.011628985404968262,0.01129181683063507,-0.08161872625350952,0.7980397279580099,0.2957608783533345,-0.38336524969919195,0.3587328012327484
1729785770496782800,3.168782958984375,1.116528034210205,0.24614514410495758,0.0077162859961390495,-0.8226383924484253,-0.20259930193424225,-0.5312435626983643,-0.024361789226531982,-0.02374953031539917,-0.05353426933288574,0.7969090694602047,0.29955739153584654,-0.38032037577162603,0.36132787050182713
1729785770506812700,3.178812744140625,1.1290150880813599,0.17137236893177032,-0.03092937543988228,-0.8215316534042358,-0.20869706571102142,-0.5305953621864319,-0.05552840232849121,-0.015836000442504883,-0.007704257965087891,0.7956318057507331,0.3036896257786676,-0.3774585134181465,0.3636865647600378
1729785770516842500,3.188842529296875,1.163181185722351,0.2125335931777954,-0.05412870645523071,-0.8204629421234131,-0.21517413854599,-0.5296610593795776,-0.11203229427337646,0.00588458776473999,0.03463536500930786,0.7942981276214103,0.30801774528943265,-0.37455911905091493,0.3659525120568283
1729785770526873600,3.19887353515625,0.9670989513397217,0.37270328402519226,-0.04792220890522003,-0.8188095092773438,-0.22138503193855286,-0.5296599268913269,-0.17432403564453125,0.019343450665473938,0.03519892692565918,0.793241824811543,0.31191676837835547,-0.3713192215614242,0.3682354821943341
1729785770536903700,3.208903564453125,0.539774477481842,0.4082760512828827,0.006925593130290508,-0.8166050910949707,-0.22557303309440613,-0.5312936305999756,-0.2384638786315918,0.026903659105300903,0.06841832399368286,0.7928542397853178,0.31420017333657846,-0.3682817401935973,0.37017425737268184
1729785770546934500,3.2189345703125,0.2450222373008728,0.3142526149749756,0.042373333126306534,-0.8147032260894775,-0.22737403213977814,-0.5334413647651672,-0.23635274171829224,0.01639080047607422,0.07349574565887451,0.7928764496492405,0.3149794260291107,-0.36615197503216346,0.3715745436424704
1729785770556964600,3.228964599609375,-0.026966538280248642,0.14635804295539856,-0.001493724063038826,-0.8135020136833191,-0.22772349417209625,-0.5351229906082153,-0.21657311916351318,0.023866117000579834,-0.029284358024597168,0.7931007708571859,0.31490302600236336,-0.3650679245703695,0.3722268587644482
1729785770566995700,3.23899560546875,0.01679159514605999,-0.02105145901441574,0.004953522235155106,-0.8132179975509644,-0.2275773286819458,-0.5356165170669556,-0.18653786182403564,0.12274950742721558,-0.10525256395339966,0.7932458926337813,0.31469071760249273,-0.3649129898081653,0.37224888968363495
1729785770577025500,3.249025634765625,0.3570670187473297,-0.0046871863305568695,0.012091060169041157,-0.8133317232131958,-0.2284214347600937,-0.5350844264030457,-0.12786096334457397,0.22681930661201477,-0.15464341640472412,0.7929138892864437,0.3153995404196065,-0.3646655006457542,0.3725988875191
1729785770587056600,3.259056640625,0.6825404763221741,0.09905731678009033,-0.05773915350437164,-0.8130793571472168,-0.23139552772045135,-0.5341892838478088,-0.10641533136367798,0.21178801357746124,-0.20923423767089844,0.7921906409483096,0.3174466483196766,-0.3635010261778822,0.3735354007677542
1729785770597086700,3.269086669921875,0.9259079098701477,0.2281074970960617,-0.0806090459227562,-0.8119959831237793,-0.23633579909801483,-0.5336740016937256,-0.09278923273086548,0.13828285038471222,-0.12364411354064941,0.7913430222932504,0.3204777773615448,-0.36118831999664247,0.3749843156035655
1729785770607117600,3.27911767578125,1.0422890186309814,0.28625017404556274,-0.02258569374680519,-0.8105109333992004,-0.24206414818763733,-0.5333638787269592,-0.057088613510131836,0.01443357765674591,-0.01593726873397827,0.7902968051350829,0.32402474917624463,-0.35822620405445565,0.3769786967600676
1729785770617147600,3.289147705078125,1.0515289306640625,0.32239118218421936,0.005787358619272709,-0.8088201880455017,-0.24772202968597412,-0.5333326458930969,-0.03932434320449829,-0.0818219780921936,0.0003432035446166992,0.7891556214757623,0.32759364446341477,-0.35498742320180365,0.3793411836173279
1729785770627178800,3.2991787109375,0.9712104201316833,0.29885682463645935,0.033540427684783936,-0.8072014451026917,-0.25301381945610046,-0.533301055431366,-0.0280953049659729,-0.11399054527282715,0.04537075757980347,0.7879809679041521,0.33100018369041645,-0.3518356871695031,0.3817547231694111
1729785770637208600,3.30920849609375,0.7621376514434814,0.3186809718608856,0.032944146543741226,-0.8056413531303406,-0.2573576867580414,-0.5335812568664551,0.011177301406860352,-0.09254154562950134,0.13460975885391235,0.7870027473948625,0.33377225884942113,-0.3490063684917195,0.3839495554415973
1729785770647239700,3.31923974609375,0.5591467618942261,0.3389774262905121,-0.01753101497888565,-0.8039034008979797,-0.260800302028656,-0.5345301628112793,0.023706257343292236,-0.05426311492919922,0.15545612573623657,0.7864549543503346,0.33571315504091903,-0.3464557476889685,0.38568596417927564
1729785770657269800,3.329269775390625,0.43006187677383423,0.2644243836402893,-0.10891765356063843,-0.8020572066307068,-0.2638746500015259,-0.5357932448387146,0.03223609924316406,-0.029002487659454346,0.0957908034324646,0.7862990048569299,0.3371136992151738,-0.34417689910158344,0.3868209816065251
1729785770667300600,3.339300537109375,0.5418573617935181,0.18692372739315033,-0.23151680827140808,-0.8004541397094727,-0.26782113313674927,-0.5362322926521301,0.04637998342514038,0.004576534032821655,0.029014885425567627,0.7861932261191713,0.33887496955066776,-0.34212219853087805,0.38731962218457416
1729785770677330700,3.34933056640625,0.6954466700553894,0.12291397154331207,-0.2594892978668213,-0.7988930940628052,-0.27315613627433777,-0.5358690619468689,0.0365334153175354,0.062081336975097656,-0.0850568413734436,0.7859143492483283,0.3414151521695343,-0.3398546184589101,0.3876510452814015
1729785770687361800,3.35936181640625,0.833193838596344,0.07902028411626816,-0.23413309454917908,-0.7977001667022705,-0.2792360484600067,-0.5345107316970825,0.04077261686325073,0.0988161563873291,-0.16222083568572998,0.7852321208821855,0.34466884391104285,-0.3375618912277628,0.3881570179959137
1729785770697391900,3.369391845703125,0.8470849990844727,0.08889938145875931,-0.2567063271999359,-0.7965964674949646,-0.2857193648815155,-0.5327274203300476,0.0575217604637146,0.09861615300178528,-0.07841753959655762,0.7843502488675028,0.34827689319790134,-0.3351708270945799,0.388790965449861
1729785770707422700,3.379422607421875,0.7688402533531189,0.0715361014008522,-0.36072778701782227,-0.795275092124939,-0.2924998104572296,-0.5310192704200745,0.03990393877029419,0.0871623158454895,-0.05360597372055054,0.7836686125951232,0.3518167831934587,-0.33273910775411186,0.38906717529494345
1729785770717452800,3.389452880859375,0.794564962387085,0.05784202367067337,-0.42457813024520874,-0.7937560081481934,-0.2997133433818817,-0.5292668342590332,0.021127164363861084,0.0968019962310791,-0.005614757537841797,0.7832009014336764,0.3553426911474475,-0.33030010899487466,0.3888828341264977
1729785770727482600,3.399482666015625,0.9904441833496094,0.06285276263952255,-0.4567163586616516,-0.7920596599578857,-0.30792006850242615,-0.5270928144454956,0.023123443126678467,0.13557207584381104,0.04465562105178833,0.7825798387540084,0.3594239169922061,-0.3275180229710906,0.38873546103214646
1729785770737513700,3.409513671875,1.414562463760376,0.1514618843793869,-0.4467042088508606,-0.7900961637496948,-0.3177436292171478,-0.5242013931274414,-0.012714505195617676,0.18760144710540771,0.004151344299316406,0.7814818354324323,0.3646008934550499,-0.3239837619656709,0.38908481242789383
1729785770747543600,3.41954345703125,1.872001051902771,0.27943184971809387,-0.3981694281101227,-0.7875747084617615,-0.3298286497592926,-0.5205182433128357,-0.0322190523147583,0.1745399832725525,-0.008091986179351807,0.7796032140836118,0.37136747532214165,-0.31910354880043723,0.39048436331394687
1729785770757574700,3.42957470703125,1.7989751100540161,0.2866189479827881,-0.29603081941604614,-0.7848472595214844,-0.34228163957595825,-0.5165830254554749,-0.022174835205078125,0.05697286128997803,-0.013812482357025146,0.7772364665000845,0.37863076354887415,-0.31360363881855513,0.39267662074362597
1729785770767604500,3.4396044921875,1.4993537664413452,0.1702665239572525,-0.2451316863298416,-0.7827610969543457,-0.3528464436531067,-0.5126252174377441,0.024902760982513428,-0.09998863935470581,0.03490304946899414,0.7749597030371763,0.384999473375943,-0.308970540371099,0.3946520635951001
1729785770777635600,3.449635498046875,1.1817220449447632,0.11106002330780029,-0.3108086884021759,-0.7810433506965637,-0.3618736267089844,-0.5089389681816101,0.045722246170043945,-0.19400402903556824,0.09226715564727783,0.7731127015923585,0.3903492620656685,-0.3052179238998193,0.39593729272055883
1729785770787665700,3.459665771484375,1.1018974781036377,0.056856174021959305,-0.3372301757335663,-0.7794366478919983,-0.37015318870544434,-0.5054358243942261,0.005403876304626465,-0.10117554664611816,0.0541113018989563,0.7716854881530858,0.3950321725544779,-0.3020458134993912,0.39650936723409475
1729785770797696500,3.469696533203125,1.284981608390808,0.07047808170318604,-0.2560114860534668,-0.7780195474624634,-0.3784550726413727,-0.5014554858207703,-0.0064348578453063965,0.09499257802963257,0.02597630023956299,0.7700287551251559,0.399922604181807,-0.2988882305622746,0.3972199359065251
1729785770807726600,3.4797265625,1.666560173034668,0.16813673079013824,-0.12242600321769714,-0.7767180800437927,-0.3872971534729004,-0.49669915437698364,-0.00817883014678955,0.2086014747619629,-0.010213077068328857,0.7675968043021274,0.4056551925265624,-0.29511741328220303,0.39892955588381324
1729785770817757700,3.4897578125,1.8442747592926025,0.22688505053520203,-0.08286847174167633,-0.7753125429153442,-0.39679262042045593,-0.4913715720176697,0.011060833930969238,0.18110963702201843,-0.05803638696670532,0.7644603469732629,0.41217174294922976,-0.290566119794445,0.4016044550427972
1729785770827787500,3.49978759765625,1.833853006362915,0.12294480949640274,-0.22529113292694092,-0.7738460302352905,-0.40693923830986023,-0.4853481352329254,0.06716567277908325,0.09129595756530762,-0.019611001014709473,0.7611579734730568,0.4190743815365319,-0.28583666874559904,0.40411953689359403
1729785770837818600,3.509818603515625,1.7207587957382202,0.02243172749876976,-0.44905924797058105,-0.7720744609832764,-0.41818052530288696,-0.4785667359828949,0.09041851758956909,0.024915754795074463,0.06442797183990479,0.7581835681118365,0.4261857542841775,-0.2812158054922465,0.4055133996599444
1729785770847848700,3.5198486328125,1.7064437866210938,0.08296298235654831,-0.5489112734794617,-0.7697262763977051,-0.4302557408809662,-0.4715946912765503,0.0389522910118103,0.019122928380966187,0.1332005262374878,0.755583885516977,0.4333086264765584,-0.2764892245751399,0.4060669863510095
1729785770857879600,3.529879638671875,1.6811988353729248,0.24043485522270203,-0.45502471923828125,-0.7667297124862671,-0.4421570897102356,-0.4654273986816406,-0.06533205509185791,0.041247665882110596,0.16234207153320312,0.7531480693158612,0.44008397254960646,-0.2713160342755066,0.4067944394125786
1729785770867909600,3.53990966796875,1.6204081773757935,0.41283324360847473,-0.21258839964866638,-0.763696014881134,-0.4524259567260742,-0.4605206251144409,-0.13860201835632324,0.04535198211669922,0.21413695812225342,0.7506006516454288,0.446107103251779,-0.2659476333087062,0.40848382573422376
1729785770877940700,3.549940673828125,1.3915797472000122,0.42943277955055237,0.0301843099296093,-0.7613425850868225,-0.4600710868835449,-0.45682841539382935,-0.11767047643661499,-0.03516814112663269,0.27581337094306946,0.7479112836192044,0.4510600227206254,-0.2610184954207764,0.4111484027016514
1729785770887970600,3.559970458984375,0.9246776103973389,0.45495012402534485,0.09229854494333267,-0.7596932649612427,-0.46480825543403625,-0.45477402210235596,-0.04777127504348755,-0.13536563515663147,0.36547958850860596,0.7456767280175232,0.4544145337533837,-0.25713891645473125,0.41394830200984806
1729785770898001700,3.570001708984375,0.5893868803977966,0.4573483169078827,0.011664687655866146,-0.7578344941139221,-0.4677893817424774,-0.4548187851905823,-0.016274452209472656,-0.16929557919502258,0.3831634521484375,0.7444620397027624,0.4561589845507616,-0.25398737483121797,0.4161559642849967
1729785770908031700,3.58003173828125,0.3767494261264801,0.3793871998786926,-0.01211014948785305,-0.7558822631835938,-0.4700104892253876,-0.4557766020298004,-0.006935179233551025,-0.19411304593086243,0.24729573726654053,0.7439086334593249,0.45706903510821023,-0.2513952877970431,0.4177180862114353
1729785770918062600,3.5900625,0.20979461073875427,0.3674512207508087,-0.005557974334806204,-0.7541549801826477,-0.47141891717910767,-0.45718100666999817,0.00746607780456543,-0.15677016973495483,0.10497766733169556,0.743717499386549,0.45740085453736856,-0.2493871563011798,0.41889712246492006
1729785770928092700,3.6000927734375,0.15861664712429047,0.19518278539180756,0.04186280444264412,-0.7528854608535767,-0.4720716178417206,-0.45859792828559875,-0.010130345821380615,-0.07883170247077942,-0.024159610271453857,0.7436625261011816,0.45739324233954615,-0.2479767191292237,0.41983943923387246
1729785770938122800,3.610122802734375,0.17923928797245026,0.18018247187137604,0.17341522872447968,-0.7525500655174255,-0.4722197949886322,-0.45899564027786255,0.008439898490905762,0.017553657293319702,-0.09778237342834473,0.7432801277579146,0.4575947381896063,-0.2472028345477619,0.42075236129566634
1729785770948153900,3.62015380859375,0.15686234831809998,0.06647402048110962,0.05958054959774017,-0.7527538537979126,-0.4718528985977173,-0.45903873443603516,0.0373607873916626,0.14012682437896729,-0.049857139587402344,0.7427810051050915,0.45775913880527447,-0.24685461431322422,0.42165847986972177
1729785770958183700,3.63018359375,0.29204919934272766,0.1715986430644989,-0.045888617634773254,-0.7522018551826477,-0.47291290760040283,-0.4588525891304016,-0.03531944751739502,0.15705600380897522,0.050741046667099,0.7424075656039084,0.4583586611755074,-0.24592895252026067,0.42220521631307784
1729785770968214800,3.64021484375,0.41721323132514954,0.3802567720413208,0.12516115605831146,-0.7510498762130737,-0.4743475019931793,-0.4592587947845459,-0.044253528118133545,0.05408993363380432,0.0810544490814209,0.7419182377140983,0.4590343199240448,-0.24425006328894802,0.42330465475095275
1729785770978244900,3.650244873046875,0.49749964475631714,0.13975472748279572,0.27118760347366333,-0.7507271766662598,-0.4748513400554657,-0.4592658281326294,0.024988532066345215,-0.18611368536949158,-0.09726804494857788,0.740696959929891,0.4598969018645993,-0.24261477140262494,0.42544224617191445
1729785770988275700,3.660275634765625,-0.009686351753771305,-0.12994225323200226,0.13440045714378357,-0.7518419027328491,-0.47460120916366577,-0.45769819617271423,0.03951573371887207,-0.3309866189956665,-0.27483057975769043,0.7395696365778489,0.46075844917415515,-0.2425954448078012,0.4264810243212728
1729785770998305500,3.670305419921875,-0.5977733135223389,-0.09896756708621979,0.09451190382242203,-0.7528439164161682,-0.47226542234420776,-0.45846664905548096,0.027105212211608887,-0.200006365776062,-0.006758630275726318,0.73996491265706,0.45963079133358026,-0.2439389585573829,0.4262457765222069
1729785771008337000,3.6803369140625,-0.8368948101997375,-0.39126279950141907,0.09383518993854523,-0.7543624043464661,-0.468206524848938,-0.4601304233074188,0.02165067195892334,-0.194482684135437,-0.03808429837226868,0.7411458523273832,0.45731549283529116,-0.24657113552503962,0.42516827909232224
1729785771018366500,3.690366455078125,-1.0671863555908203,-0.47651541233062744,0.1268535852432251,-0.7569766640663147,-0.4629823863506317,-0.4611222743988037,-0.005016803741455078,-0.2108304500579834,-0.1654341220855713,0.7425142189695615,0.45461269361995416,-0.2505317691859124,0.42336025161210217
1729785771028397600,3.7003974609375,-1.110319972038269,-0.4253779351711273,0.1400516778230667,-0.7596998810768127,-0.4567895829677582,-0.46281686425209045,-0.02330493927001953,-0.03791561722755432,0.0037256479263305664,0.7441860699580628,0.451245691781509,-0.25488997086890974,0.42142091483431904
1729785771038427600,3.710427734375,-0.8593391180038452,-0.3117913007736206,0.1496254801750183,-0.7620977163314819,-0.45107340812683105,-0.46447813510894775,-0.05607861280441284,0.06821513175964355,0.039917588233947754,0.745631448480761,0.4481460837189082,-0.25870063602018945,0.41984865679392236
1729785771048458500,3.72045849609375,-0.6610009670257568,-0.15778203308582306,0.14091640710830688,-0.7638497352600098,-0.44642066955566406,-0.4660925567150116,-0.06731182336807251,0.10213661193847656,0.03278869390487671,0.746708422478446,0.4456190066453609,-0.261490763271915,0.41889483399476257
1729785771058488600,3.730488525390625,-0.4399728775024414,-0.009970578365027905,0.10090908408164978,-0.7647709846496582,-0.4428665041923523,-0.467968612909317,-0.0579524040222168,0.1116134524345398,0.06692183017730713,0.7475820759396179,0.44353946515647463,-0.2632269759442641,0.41845596801362234
1729785771068519700,3.740519775390625,-0.32750624418258667,0.028985608369112015,0.06792290508747101,-0.7650840878486633,-0.4404858946800232,-0.46970057487487793,-0.045279741287231445,0.04976934194564819,0.05974268913269043,0.7482377399522672,0.44202009509589973,-0.2641362269691068,0.4183188816317393
1729785771078549500,3.750549560546875,-0.5057488083839417,0.046516239643096924,0.06973171979188919,-0.765195906162262,-0.4380754828453064,-0.4717680513858795,-0.029756486415863037,-0.024128466844558716,0.08236372470855713,0.7490323203735527,0.4403450863405473,-0.2649757957517813,0.4181323657349183
1729785771088580600,3.76058056640625,-0.8693565726280212,0.041096705943346024,0.07902242243289948,-0.7653378248214722,-0.43425244092941284,-0.4750608801841736,-0.015301764011383057,-0.07285812497138977,0.1175169050693512,0.7504282703600156,0.4375945765474157,-0.26642175889196384,0.4175977273463766
1729785771098610700,3.770610595703125,-1.0177946090698242,0.13905054330825806,0.08977334201335907,-0.7652586102485657,-0.42897799611091614,-0.4799555838108063,-0.011718988418579102,-0.12194058299064636,0.09325206279754639,0.7524781367447347,0.433652146233676,-0.2682685659848581,0.41683885750112043
1729785771108641500,3.7806416015625,-0.9341508746147156,-0.02941916510462761,0.09511110931634903,-0.7653236985206604,-0.42350873351097107,-0.4846855401992798,-0.0276603102684021,-0.18383681774139404,-0.09017407894134521,0.7545171864513512,0.42966043944796145,-0.2702760421413824,0.4159888288402264
1729785771118671600,3.790671630859375,-0.7922168374061584,-0.1766940951347351,0.05461721494793892,-0.766203761100769,-0.41866549849510193,-0.4874947667121887,-0.0034496188163757324,-0.10365810990333557,-0.18180149793624878,0.7560560771849544,0.4265012014192749,-0.27267074672864405,0.41488159224231036
1729785771128702700,3.80070263671875,-0.49526822566986084,-0.19157131016254425,-0.04169334098696709,-0.7671725153923035,-0.415388822555542,-0.48877257108688354,0.008764863014221191,0.12245061993598938,-0.13528144359588623,0.7571815496770059,0.42439318969724166,-0.2747801687174275,0.4135970797496894
1729785771138732500,3.810732666015625,-0.01601209118962288,-0.13453876972198486,-0.10487790405750275,-0.7676502466201782,-0.41467714309692383,-0.48862671852111816,-0.008701741695404053,0.22182130813598633,-0.06300902366638184,0.7576835292803579,0.4238251716261901,-0.275787704703175,0.4125883216638976
1729785771148763600,3.820763671875,0.19584529101848602,0.04144664853811264,-0.08862169831991196,-0.7674235701560974,-0.41602733731269836,-0.4878344237804413,-0.023500502109527588,0.19616344571113586,-0.047001421451568604,0.7576168687253169,0.4244724029276145,-0.27551037161355885,0.41223053998548126
1729785771158793700,3.830793701171875,0.2202674299478531,0.11814174801111221,-0.01541886106133461,-0.7667790651321411,-0.4175055921077728,-0.4875849485397339,-0.04489701986312866,0.12227854132652283,0.017812609672546387,0.7573743117616836,0.4252014854797223,-0.2746110376883516,0.4125248813283892
1729785771168823800,3.84082373046875,0.003158274106681347,0.1353931725025177,0.05148134380578995,-0.7662448287010193,-0.4179671108722687,-0.48802927136421204,-0.03255283832550049,0.025678902864456177,0.04238104820251465,0.7572321587527501,0.4253942525009313,-0.2739070943137184,0.41305486097388083
1729785771178854700,3.850854736328125,-0.38437721133232117,0.01462872140109539,0.09368392825126648,-0.7661429047584534,-0.4164835214614868,-0.4894554913043976,0.011015892028808594,-0.058049559593200684,0.0731499195098877,0.7575898410898985,0.42441103075598485,-0.2741305054067938,0.41326204025703267
1729785771188884700,3.860884765625,-0.8962876200675964,-0.14109297096729279,0.047498852014541626,-0.7668097019195557,-0.41273340582847595,-0.49158331751823425,0.06681269407272339,-0.11500704288482666,0.10051578283309937,0.7586750272717129,0.4220238946073919,-0.27586984566263095,0.41255788260574183
1729785771198915800,3.870915771484375,-1.4459987878799438,-0.1647048145532608,-0.05381418392062187,-0.7676119804382324,-0.4069361090660095,-0.49515148997306824,0.06456321477890015,-0.13055473566055298,0.14384835958480835,0.7609278111816288,0.4178871193758574,-0.2789168624815425,0.4105663527875417
1729785771208945700,3.880945556640625,-1.967957615852356,-0.20468951761722565,-0.08738146722316742,-0.7681642770767212,-0.3989880681037903,-0.5007317662239075,0.018652498722076416,-0.13549679517745972,0.12858515977859497,0.7644019152218633,0.41180816135176906,-0.28292781125670335,0.40749939111130445
1729785771218976800,3.890976806640625,-2.3659873008728027,-0.2741284668445587,-0.004605361260473728,-0.769182562828064,-0.38839513063430786,-0.5074519515037537,0.0015586614608764648,-0.12886252999305725,0.09021562337875366,0.7686114545913074,0.4040149841008242,-0.2881768997952826,0.40368601997920067
1729785771229006800,3.9010068359375,-2.6060373783111572,-0.29293569922447205,-0.016766954213380814,-0.7706472873687744,-0.37557268142700195,-0.5148280262947083,0.02507239580154419,-0.06424659490585327,0.09838515520095825,0.77320971980592,0.39491739403293025,-0.2943233758928775,0.39945051960315403
1729785771239037700,3.91103759765625,-2.604586124420166,-0.2678169906139374,-0.0661851018667221,-0.7719176411628723,-0.3623136579990387,-0.5223714113235474,-0.00931704044342041,-0.005896121263504028,0.05940455198287964,0.7780080039536028,0.38535782099049576,-0.3005222716901797,0.39482809401543323
1729785771249067800,3.92106787109375,-2.342374086380005,-0.338570773601532,-0.0722041130065918,-0.7732312679290771,-0.3497294485569,-0.5289639830589294,-0.018272697925567627,0.033201128244400024,-0.020321965217590332,0.7824546084693592,0.3763025974400893,-0.3064545174863606,0.3901883506087522
1729785771259099000,3.931098876953125,-1.988322138786316,-0.3371950685977936,-0.020248770713806152,-0.7749223709106445,-0.33853963017463684,-0.5337475538253784,-0.0053206682205200195,0.07883507013320923,-0.06714355945587158,0.786047324388054,0.36853238428173635,-0.31194569192683047,0.38600976251685476
1729785771269128400,3.94112841796875,-1.6621171236038208,-0.2697227895259857,-0.106315478682518,-0.776400089263916,-0.32922449707984924,-0.5374144315719604,-0.017056941986083984,0.14273160696029663,-0.06747448444366455,0.7890056250377615,0.36203785730678484,-0.3165775787326281,0.38233174642062107
1729785771279159800,3.951159912109375,-1.4282783269882202,-0.2008546143770218,-0.11072727292776108,-0.7772495150566101,-0.3217948377132416,-0.5406768918037415,-0.08711522817611694,0.13270795345306396,-0.08475041389465332,0.7916421967456552,0.35654722269712924,-0.3202118710553551,0.3790003281094339
1729785771289189600,3.961189697265625,-1.2432377338409424,-0.1392085701227188,-0.057212378829717636,-0.7779345512390137,-0.3151613771915436,-0.5435910224914551,-0.062458574771881104,0.09529751539230347,-0.07660245895385742,0.7938806977188295,0.35170119579815307,-0.3232812287280105,0.37623002943854
1729785771299220500,3.971220458984375,-1.2375733852386475,-0.11489363759756088,-0.05838177353143692,-0.7783774733543396,-0.30889537930488586,-0.546545684337616,-0.0444679856300354,0.05599626898765564,-0.09565097093582153,0.7959687408012082,0.34710123613264376,-0.32595689281316076,0.3737734886480786
1729785771309250600,3.98125048828125,-1.1509552001953125,-0.18337975442409515,-0.07482626289129257,-0.7790088057518005,-0.302715003490448,-0.5490983128547668,-0.022367537021636963,0.04381918907165527,-0.11740553379058838,0.7979165508001672,0.3426526664669733,-0.328694379335132,0.37131980035341355
1729785771319281700,3.99128173828125,-0.9807700514793396,-0.273840069770813,-0.10754399001598358,-0.780006468296051,-0.29761528968811035,-0.5504682064056396,0.01824188232421875,-0.0012890994548797607,-0.10071587562561035,0.7995295125935232,0.3389881518881401,-0.3314406995708198,0.3687639461985863
1729785771329311500,4.0013115234375,-0.9333574771881104,-0.17670156061649323,-0.08689570426940918,-0.7810155749320984,-0.29308971762657166,-0.5514644384384155,0.02280634641647339,-0.04203897714614868,-0.0332065224647522,0.8009134346792489,0.3357639989584111,-0.33396153450421445,0.3664285217818892
1729785771339342600,4.011342529296875,-0.9297392964363098,-0.07443180680274963,-0.06808367371559143,-0.7814671397209167,-0.2885919213294983,-0.5531942844390869,-0.0033077001571655273,-0.02494564652442932,0.050066232681274414,0.8024064902775695,0.33240204764157744,-0.33602341021383014,0.36433653095591495
1729785771349372700,4.02137255859375,-1.1317325830459595,-0.03344522416591644,0.06407463550567627,-0.7817273139953613,-0.2829573154449463,-0.5557315945625305,-0.03745609521865845,-0.013765037059783936,0.08141213655471802,0.8040287547603504,0.3283851306454509,-0.33807897902862866,0.36249642930408393
1729785771359403000,4.031403076171875,-1.4505269527435303,-0.04829186946153641,0.14101015031337738,-0.782277524471283,-0.27488085627555847,-0.5590013265609741,-0.0029550790786743164,0.00983572006225586,0.11458909511566162,0.8058480946650161,0.3230819740809575,-0.3407599767211044,0.36070715322535135
1729785771369432600,4.0414326171875,-1.8355698585510254,-0.13116438686847687,0.14649227261543274,-0.7831307053565979,-0.26450279355049133,-0.5628007054328918,0.0100288987159729,-0.01998201012611389,0.10525059700012207,0.8080830362811313,0.3163304462426674,-0.34428868027639065,0.3583326247195789
1729785771379462700,4.051462646484375,-2.1719179153442383,-0.24097764492034912,0.14443232119083405,-0.7845937013626099,-0.25193172693252563,-0.5665183663368225,0.03814905881881714,-0.07488095760345459,0.07929003238677979,0.8106291209701184,0.30825083111835205,-0.34888713346705363,0.355161394664895
1729785771389493800,4.06149365234375,-2.3754522800445557,-0.3271218538284302,0.10364893823862076,-0.7865160703659058,-0.23797550797462463,-0.5698772668838501,0.04898250102996826,-0.10784962773323059,0.05184143781661987,0.8134087212690251,0.29923029968483494,-0.3542916757137485,0.3511479118861339
1729785771399523800,4.07152392578125,-2.2696802616119385,-0.31157761812210083,0.15944722294807434,-0.7886916995048523,-0.22346413135528564,-0.5727384686470032,0.030986011028289795,-0.07318194210529327,-0.012344598770141602,0.8160545493485808,0.2899733977692205,-0.3599252789963111,0.34702215772449246
1729785771409554700,4.0815546875,-1.928887963294983,-0.24890543520450592,0.15364551544189453,-0.790639340877533,-0.2101055383682251,-0.5751045346260071,0.01848357915878296,-0.000786125659942627,-0.05381697416305542,0.8182897057381874,0.28154837518989917,-0.3649359495785333,0.3434448362021922
1729785771419584800,4.091584716796875,-1.40704345703125,-0.20836564898490906,0.10900668799877167,-0.7922444939613342,-0.19938215613365173,-0.5767108798027039,-0.03899329900741577,0.07560291886329651,-0.12148547172546387,0.8199861778931116,0.27480875113360453,-0.3689508136163638,0.34055569300453686
1729785771429615600,4.10161572265625,-0.8199642300605774,-0.05804084613919258,0.11337719857692719,-0.793255090713501,-0.1920650154352188,-0.5778039693832397,-0.0503118634223938,0.2221553921699524,-0.13046324253082275,0.8210650357941568,0.27025926215284135,-0.37156149490992396,0.3387539508055946
1729785771439645700,4.111645751953125,-0.3777978718280792,0.12542122602462769,0.029617056250572205,-0.7931657433509827,-0.18801146745681763,-0.5792580246925354,-0.02728414535522461,0.3752979040145874,-0.08727633953094482,0.8217893207473631,0.26762659165881125,-0.37248755729593974,0.3380701971915331
1729785771449676800,4.1216767578125,-0.13677991926670074,0.12744203209877014,-0.064847931265831,-0.7923523783683777,-0.18680459260940552,-0.5807597041130066,-0.03623044490814209,0.3876255452632904,-0.10612994432449341,0.8224058230368417,0.2664488877786131,-0.3723239664140165,0.33768125401686483
1729785771459707000,4.131706787109375,-0.31051409244537354,0.08237361907958984,-0.09430834650993347,-0.7915440201759338,-0.18634013831615448,-0.5820098519325256,0.011301040649414062,0.23252853751182556,-0.06828916072845459,0.8230044829953629,0.265627955350732,-0.3720710268159822,0.33714781204609107
1729785771469737700,4.14173779296875,-0.8987501859664917,-0.055469196289777756,-0.05103065073490143,-0.7913163304328918,-0.1835431158542633,-0.5832070112228394,0.04951024055480957,0.01673409342765808,-0.0049735307693481445,0.8239407041341652,0.26333241775452787,-0.37289748655588045,0.3357457290257757
1729785771479767800,4.151767822265625,-1.7318315505981445,-0.18695925176143646,0.044424500316381454,-0.7920397520065308,-0.17590919137001038,-0.5845759510993958,0.05850398540496826,-0.18280962109565735,0.08491170406341553,0.8254265859210618,0.2581337604284682,-0.375604838785302,0.3331050639894015
1729785771489799000,4.161798828125,-2.45161771774292,-0.26558804512023926,0.07749057561159134,-0.7934777140617371,-0.1629711240530014,-0.5863732695579529,0.050344109535217285,-0.2811358869075775,0.18230527639389038,0.8275733497814095,0.24963021448962014,-0.38012909614937856,0.3291033365695781
1729785771499828700,4.171828857421875,-2.664931058883667,-0.2804569900035858,0.10701517760753632,-0.7952877879142761,-0.14693236351013184,-0.5881565809249878,-0.006363213062286377,-0.2614690661430359,0.1473149061203003,0.8300747260194069,0.23910368055805084,-0.3856826987200564,0.3241206830266625
1729785771509859800,4.18185986328125,-2.5462024211883545,-0.253653347492218,0.1961682140827179,-0.7969892024993896,-0.13024453818798065,-0.5897834897041321,-0.06374382972717285,-0.17384779453277588,0.023392558097839355,0.8323988708601131,0.228306666140847,-0.3911321119783976,0.31938042553604146
1729785771519890000,4.191889892578125,-2.0571508407592773,-0.2517071068286896,0.26875054836273193,-0.7989550828933716,-0.11461399495601654,-0.5903680920600891,-0.0947217345237732,-0.012491658329963684,-0.10254871845245361,0.8340587937386097,0.21859860813431808,-0.3962708575832505,0.315483947796787
1729785771529920800,4.201920654296875,-1.376657247543335,-0.28826379776000977,0.14898498356342316,-0.8005589842796326,-0.10254351049661636,-0.5904152393341064,-0.08013254404067993,0.16089317202568054,-0.19843357801437378,0.8351241670797068,0.21124274229770587,-0.40021103420597504,0.31269043859746576
1729785771539950800,4.211950927734375,-0.5990685224533081,-0.47885558009147644,-0.014258521609008312,-0.8029760718345642,-0.09626605361700058,-0.588185727596283,-0.045992493629455566,0.23504479229450226,-0.37620025873184204,0.8352335399525994,0.207668494929579,-0.403461209009419,0.31060895506869834
1729785771549982000,4.22198193359375,-0.27884525060653687,-0.46719545125961304,-0.15579994022846222,-0.8057540059089661,-0.0945875272154808,-0.5846484303474426,0.037351787090301514,0.2733290195465088,-0.2580792307853699,0.8348109518414638,0.20689426892927265,-0.4060425289413484,0.30889335286345826
1729785771560011800,4.23201171875,-0.26600295305252075,-0.38283902406692505,-0.1785460114479065,-0.8080607652664185,-0.09450071305036545,-0.5814701318740845,0.02401834726333618,0.23530888557434082,-0.06992757320404053,0.83448611082752,0.20682710094438225,-0.4080287707443906,0.3071939937515094
1729785771570043000,4.24204296875,-0.5683175325393677,-0.404960036277771,-0.09095516055822372,-0.8101510405540466,-0.09330959618091583,-0.5787473917007446,-0.024809837341308594,0.1070120558142662,-0.023379623889923096,0.8343255560597248,0.2060354134477947,-0.4100923098214503,0.3054088342033264
1729785771580073000,4.252072998046875,-1.0793246030807495,-0.45205217599868774,-0.02828618884086609,-0.8126260638237,-0.0889640524983406,-0.5759551525115967,-0.050212740898132324,0.004171021282672882,0.10120844841003418,0.8343506878672685,0.20336226474088423,-0.4131176828747624,0.3030454161019179
1729785771590103800,4.262103759765625,-1.6396441459655762,-0.3346041440963745,-0.12556028366088867,-0.8148917555809021,-0.0816464051604271,-0.5738338828086853,-0.09955227375030518,0.001934550702571869,0.24477815628051758,0.8349787226713491,0.19841371396240728,-0.41679137040486347,0.29954561414669584
1729785771600134000,4.2721337890625,-1.7821351289749146,-0.28027263283729553,-0.3220362961292267,-0.8164219856262207,-0.07343609631061554,-0.5727673172950745,-0.1727747917175293,0.04387989640235901,0.24012571573257446,0.8364105477319518,0.19199103203454734,-0.4204233535180157,0.2946203505531007
1729785771610163700,4.282163818359375,-1.285321831703186,-0.23679865896701813,-0.3646881580352783,-0.817744255065918,-0.06736313551664352,-0.5716262459754944,-0.1465654969215393,0.014369435608386993,0.09224092960357666,0.8378256032529356,0.186588731511376,-0.42352275027178554,0.2895883345312566
1729785771620194600,4.292194580078125,-0.41882917284965515,-0.3740755021572113,-0.21824175119400024,-0.8191260099411011,-0.0648997575044632,-0.569930374622345,-0.057338833808898926,-0.10743294656276703,-0.17024290561676025,0.8384873084565281,0.18398434065889507,-0.4256578165554117,0.2861891679388477
1729785771630224600,4.302224609375,0.03184185177087784,-0.4855767488479614,0.061219461262226105,-0.8215993642807007,-0.06473398953676224,-0.5663779973983765,0.06747949123382568,-0.20426315069198608,-0.34649425745010376,0.8377649222919215,0.18421603242977605,-0.42763940630371755,0.2851999413197328
1729785771640255700,4.312255859375,-0.13131777942180634,-0.4491170048713684,0.020976964384317398,-0.8243921995162964,-0.06394347548484802,-0.5623956322669983,0.1661890745162964,-0.0878356322646141,-0.06559514999389648,0.8366666764604639,0.18458568912065731,-0.42980265474264634,0.28493299612227124
1729785771650285800,4.322285888671875,-0.22160185873508453,-0.34644919633865356,-0.18301212787628174,-0.8265323638916016,-0.06367891281843185,-0.5592758655548096,0.09670436382293701,-0.07166647166013718,0.10943150520324707,0.8361192668062822,0.18458142512331227,-0.4316153104285632,0.2838004746548992
1729785771660316700,4.332316650390625,-0.26369351148605347,-0.4301733374595642,-0.13648244738578796,-0.8285278081893921,-0.06371162086725235,-0.5563116669654846,0.05873703956604004,-0.14215990900993347,0.02699953317642212,0.8357819197109145,0.18443700982294614,-0.4333903104000813,0.28217822324023006
1729785771670346800,4.3423466796875,-0.17640869319438934,-0.49826449155807495,0.006232372485101223,-0.8311035633087158,-0.06292179226875305,-0.5525467395782471,0.10972893238067627,-0.12779775261878967,0.01169896125793457,0.8350603625616073,0.18425458110550713,-0.43563389410378334,0.2809763041340142
1729785771680377600,4.352377685546875,-0.003981327638030052,-0.4736839830875397,0.014076978899538517,-0.833828330039978,-0.062273379415273666,-0.5485001802444458,0.09757643938064575,-0.06011730805039406,0.0568467378616333,0.8340397702992984,0.18453300498288813,-0.4378327090079679,0.2804065855381604
1729785771690407700,4.36240771484375,0.22454532980918884,-0.34381014108657837,-0.09649480134248734,-0.8360308408737183,-0.0631013885140419,-0.5450418591499329,0.02720820903778076,0.09133023023605347,0.11321824789047241,0.8331100395872615,0.18558178942066317,-0.43936141930325573,0.28008685546413803
1729785771700438800,4.372438720703125,0.6554847955703735,-0.10657429695129395,-0.16977514326572418,-0.837249755859375,-0.06664379686117172,-0.5427443385124207,-0.03314208984375,0.1785365492105484,0.1630142331123352,0.8323712323668774,0.18803957268295635,-0.4396236307399234,0.2802325098998952
1729785771710468900,4.38246875,1.0324225425720215,0.11018411070108414,-0.16050708293914795,-0.8370275497436523,-0.07264062017202377,-0.5423175692558289,-0.05754953622817993,0.15865448117256165,0.15974920988082886,0.8318413552526335,0.19190868367063715,-0.4381920586726662,0.281422879758804
1729785771720499700,4.392499755859375,1.286194920539856,0.053283385932445526,-0.16649706661701202,-0.8364245891571045,-0.08038658648729324,-0.5421550273895264,-0.06501895189285278,0.09645415097475052,0.025446653366088867,0.8311136078505981,0.1970431832894023,-0.43600054704507923,0.28342161092236723
1729785771730529800,4.40252978515625,0.9539657831192017,0.06041453033685684,-0.2038271278142929,-0.836030125617981,-0.08823464810848236,-0.5415425896644592,-0.024168968200683594,-0.016745753586292267,0.065682053565979,0.8303007917772636,0.2022294681445811,-0.4339722845849165,0.28525776526858176
1729785771740561000,4.412560791015625,0.5340104699134827,0.09252112358808517,-0.20442581176757812,-0.8353425860404968,-0.09381403028964996,-0.5416658520698547,0.004150509834289551,-0.12116698920726776,0.23775655031204224,0.8300794076162855,0.20548465005096037,-0.4323692185597016,0.28600916906679935
1729785771750590700,4.4225908203125,0.6825224757194519,-0.1685192584991455,-0.09819257259368896,-0.835330605506897,-0.09834658354520798,-0.5408797860145569,0.0502048134803772,-0.28162771463394165,0.09326320886611938,0.8296331963813427,0.2083295351879777,-0.43146137399180345,0.28661617063374767
1729785771760621800,4.432621826171875,0.9351710081100464,-0.3435180187225342,0.028771769255399704,-0.8368251919746399,-0.102950319647789,-0.5377035737037659,0.11300909519195557,-0.2580420672893524,-0.1259622573852539,0.8282176184999089,0.21214617327806046,-0.4314420345354511,0.28793679614240447
1729785771770652000,4.44265185546875,1.1102806329727173,-0.1785663515329361,0.025336824357509613,-0.8382944464683533,-0.10817598551511765,-0.5343785881996155,0.086875319480896,-0.03432578593492508,-0.09873908758163452,0.8264813669607408,0.2167240261156903,-0.4310932754535628,0.29003090988717095
1729785771780682800,4.452682861328125,1.1621863842010498,-0.04884724318981171,-0.02059018611907959,-0.8388842940330505,-0.11429984867572784,-0.5321736931800842,0.0014361143112182617,0.06139768660068512,-0.06514686346054077,0.8249694765000846,0.2216488484268356,-0.42986620212500876,0.2924249681217632
1729785771790712800,4.462712890625,0.7927145957946777,0.029005475342273712,-0.08494387567043304,-0.8388302326202393,-0.12008577585220337,-0.5309834480285645,0.022195041179656982,0.05648721009492874,0.05297136306762695,0.8239187293592939,0.22590821958543691,-0.42833837641372824,0.294363362580124
1729785771800744000,4.472743896484375,0.44699564576148987,-0.05882013961672783,-0.1316181719303131,-0.8387331366539001,-0.12420257180929184,-0.5301891565322876,0.09897172451019287,0.047374628484249115,0.1741710901260376,0.823388807872487,0.22862280067502505,-0.42736054739022333,0.2951703623186443
1729785771810773800,4.482773681640625,0.15626047551631927,-0.07399430871009827,-0.10164375603199005,-0.8389540314674377,-0.12682682275772095,-0.5292173624038696,0.17777544260025024,0.028422966599464417,0.2195402979850769,0.8230560372826844,0.2302536488192616,-0.42705335183602433,0.29527514576100966
1729785771820804900,4.492804931640625,0.05058218166232109,0.0036292793229222298,-0.07387764006853104,-0.8390791416168213,-0.12792332470417023,-0.5287550091743469,0.2001935839653015,0.03467690944671631,0.3018110394477844,0.8230052787815992,0.23079630126701411,-0.4270311063303827,0.2950251461669197
1729785771830835000,4.5028349609375,0.48903888463974,0.04151727259159088,-0.08833061903715134,-0.838861346244812,-0.12994268536567688,-0.5286081433296204,0.11126124858856201,0.02464185655117035,0.27270305156707764,0.8228873509046458,0.2319658622521106,-0.4264830185626985,0.29522964302604066
1729785771840865000,4.512864990234375,0.8497264981269836,0.3416326940059662,-0.03755132853984833,-0.8378537893295288,-0.13406002521514893,-0.529177725315094,-0.03865689039230347,0.001262858510017395,0.15843498706817627,0.822550067169274,0.23464840986554025,-0.4246778351512494,0.29664851532657505
1729785771850896000,4.522895751953125,1.1602164506912231,0.5033472776412964,-0.10020724684000015,-0.8354157209396362,-0.13985659182071686,-0.5315269827842712,-0.16942137479782104,0.05692511796951294,0.01594775915145874,0.8224051017604752,0.23821026893329103,-0.42129845842389296,0.299020903435853
1729785771860925700,4.53292578125,1.28684663772583,0.4845503866672516,-0.16458411514759064,-0.8324713706970215,-0.14770929515361786,-0.5340163707733154,-0.2623468041419983,0.07671020925045013,-0.28042149543762207,0.8221785262599436,0.24289888920627872,-0.4171234200019662,0.3017130999714794
1729785771870956800,4.542956787109375,1.1961289644241333,0.024084486067295074,-0.1759883016347885,-0.8307892084121704,-0.15576602518558502,-0.5343465805053711,-0.1519988775253296,0.0701642781496048,-0.4118814468383789,0.821469896666446,0.24795000252582017,-0.41394141926713307,0.30390882844584644
1729785771880986600,4.552986572265625,1.282256841659546,-0.37780699133872986,-0.08332627266645432,-0.8315649032592773,-0.1635391265153885,-0.5308058857917786,0.07837575674057007,0.037196412682533264,-0.32156527042388916,0.8197335226547992,0.25362519394103034,-0.4126394421459321,0.3056797156940027
1729785771891017700,4.563017822265625,1.0709365606307983,-0.4732738435268402,0.10314427316188812,-0.8340041041374207,-0.16989988088607788,-0.5249489545822144,0.17503798007965088,-0.10941219329833984,-0.17108070850372314,0.817210932303662,0.2592972392149856,-0.412662648839859,0.30763771632857506
1729785771901047800,4.5730478515625,0.49331754446029663,-0.402513712644577,0.20969733595848083,-0.8365285992622375,-0.17257508635520935,-0.5200364589691162,0.111430823802948,-0.21910274028778076,0.011750876903533936,0.8150457934815265,0.2627999397436333,-0.4134222653422062,0.30938451179461307
1729785771911078700,4.58307861328125,0.3286265730857849,-0.46153390407562256,0.13888148963451385,-0.8390862345695496,-0.1730063408613205,-0.5157550573348999,0.034459710121154785,-0.20348896086215973,0.0789722204208374,0.8133682553858919,0.26463264523389973,-0.4148397532661796,0.3103381985166421
1729785771921108700,4.593108642578125,0.6829935908317566,-0.3805457651615143,0.004701853729784489,-0.8414867520332336,-0.17481249570846558,-0.5112150311470032,0.027521789073944092,0.005165308713912964,0.0917966365814209,0.8116980841148563,0.26709753236518646,-0.41599446843983906,0.3110529573538875
1729785771931139600,4.6031396484375,1.445921540260315,-0.04791055619716644,-0.18195271492004395,-0.8424892425537109,-0.18088757991790771,-0.5074363946914673,-0.011972546577453613,0.3187812566757202,0.08107525110244751,0.8099453399475757,0.27188885836228616,-0.4151604969401544,0.3125811059391544
1729785771941169700,4.613169677734375,2.2883317470550537,0.427188515663147,-0.28941604495048523,-0.8410148620605469,-0.1925460696220398,-0.5055888295173645,-0.1162605881690979,0.46464085578918457,0.018375813961029053,0.8081442804498657,0.27972736071940946,-0.41104522707660524,0.3157487806227363
1729785771951200800,4.62320068359375,2.603180170059204,0.5878688097000122,-0.16642728447914124,-0.8378579616546631,-0.20717798173427582,-0.5050459504127502,-0.13611054420471191,0.3436221480369568,-0.036732614040374756,0.8060476999406747,0.2894571435581432,-0.40458817812364917,0.32064029853025994
1729785771961230800,4.63323095703125,2.1990644931793213,0.4665626287460327,0.0018370915204286575,-0.8349320292472839,-0.22019340097904205,-0.5043842196464539,-0.026075661182403564,0.03093869984149933,0.04715460538864136,0.803667316451964,0.2985905350817907,-0.3983109242166215,0.32605370660056987
1729785771971261700,4.64326171875,1.3508124351501465,0.2839118540287018,0.06748587638139725,-0.8331683278083801,-0.22882723808288574,-0.503456711769104,0.05892205238342285,-0.2852107882499695,0.09729832410812378,0.8016450680463949,0.30504902485020113,-0.39397553706736604,0.33029316686256494
1729785771981291800,4.653291748046875,0.7843124866485596,-0.021068770438432693,0.0922681912779808,-0.8326813578605652,-0.23337635397911072,-0.502172589302063,0.11029970645904541,-0.4237433671951294,0.031957805156707764,0.8001666064859762,0.30884347390732036,-0.3918282952601309,0.33289596690636863
1729785771991323000,4.663322998046875,0.8109393119812012,-0.0857529565691948,-0.01938670501112938,-0.8331969380378723,-0.23676832020282745,-0.4997236132621765,0.12611991167068481,-0.16408003866672516,-0.1405656933784485,0.798746967426187,0.3119182020487738,-0.3909542450531896,0.33446257007446345
1729785772001352700,4.673352783203125,1.5679816007614136,0.15360844135284424,-0.311138391494751,-0.832701563835144,-0.24373824894428253,-0.4971919655799866,-0.0022136569023132324,0.3998814821243286,-0.17750591039657593,0.7972815902342061,0.31670480085798625,-0.38871851943626784,0.3360626720580918
1729785772011383800,4.6833837890625,2.845853567123413,0.416110098361969,-0.5059971213340759,-0.8302034139633179,-0.25831204652786255,-0.49400120973587036,-0.19540083408355713,0.7387198209762573,-0.18029990792274475,0.7949877161766353,0.3258930552729087,-0.38313588959201206,0.3391093304654887
1729785772021414000,4.693413818359375,3.4483118057250977,0.7857188582420349,-0.4687035083770752,-0.8259367942810059,-0.27821213006973267,-0.49033308029174805,-0.23097854852676392,0.7293688058853149,-0.09589433670043945,0.7916103498941879,0.33856740719857137,-0.3744403444672421,0.3442668642085123
