time,seconds_elapsed,rotationRateX,rotationRateY,rotationRateZ,gravityX,gravityY,gravityZ,accelerationX,accelerationY,accelerationZ,quaternionW,quaternionX,quaternionY,quaternionZ
1729785463735227400,0.196227294921875,0.05345845967531204,-0.014143752865493298,0.09368179738521576,0.0878535583615303,-0.12433680891990662,-0.9883431196212769,-0.02695576846599579,-0.005683273077011108,0.019089579582214355,0.9970816623294518,0.06235036573269804,0.0440553490749108,1.5342704820311167e-17
1729785463745258200,0.20625830078125,-0.05027918517589569,-0.03691452369093895,0.09631459414958954,0.08712407201528549,-0.12486550211906433,-0.9883410334587097,-0.02634834498167038,-0.03701494634151459,0.03762692213058472,0.9970809832157703,0.06259436485702909,0.04371986242038924,0.0004825926611589337
1729785463755288000,0.2162880859375,-0.13273224234580994,-0.05371028184890747,0.10755419731140137,0.0862809270620346,-0.12411443889141083,-0.9885095953941345,-0.02291121333837509,-0.054459117352962494,0.03390449285507202,0.9971228987953483,0.0621923723153655,0.04332796706245485,0.0010104690460462841
1729785463765318100,0.226318115234375,-0.13474160432815552,-0.0561249665915966,0.10754967480897903,0.0853777751326561,-0.12263137102127075,-0.9887730479240417,-0.014973759651184082,-0.05539286881685257,0.03166550397872925,0.9971882399181078,0.06142148080176929,0.04290530925856014,0.0015593989247509657
1729785463775349200,0.236349365234375,-0.06050891801714897,-0.04473036900162697,0.09929121285676956,0.08449814468622208,-0.12126640230417252,-0.9890169501304626,-0.012751348316669464,-0.0438641682267189,0.031604230403900146,0.997248363972748,0.060711963390878185,0.04249214743153166,0.002077882269952386
1729785463785379000,0.246379150390625,0.05354568362236023,-0.01901797577738762,0.10313708335161209,0.08367971330881119,-0.12048482149839401,-0.9891820549964905,-0.020935602486133575,-0.017759762704372406,0.015015184879302979,0.997288514786496,0.060297473073755756,0.042109300456287156,0.0025750125116241677
1729785463795410200,0.25641015625,0.1935235559940338,0.010013142600655556,0.10812891274690628,0.0830567255616188,-0.12099158018827438,-0.9891726970672607,-0.030703850090503693,0.025685235857963562,-0.002450227737426758,0.9972848347217846,0.0605313633448799,0.041828295992929275,0.0030788054238726063
1729785463805440300,0.266440185546875,0.2820624113082886,0.02899807132780552,0.11243870109319687,0.08277060091495514,-0.12312128394842148,-0.9889338612556458,-0.03270654380321503,0.05550964176654816,-0.020938575267791748,0.9972232275934927,0.06158168167290405,0.041722488236670914,0.003594172584730318
1729785463815470300,0.27647021484375,0.25999918580055237,0.028875034302473068,0.11213510483503342,0.08265598863363266,-0.12607836723327637,-0.9885708093643188,-0.028792493045330048,0.04564934968948364,-0.028107047080993652,0.9971301312968676,0.06304821636330307,0.04170756173248178,0.004121810095859329
1729785463825501200,0.286501220703125,0.16700813174247742,0.0058793844655156136,0.10876353830099106,0.08243245631456375,-0.1288662850856781,-0.9882299304008484,-0.02594444900751114,0.011205807328224182,-0.011419117450714111,0.9970422557346903,0.06442973506946191,0.0416395228993538,0.004658355080030074
1729785463835531300,0.29653125,0.03374061733484268,-0.030622433871030807,0.12018317729234695,0.08194801956415176,-0.13064254820346832,-0.9880369901657104,-0.02301861345767975,-0.025622650980949402,0.0026243925094604492,0.9969912084134376,0.06530134815863987,0.041439702439642484,0.005222094848784103
1729785463845561300,0.306561279296875,-0.09212390333414078,-0.06036674603819847,0.12941581010818481,0.08122894912958145,-0.13099513947963715,-0.9880496859550476,-0.017172589898109436,-0.053971827030181885,0.009961307048797607,0.9969908902263133,0.06545398090992768,0.041121101589113265,0.005849765361693029
1729785463855592200,0.31659228515625,-0.15251986682415009,-0.07991355657577515,0.1345653086900711,0.08028730005025864,-0.1302305907011032,-0.9882276654243469,-0.009868018329143524,-0.060122743248939514,0.014945805072784424,0.9970313239368915,0.06504269242873449,0.040689159735492815,0.006529825851037436
1729785463865622300,0.326622314453125,-0.14045248925685883,-0.08792679011821747,0.1249915137887001,0.0790906473994255,-0.1289551854133606,-0.988491415977478,-0.003925897181034088,-0.048443421721458435,0.009838461875915527,0.997092888149381,0.06437603108990494,0.04012517655517512,0.00719526923859203
1729785463875653400,0.3366533203125,-0.08038675785064697,-0.07835911214351654,0.11798181384801865,0.07778055220842361,-0.12751461565494537,-0.9887821674346924,-0.001959666609764099,-0.02667538821697235,-0.008028745651245117,0.9971611545906768,0.06362954347327315,0.039499213192758544,0.00780776496878396
1729785463885683200,0.34668310546875,0.023360347375273705,-0.06632231920957565,0.11273457854986191,0.07654093205928802,-0.12648777663707733,-0.9890108108520508,-0.0050535425543785095,0.007896527647972107,-0.01916790008544922,0.9972139304481409,0.06309406423943706,0.03890688722041383,0.008368835646528268
1729785463895713300,0.35671337890625,0.11351180821657181,-0.051597170531749725,0.11538096517324448,0.07555215060710907,-0.12674467265605927,-0.9890539050102234,-0.0049345120787620544,0.04189060628414154,-0.03030949831008911,0.9972200184572345,0.06320540295397005,0.038446263648723285,0.008912328835870752
1729785463905744400,0.366744384765625,0.1344686895608902,-0.05169757083058357,0.11066477000713348,0.07471516728401184,-0.12801268696784973,-0.9889541864395142,-0.0047994330525398254,0.04930789768695831,-0.04104459285736084,0.9971901178478302,0.06382630138909942,0.03806712214774795,0.009440839589038573
1729785463915774500,0.3767744140625,0.08201080560684204,-0.07743249833583832,0.10247262567281723,0.07379303872585297,-0.12950386106967926,-0.9888292551040649,-0.003160133957862854,0.03665417432785034,-0.03840768337249756,0.9971540047025261,0.06456147133849263,0.03764540366706572,0.009940097498535935
1729785463925804000,0.386803955078125,-0.011939052492380142,-0.10427651554346085,0.09323012083768845,0.07266952842473984,-0.13058996200561523,-0.9887696504592896,0.006447255611419678,0.008168742060661316,-0.02046191692352295,0.9971342323067445,0.06509522767755185,0.037118596360004086,0.010407184107780118
1729785463935835100,0.396835205078125,-0.11807587742805481,-0.12831448018550873,0.09176751226186752,0.07137565314769745,-0.13069449365139008,-0.9888500571250916,0.013020679354667664,-0.026669353246688843,-0.0021167397499084473,0.9971496529147881,0.065136928881651,0.03649853932055458,0.01084913644324164
1729785463945864000,0.406864013671875,-0.17563550174236298,-0.15154433250427246,0.09154380857944489,0.06990508735179901,-0.12976302206516266,-0.9890777468681335,0.015650905668735504,-0.04165413975715637,0.01292729377746582,0.9972017090626605,0.06465794663832719,0.03578357158133621,0.011304039229353476
1729785463955893800,0.416893798828125,-0.1754552125930786,-0.14871712028980255,0.10081427544355392,0.06834358721971512,-0.12830202281475067,-0.9893774390220642,0.012466929852962494,-0.04348137974739075,0.01740783452987671,0.9972714546563514,0.0639130935891758,0.03501982704938603,0.011773497601457971
1729785463965924900,0.4269248046875,-0.11020983010530472,-0.14126485586166382,0.09517662972211838,0.0668075829744339,-0.12680768966674805,-0.989674985408783,0.009760990738868713,-0.03456921875476837,0.013249814510345459,0.9973404865772456,0.06315246499128997,0.03426771877543546,0.012236938076319037
1729785463975954700,0.43695458984375,-0.01418263278901577,-0.1121802031993866,0.09565786272287369,0.06547468900680542,-0.12562322616577148,-0.9899150729179382,0.009323857724666595,-0.012239888310432434,-0.005797207355499268,0.9973952566087935,0.06254866498811519,0.03361728367833917,0.012668115445154865
1729785463985985800,0.44698583984375,0.09183435142040253,-0.08451645076274872,0.09959054738283157,0.06442123651504517,-0.12540102005004883,-0.9900123476982117,0.008195310831069946,0.01218084990978241,-0.00582200288772583,0.9974140519819851,0.06242801281964344,0.033114307392463675,0.01310403671744346
1729785463996015900,0.457015869140625,0.134688600897789,-0.06926292926073074,0.11230208724737167,0.06359387934207916,-0.12614119052886963,-0.9899718165397644,0.006474442780017853,0.01598803699016571,-0.013827621936798096,0.997397463251408,0.06278939561425699,0.03273494767357962,0.013582123733549738
1729785464006045700,0.467045654296875,0.10802137106657028,-0.05385260283946991,0.12549404799938202,0.06309586018323898,-0.12734943628311157,-0.9898489713668823,0.01554790884256363,-0.0019077062606811523,-0.021595120429992676,0.997358954964317,0.06338241320067499,0.03252954789900252,0.014131784130612338
1729785464016076800,0.477076904296875,0.04587065055966377,-0.08840125799179077,0.15193922817707062,0.06258378177881241,-0.12870697677135468,-0.9897059202194214,0.028144948184490204,-0.030823618173599243,-0.005319714546203613,0.997313771841894,0.06404786588511499,0.03232515323928616,0.014776921880826875
1729785464026107000,0.48710693359375,-0.04956306144595146,-0.11993350833654404,0.18615499138832092,0.06168387085199356,-0.12942318618297577,-0.9896690249443054,0.03789495304226875,-0.07100096344947815,0.0004875063896179199,0.9972921810085479,0.06438814057458356,0.03193217594116983,0.015589415983239596
1729785464036137000,0.497136962890625,-0.12103484570980072,-0.14777392148971558,0.21154077351093292,0.06031186506152153,-0.12910747528076172,-0.9897947907447815,0.053076162934303284,-0.0989503264427185,-0.00010389089584350586,0.9973082504825105,0.06420861582632618,0.031302631168628574,0.01654669409269586
1729785464046167800,0.507167724609375,-0.14347590506076813,-0.19126218557357788,0.25122135877609253,0.05845256894826889,-0.12817510962486267,-0.9900274872779846,0.06410598754882812,-0.10436877608299255,-0.005196511745452881,0.9973474382714285,0.06371910249854917,0.03043236464646087,0.01766121879862973
1729785464056198000,0.517197998046875,-0.13478174805641174,-0.21839340031147003,0.29052162170410156,0.05619918555021286,-0.12700484693050385,-0.9903087615966797,0.07485851645469666,-0.10677500069141388,-0.020265579223632812,0.9973941456184227,0.06310994741663849,0.029372748945138052,0.018960809842067074
1729785464066228000,0.52722802734375,-0.10752929002046585,-0.2437843531370163,0.34306979179382324,0.05361217260360718,-0.12589414417743683,-0.9905939698219299,0.08383896946907043,-0.1099608987569809,-0.03961843252182007,0.9974356116907876,0.06253071348803285,0.02815895873464262,0.02048054064386508
1729785464076258800,0.5372587890625,-0.10489462316036224,-0.26804548501968384,0.41607820987701416,0.05072641745209694,-0.12494183331727982,-0.990866482257843,0.09386583417654037,-0.1205872893333435,-0.04859274625778198,0.99746457497948,0.06202994825887322,0.026815078401050907,0.022309911091975686
1729785464086289000,0.547288818359375,-0.14659000933170319,-0.309527188539505,0.49214261770248413,0.047479692846536636,-0.1239689365029335,-0.9911495447158813,0.10494031757116318,-0.13567456603050232,-0.04332005977630615,0.9974841906716613,0.06151917090231309,0.02531063922144333,0.02449832128165973
1729785464096320000,0.557320068359375,-0.23810447752475739,-0.35667499899864197,0.5635092258453369,0.043524742126464844,-0.1223219484090805,-0.9915356636047363,0.12474914640188217,-0.1557541787624359,-0.03167295455932617,0.9975143176396478,0.060676542304398284,0.023463466393297203,0.02707424933794951
1729785464106349800,0.567349853515625,-0.3513193130493164,-0.40308862924575806,0.6221144795417786,0.03905300050973892,-0.11963697522878647,-0.9920493364334106,0.1405581682920456,-0.16623638570308685,-0.019181132316589355,0.9975604709901151,0.05932325692166767,0.021356253554749526,0.029965542933054347
1729785464116380000,0.5773798828125,-0.4619086682796478,-0.4653272330760956,0.6893355846405029,0.03396731987595558,-0.11584433168172836,-0.99268639087677,0.14958061277866364,-0.17077669501304626,-0.023335278034210205,0.9976191475366873,0.05743109098321757,0.01893311791576457,0.0331593934944363
1729785464126411000,0.587410888671875,-0.5996834635734558,-0.5179147720336914,0.7621919512748718,0.028247930109500885,-0.11082281917333603,-0.9934386610984802,0.15745149552822113,-0.1768052875995636,-0.026321470737457275,0.9976832788699604,0.05494479376513592,0.016178453769037322,0.03670972309909887
1729785464136440800,0.59744091796875,-0.7602771520614624,-0.574804425239563,0.8246734142303467,0.021962864324450493,-0.10427535325288773,-0.9943059086799622,0.15899108350276947,-0.1791260838508606,-0.028872191905975342,0.997750687819579,0.05172201475456612,0.01310981161394093,0.04058022728619356
1729785464146471000,0.607470947265625,-0.9496535658836365,-0.6315587759017944,0.8850755095481873,0.015077365562319756,-0.09593777358531952,-0.9952731132507324,0.1579114943742752,-0.1848696619272232,-0.019665241241455078,0.9978145446580934,0.04763926916067102,0.009691822054164063,0.04475211493145072
1729785464156501800,0.617501708984375,-1.1630451679229736,-0.6962571144104004,0.9483325481414795,0.007619713433086872,-0.08551261574029922,-0.9963079690933228,0.15943346917629242,-0.1998724639415741,-0.007308363914489746,0.997862686156564,0.042555892490155386,0.005917790614129287,0.04923608825663391
1729785464166531800,0.62753173828125,-1.3806262016296387,-0.7644850015640259,1.0044410228729248,-0.0004393855051603168,-0.07286043465137482,-0.997342050075531,0.1642424464225769,-0.2012636363506317,-0.002062857151031494,0.9978746840391327,0.0364130454102757,0.0017507488895379382,0.054011432568819476
1729785464176562700,0.637562744140625,-1.623532772064209,-0.8356633186340332,1.059495449066162,-0.009112070314586163,-0.05778704956173897,-0.9982873201370239,0.17108407616615295,-0.18261510133743286,0.012325465679168701,0.997826390998868,0.029124668480904153,-0.0028425694250217327,0.059044248164148334
1729785464186592800,0.6475927734375,-1.8482145071029663,-0.903242826461792,1.0994919538497925,-0.018344353884458542,-0.04025284945964813,-0.9990211129188538,0.17816486954689026,-0.1590268611907959,0.02618175745010376,0.9976859081334122,0.020679665015236704,-0.007860839260036086,0.06429159350153313
1729785464196622800,0.657622802734375,-2.065513849258423,-0.974739134311676,1.112177848815918,-0.028080711141228676,-0.02036953531205654,-0.9993981122970581,0.17854759097099304,-0.13263027369976044,0.022545695304870605,0.9974206795769909,0.01113975401984077,-0.013298778943825753,0.06964950170374891
1729785464206654000,0.667654052734375,-2.201608419418335,-1.051948070526123,1.086696982383728,-0.0383237861096859,0.0014586056349799037,-0.9992642998695374,0.16553626954555511,-0.1112455204129219,0.015896379947662354,0.99700196492934,0.0007095709224354896,-0.019166162264635248,0.07496265686892972
1729785464216683800,0.677683837890625,-2.221874713897705,-1.101623773574829,1.0346477031707764,-0.04899711161851883,0.024089213460683823,-0.9985083937644958,0.14178577065467834,-0.08788613229990005,0.0033454298973083496,0.9964178149313119,-0.010048178800214205,-0.025393741341288027,0.08003635793743
1729785464226713900,0.6877138671875,-2.2585928440093994,-1.1250522136688232,1.0197187662124634,-0.05977826938033104,0.047009896486997604,-0.9971041083335876,0.12195779383182526,-0.05491386726498604,-0.028622210025787354,0.9956602472012164,-0.020894750807172093,-0.03180170866656715,0.08492862796947409
1729785464236745000,0.697744873046875,-2.320518732070923,-1.1711562871932983,1.0384716987609863,-0.07063078880310059,0.07056812196969986,-0.9950032234191895,0.1189248114824295,-0.0046348050236701965,-0.030768871307373047,0.9947033270344561,-0.032005240293947274,-0.03839333809074182,0.08981617637605889
1729785464246774800,0.70777490234375,-2.3470473289489746,-1.233122706413269,1.0319149494171143,-0.08172665536403656,0.09461785107851028,-0.9921533465385437,0.12562614679336548,0.02853592485189438,-0.0370519757270813,0.9935303833703054,-0.043301689533232594,-0.04525817126194283,0.09473168473835156
1729785464256806000,0.717805908203125,-2.33715558052063,-1.2944490909576416,0.9846867918968201,-0.0931887999176979,0.11878205835819244,-0.9885376691818237,0.12735319137573242,0.042198263108730316,-0.07316887378692627,0.992153541693075,-0.05460182527638096,-0.05243872107508078,0.099499642079327
1729785464266836000,0.7278359375,-2.322995901107788,-1.3326597213745117,0.9195491075515747,-0.10495200753211975,0.1427426040172577,-0.984179675579071,0.12333881109952927,0.03335916996002197,-0.08424067497253418,0.9905940959221698,-0.0657633830205881,-0.05987772241149302,0.10398664839375954
1729785464276866000,0.737865966796875,-2.3624446392059326,-1.3538163900375366,0.8403626680374146,-0.11678369343280792,0.1667492389678955,-0.9790588617324829,0.11162618547677994,0.025252193212509155,-0.07056266069412231,0.9888600507006337,-0.07693931864251125,-0.06746041110223505,0.10809893651163081
1729785464286897000,0.74789697265625,-2.4711883068084717,-1.378434658050537,0.7598795294761658,-0.12872350215911865,0.1913130134344101,-0.9730516672134399,0.08999665081501007,0.010484591126441956,-0.05827456712722778,0.9869300079490401,-0.08840296758499527,-0.0752267836165036,0.11178149417858133
1729785464296927000,0.757927001953125,-2.6687169075012207,-1.430899739265442,0.7205262780189514,-0.14081111550331116,0.21724337339401245,-0.965907633304596,0.06990349292755127,-0.022159665822982788,-0.03780019283294678,0.9847410616407083,-0.10057774501520084,-0.08324842499099813,0.11506109508414515
1729785464306956800,0.767956787109375,-2.938352108001709,-1.502567172050476,0.7057198882102966,-0.1533040851354599,0.2453029453754425,-0.957248330116272,0.06558126211166382,-0.056185394525527954,-0.008953452110290527,0.9821748840189397,-0.11384302169176089,-0.0917366139314957,0.11813947156175686
1729785464316987600,0.777987548828125,-3.1380090713500977,-1.578218698501587,0.6726074814796448,-0.16616559028625488,0.27550387382507324,-0.9468297958374023,0.0713016539812088,-0.06641259789466858,0.01576906442642212,0.979170278615467,-0.1282389417673491,-0.10069698934928226,0.12099839937461847
1729785464327017700,0.788017822265625,-3.136134147644043,-1.6651535034179688,0.6263728737831116,-0.17955848574638367,0.3063628673553467,-0.9348264932632446,0.07282322645187378,-0.04082933068275452,-0.005160629749298096,0.9757713194790065,-0.1430317986461855,-0.11013020191470645,0.12362737687652449
1729785464337048800,0.798048828125,-2.9587175846099854,-1.696474313735962,0.5540651082992554,-0.19332917034626007,0.33592861890792847,-0.9218328595161438,0.07792690396308899,0.004372984170913696,-0.06725704669952393,0.9721279594995496,-0.15724574352762505,-0.11982214299648355,0.12603120389017003
1729785464347079000,0.808078857421875,-2.6610164642333984,-1.688124418258667,0.465251624584198,-0.20705315470695496,0.36276522278785706,-0.9085870385169983,0.061926767230033875,0.06544229388237,-0.12272393703460693,0.9684362768327357,-0.17016730020693685,-0.1294201201084372,0.12815951321486851
1729785464357108700,0.818108642578125,-2.4150943756103516,-1.6103827953338623,0.3096849322319031,-0.22081658244132996,0.3867528736591339,-0.8953559398651123,0.04022875428199768,0.11317095160484314,-0.12530440092086792,0.9648135155880447,-0.18176647014692607,-0.13886315185693165,0.1296650407792377
1729785464367139800,0.828139892578125,-2.0946879386901855,-1.6250324249267578,0.344282329082489,-0.23377865552902222,0.40753069519996643,-0.8827606439590454,0.0003496706485748291,0.12321588397026062,-0.10785514116287231,0.9613445018582931,-0.19180348643432552,-0.1477535522296026,0.13113805560742642
1729785464377170000,0.838169921875,-1.92813241481781,-1.63279128074646,0.42659637331962585,-0.24647612869739532,0.4260508120059967,-0.8704770803451538,0.06793297827243805,0.10278841853141785,-0.1438051462173462,0.9578786061198402,-0.20064748677103295,-0.1565313400881175,0.13306899572137504
1729785464387200000,0.848199951171875,-1.8641951084136963,-1.672149419784546,0.44647154211997986,-0.2588583827018738,0.4435616433620453,-0.8580474853515625,0.087441086769104,0.05027395486831665,-0.08468621969223022,0.9543032023903498,-0.20895391518184972,-0.1652710396153574,0.13538625326770506
1729785464397230800,0.85823095703125,-1.8247182369232178,-1.680548071861267,0.35964930057525635,-0.2713228464126587,0.46038368344306946,-0.8452401161193848,0.07518631219863892,0.00905311107635498,-0.05910247564315796,0.9506308237140786,-0.21695442179000538,-0.17409974292827082,0.13755497696286617
1729785464407261000,0.868260986328125,-1.7207244634628296,-1.6981561183929443,0.27270081639289856,-0.2840425968170166,0.47621428966522217,-0.8321897387504578,0.046188533306121826,0.014493227005004883,-0.05947279930114746,0.9469317366386163,-0.22452060341934235,-0.1830181122698782,0.13933846731292207
1729785464417291000,0.878291015625,-1.485358715057373,-1.6900883913040161,0.23999719321727753,-0.2968294322490692,0.4902777075767517,-0.819463312625885,0.04689040780067444,0.05137890577316284,-0.06975781917572021,0.9433246903966291,-0.2311942352286681,-0.19187908271061452,0.1409618465072321
1729785464427321900,0.88832177734375,-1.2052099704742432,-1.680054783821106,0.23410974442958832,-0.3093872666358948,0.501953661441803,-0.8076645731925964,0.062530517578125,0.08570820093154907,-0.11527848243713379,0.9399223204457537,-0.23656573031664319,-0.20051027184731207,0.14275291426555542
1729785464437352000,0.89835205078125,-0.9571219682693481,-1.6517469882965088,0.22298677265644073,-0.3215944170951843,0.5113435983657837,-0.7969346046447754,0.06852734088897705,0.11359548568725586,-0.12753427028656006,0.9367622930705916,-0.2406689063373171,-0.20883288114272924,0.14471980191886485
1729785464447383000,0.908383056640625,-0.7772666811943054,-1.6317472457885742,0.20442081987857819,-0.333501935005188,0.5189372301101685,-0.7870709300041199,0.0671902596950531,0.13400167226791382,-0.10985583066940308,0.9338020724678524,-0.24376628637007627,-0.2168929098997887,0.14679665538372977
1729785464457412900,0.918412841796875,-0.6183923482894897,-1.6119567155838013,0.18950524926185608,-0.345180481672287,0.5250365138053894,-0.7779377698898315,0.07043066620826721,0.10666221380233765,-0.09356790781021118,0.9310112377688103,-0.24601484752716604,-0.22473942915524286,0.14895320048527955
1729785464467442700,0.928442626953125,-0.5158853530883789,-1.609039306640625,0.18119806051254272,-0.3566593527793884,0.5300620794296265,-0.7693037986755371,0.06973302364349365,0.059674978256225586,-0.09034574031829834,0.9283325885783115,-0.24764522903410352,-0.2324218846373387,0.1511643726597602
1729785464477474000,0.93847412109375,-0.4079248011112213,-1.62606680393219,0.18559786677360535,-0.36807599663734436,0.5342804789543152,-0.7609629034996033,0.06611976027488708,0.046270787715911865,-0.09261369705200195,0.9257018724286126,-0.24877875203410166,-0.24005768604454703,0.15348516264403123
1729785464487504000,0.94850390625,-0.23126515746116638,-1.6348090171813965,0.1883140206336975,-0.3794291913509369,0.537423849105835,-0.7531328797340393,0.064838707447052,0.05000913143157959,-0.10340386629104614,0.923164362888451,-0.24923492475112505,-0.24761970006074058,0.15599373764043742
1729785464497534700,0.95853466796875,-0.05192868039011955,-1.6235347986221313,0.19341877102851868,-0.39065706729888916,0.5391929745674133,-0.7460952997207642,0.06361538171768188,0.053397536277770996,-0.09905844926834106,0.9207883966418325,-0.2488247580933545,-0.25502666974953786,0.15873448518277683
1729785464507564800,0.968564697265625,0.08893715590238571,-1.591973900794983,0.20169906318187714,-0.40157145261764526,0.5397955775260925,-0.7398386001586914,0.06310093402862549,0.06420844793319702,-0.07636910676956177,0.9185754977388569,-0.24767783644761304,-0.2621762639629302,0.1616736219295504
1729785464517595000,0.978594970703125,0.14777091145515442,-1.5395621061325073,0.20980466902256012,-0.4120059609413147,0.5396885275840759,-0.7341576218605042,0.06714203953742981,0.07171601057052612,-0.0464819073677063,0.9164832315830606,-0.24608145221232056,-0.26900763504196634,0.16473408033555986
1729785464527625700,0.988625732421875,0.12250130623579025,-1.515419363975525,0.1960422396659851,-0.4220377504825592,0.5395157337188721,-0.7285650372505188,0.07638034224510193,0.05974280834197998,-0.028560757637023926,0.9144098544038959,-0.24444839367174367,-0.2756128789822146,0.16774197417021044
1729785464537655800,0.99865576171875,0.06761542707681656,-1.545150876045227,0.1801317185163498,-0.4320954978466034,0.5396023392677307,-0.7225807309150696,0.089230477809906,0.029336988925933838,-0.01888948678970337,0.9122410958071436,-0.24296616488420728,-0.2822712880282183,0.1706069607790298
1729785464547686000,1.008685791015625,-0.04497576504945755,-1.6172906160354614,0.16809795796871185,-0.44252845644950867,0.5402364134788513,-0.7157607078552246,0.10616365075111389,0.011109530925750732,-0.007978856563568115,0.9098530219690697,-0.24177381587083052,-0.2892491688983603,0.1733438256517566
1729785464557716700,1.018716796875,-0.17792023718357086,-1.6579211950302124,0.15603597462177277,-0.45335081219673157,0.5417721271514893,-0.7077824473381042,0.11672663688659668,0.021033108234405518,0.0233648419380188,0.9071644870147128,-0.24108935368172155,-0.29662214915131335,0.17590852314309577
1729785464567746800,1.028746826171875,-0.23195770382881165,-1.6365431547164917,0.12833431363105774,-0.46417877078056335,0.5439187288284302,-0.6990641355514526,0.10860314965248108,0.039333343505859375,0.04148674011230469,0.904301911128642,-0.2407973673115757,-0.3041127524189419,0.17824260814329795
1729785464577777000,1.03877685546875,-0.19476427137851715,-1.6042853593826294,0.0932823196053505,-0.4748353362083435,0.5459452271461487,-0.6902718544006348,0.08958137035369873,0.05061250925064087,0.010401368141174316,0.90144682978874,-0.2404935716957898,-0.3114914472581523,0.1803595366802666
1729785464587808000,1.04880810546875,-0.05666811019182205,-1.5804932117462158,0.05677517503499985,-0.4853571057319641,0.5471939444541931,-0.6819144487380981,0.07031795382499695,0.06810158491134644,-0.033982038497924805,0.898712053825192,-0.23974763409554348,-0.3186908290176946,0.18241156948162815
1729785464597837800,1.058837890625,0.16634579002857208,-1.6102324724197388,0.03204133361577988,-0.4960712194442749,0.5470065474510193,-0.6743124723434448,0.05167418718338013,0.08844590187072754,-0.0816994309425354,0.8961464852361416,-0.23808119550624998,-0.3258237574614136,0.1846017593737012
1729785464607869000,1.068868896484375,0.4661846458911896,-1.5914896726608276,0.0239301435649395,-0.5066235661506653,0.5450429916381836,-0.6680275201797485,0.030869722366333008,0.11747848987579346,-0.12553620338439941,0.8938625741587897,-0.23523642338549058,-0.33264102449030897,0.1871460616732902
1729785464617899000,1.07889892578125,0.7944996356964111,-1.5831239223480225,0.022353019565343857,-0.5170727372169495,0.5409491062164307,-0.663332462310791,0.008543014526367188,0.1510370969772339,-0.15806329250335693,0.8919070762709934,-0.23094586630514108,-0.33911323108657826,0.19017923193519695
1729785464627929000,1.08892919921875,1.1094417572021484,-1.5915054082870483,0.01307083759456873,-0.5274579524993896,0.5347030758857727,-0.6602126955986023,-0.02294182777404785,0.16537028551101685,-0.17544996738433838,0.8902708800112551,-0.2251854644018669,-0.3452320249615994,0.19371165712101202
1729785464637960000,1.0989599609375,1.3453730344772339,-1.5941909551620483,-0.0040000248700380325,-0.5379494428634644,0.5265355706214905,-0.6583089828491211,-0.048445820808410645,0.16339069604873657,-0.14204484224319458,0.8888648672237716,-0.21810292013583776,-0.35110770797707364,0.19767082125957602
1729785464647989800,1.10898974609375,1.4388540983200073,-1.5649645328521729,-0.04924313724040985,-0.5484837889671326,0.5171260237693787,-0.6570740938186646,-0.06311905384063721,0.15348267555236816,-0.0887448787689209,0.8875996751369731,-0.21021549911266213,-0.3567525505612535,0.20175269891296282
1729785464658019800,1.119019775390625,1.4034394025802612,-1.5338865518569946,-0.11222236603498459,-0.5590788125991821,0.5072643160820007,-0.6558307409286499,-0.06499046087265015,0.13926595449447632,-0.04360151290893555,0.8863728170326697,-0.2021315192776544,-0.3622533256466291,0.2055695833546574
1729785464668050700,1.12905078125,1.3157975673675537,-1.5191185474395752,-0.15543296933174133,-0.5697444677352905,0.4975360631942749,-0.6541018486022949,-0.04812979698181152,0.12410712242126465,-0.018490195274353027,0.8850891081151705,-0.19424701527267205,-0.3677188723679157,0.20896973412177877
1729785464678080800,1.139080810546875,1.221031904220581,-1.5353680849075317,-0.17037169635295868,-0.5805041790008545,0.48826485872268677,-0.6516228914260864,-0.025346100330352783,0.11988955736160278,-0.028186559677124023,0.883654407223702,-0.1867010153924873,-0.3732710538446648,0.21205303636640468
1729785464688111900,1.14911181640625,1.1762176752090454,-1.6015293598175049,-0.1781047135591507,-0.5915256142616272,0.4794233441352844,-0.6482675671577454,-0.014706134796142578,0.13918334245681763,-0.07394611835479736,0.8819970388402306,-0.17939171472163207,-0.37905783694186596,0.2149769653227378
1729785464698141700,1.1591416015625,1.2356127500534058,-1.664062738418579,-0.2096562534570694,-0.6029691100120544,0.47048068046569824,-0.6442641615867615,-0.018414616584777832,0.17325720191001892,-0.11969751119613647,0.8801491819918271,-0.17194383214032816,-0.3851016014356566,0.21787527245194171
1729785464708171800,1.169171875,1.3907233476638794,-1.703961968421936,-0.26072341203689575,-0.6148661971092224,0.4605635106563568,-0.6401726007461548,-0.027864575386047363,0.19947078824043274,-0.15384888648986816,0.878255979407942,-0.16384233504990003,-0.3912408384612572,0.22080068477015602
1729785464718203000,1.179202880859375,1.5084630250930786,-1.7503832578659058,-0.31558239459991455,-0.6271571516990662,0.4493913948535919,-0.6361771821975708,-0.03713428974151611,0.21404561400413513,-0.16579413414001465,0.8763584952449129,-0.15491760971141322,-0.3973813490946894,0.2237959566024974
1729785464728233000,1.18923291015625,1.5960791110992432,-1.8200814723968506,-0.38566428422927856,-0.6399375200271606,0.43721649050712585,-0.6319190859794617,-0.043061137199401855,0.2192167043685913,-0.12986057996749878,0.8743848579257777,-0.14534821413733678,-0.4036265160299715,0.226739233085118
1729785464738262800,1.1992626953125,1.6607996225357056,-1.812592625617981,-0.448429137468338,-0.6530441045761108,0.4239999055862427,-0.6275010704994202,-0.03941512107849121,0.1892203986644745,-0.04858529567718506,0.8723889012259677,-0.13517264325436668,-0.4098509891787722,0.22953914083580643
1729785464748294000,1.2092939453125,1.5922424793243408,-1.7523666620254517,-0.4673948287963867,-0.6659674644470215,0.41054725646972656,-0.6228469610214233,-0.03926330804824829,0.1483365297317505,0.02026224136352539,0.870378485488416,-0.12494605609643424,-0.41589060508230163,0.2320881313441268
1729785464758324000,1.219323974609375,1.4607605934143066,-1.6725578308105469,-0.4547259211540222,-0.6783397793769836,0.39780768752098083,-0.6177412867546082,-0.05649304389953613,0.13330510258674622,0.06238245964050293,0.8683062372841418,-0.11525753326642278,-0.42171679332529466,0.2343397631363539
1729785464768354800,1.229354736328125,1.3844619989395142,-1.599215030670166,-0.4860958158969879,-0.6901528239250183,0.3857753872871399,-0.6122634410858154,-0.08371198177337646,0.13114675879478455,0.04057776927947998,0.8662124988634595,-0.10613899695886228,-0.427320470624915,0.23623669237038034
1729785464778385000,1.239385009765625,1.3614813089370728,-1.609010100364685,-0.5659373998641968,-0.7018545269966125,0.373666912317276,-0.6064432859420776,-0.108234703540802,0.12608906626701355,-0.04374885559082031,0.8641211854125477,-0.09713403993967697,-0.43283176609059665,0.2377317871682192
1729785464788415000,1.2494150390625,1.3709335327148438,-1.686826467514038,-0.614116907119751,-0.7139615416526794,0.3611397445201874,-0.5998643040657043,-0.10429114103317261,0.12665334343910217,-0.10403883457183838,0.8618918334657233,-0.08794225263942923,-0.43855902970773114,0.2389032194851725
1729785464798445800,1.25944580078125,1.3938028812408447,-1.7765406370162964,-0.6296370029449463,-0.7265055179595947,0.34835490584373474,-0.5923163890838623,-0.06374728679656982,0.13779020309448242,-0.10986244678497314,0.8593923848627195,-0.07850669946780342,-0.44461049493621396,0.2400064809601385
1729785464808476000,1.269475830078125,1.3818538188934326,-1.8052387237548828,-0.6320751309394836,-0.739251434803009,0.33550554513931274,-0.5839035511016846,-0.03383511304855347,0.1412554383277893,-0.0740247368812561,0.8566377617646801,-0.06893208420904441,-0.4508842264098445,0.24108836775524295
1729785464818505700,1.279505615234375,1.3033827543258667,-1.7547571659088135,-0.6607539057731628,-0.7517330646514893,0.32284966111183167,-0.5750352144241333,-0.030966579914093018,0.1354328989982605,-0.013023138046264648,0.8537975252601266,-0.05952537404972493,-0.457098593284471,0.24196578051867107
1729785464828536800,1.289536865234375,1.2187236547470093,-1.6637157201766968,-0.7087291479110718,-0.7637009620666504,0.31039565801620483,-0.5660525560379028,-0.05104219913482666,0.1233203113079071,0.03474164009094238,0.85103938447697,-0.05046881073354826,-0.46306221067823006,0.24240129162043192
1729785464838566700,1.299566650390625,1.1607834100723267,-1.5796616077423096,-0.7423803210258484,-0.7750335335731506,0.298069566488266,-0.5572051405906677,-0.07074588537216187,0.09600400924682617,0.050399839878082275,0.8484239301189006,-0.04173283515546034,-0.4686745275293259,0.24244468329375035
1729785464848596700,1.3095966796875,1.122514247894287,-1.5074946880340576,-0.7419750094413757,-0.7857440114021301,0.28590530157089233,-0.5485112071037292,-0.07700324058532715,0.07465997338294983,0.0440405011177063,0.8459068620034026,-0.0332467889689299,-0.47396101035436317,0.2422751263218856
1729785464858627800,1.3196279296875,1.0912755727767944,-1.4752060174942017,-0.7482606172561646,-0.7959291934967041,0.2739989459514618,-0.5398345589637756,-0.07888776063919067,0.07904374599456787,0.028039634227752686,0.8434222276780753,-0.024999239168242697,-0.4790174959250668,0.24198396835227526
1729785464868658000,1.329657958984375,1.151603102684021,-1.4847673177719116,-0.763997495174408,-0.8059109449386597,0.26191118359565735,-0.5309522747993469,-0.07909899950027466,0.0906279981136322,0.021156251430511475,0.8408837953535538,-0.01665301939523162,-0.4839902140533603,0.241641945710676
1729785464878688800,1.339688720703125,1.2346380949020386,-1.4149885177612305,-0.7566237449645996,-0.8155374526977539,0.24940752983093262,-0.5222017765045166,-0.07420265674591064,0.10337577760219574,0.03659093379974365,0.8383397206245916,-0.008011154134701616,-0.4887074098474087,0.24142809540102766
1729785464888718800,1.34971875,1.3219982385635376,-1.2930006980895996,-0.7625747919082642,-0.8244309425354004,0.23650430142879486,-0.5141783356666565,-0.08853298425674438,0.130790114402771,0.04002678394317627,0.835948712488292,0.0008721715498747654,-0.49285909053182847,0.241410261599701
1729785464898749000,1.3597490234375,1.4170703887939453,-1.2151259183883667,-0.7908157706260681,-0.8326084017753601,0.22301214933395386,-0.5069802403450012,-0.12475866079330444,0.1452588587999344,-0.009926378726959229,0.8337630545212683,0.01005191628256234,-0.4963958402643457,0.24151490057497926
1729785464908779800,1.36977978515625,1.5049492120742798,-1.232424020767212,-0.8179038763046265,-0.8405126333236694,0.20885536074638367,-0.49991801381111145,-0.14271801710128784,0.143241286277771,-0.0581415593624115,0.8315834020022672,0.01965931324811796,-0.4996543850042644,0.24171916580699102
1729785464918809900,1.379809814453125,1.5221638679504395,-1.2535789012908936,-0.8406041264533997,-0.8483714461326599,0.19425417482852936,-0.4924747943878174,-0.13916224241256714,0.1329859346151352,-0.06576788425445557,0.8292814485965635,0.0295849427905674,-0.5028790463443656,0.24192961676900118
1729785464928840000,1.38983984375,1.4312933683395386,-1.2919765710830688,-0.852013885974884,-0.8561798334121704,0.17972753942012787,-0.484411358833313,-0.13783884048461914,0.1120358556509018,-0.06287556886672974,0.8268461673152455,0.03943022184890442,-0.5062011268881162,0.2419324877892582
1729785464938870800,1.399870849609375,1.2388520240783691,-1.354893445968628,-0.8257311582565308,-0.8639999628067017,0.16602113842964172,-0.4753328859806061,-0.1311020851135254,0.10428841412067413,-0.029916048049926758,0.8241964832476355,0.048735952719527575,-0.5098611225698383,0.24159239167817398
1729785464948900400,1.409900390625,0.9917410612106323,-1.33102285861969,-0.8139567971229553,-0.8716722726821899,0.15366752445697784,-0.46537506580352783,-0.12080526351928711,0.12843705713748932,0.04269140958786011,0.8214280222470411,0.057048778241620565,-0.5138656508374411,0.24071511097973972
1729785464958931500,1.419931396484375,0.8696196675300598,-1.293657898902893,-0.8575500845909119,-0.8789401650428772,0.14210855960845947,-0.4552687108516693,-0.13746315240859985,0.15044830739498138,0.052741944789886475,0.8187716619626186,0.06455493530164975,-0.5178786556028243,0.23926460260230037
1729785464968961500,1.42996142578125,0.8596380352973938,-1.3046811819076538,-0.8973875045776367,-0.8859930038452148,0.13039050996303558,-0.4449887275695801,-0.14737814664840698,0.12713216245174408,-0.012317061424255371,0.8161569697401129,0.07194493402202522,-0.5218520479432437,0.23744970668621052
1729785464978991400,1.439991455078125,0.7897258400917053,-1.3718959093093872,-0.86068195104599,-0.8929846882820129,0.11884716153144836,-0.4341126084327698,-0.11198973655700684,0.08400328457355499,-0.01681503653526306,0.8133796530897487,0.0792464892638206,-0.5259882943500238,0.2355205694741834
1729785464989022200,1.450022216796875,0.6667463183403015,-1.390326738357544,-0.8294734358787537,-0.8998985886573792,0.1081448346376419,-0.4224778115749359,-0.0733528733253479,0.06345561146736145,0.030098140239715576,0.8103981874783305,0.08606905661267106,-0.5304273838381351,0.23343935342317695
1729785464999052300,1.46005224609375,0.6475885510444641,-1.3746402263641357,-0.8286734223365784,-0.9065133929252625,0.09792909026145935,-0.4106624722480774,-0.0796012282371521,0.04625130444765091,0.04092681407928467,0.8073903954773771,0.09252143860242286,-0.5348911605276341,0.23119743566014064
1729785465009082400,1.470082275390625,0.6546363234519958,-1.55142080783844,-0.751970648765564,-0.9131379127502441,0.08806813508272171,-0.39802438020706177,-0.09317940473556519,0.024618126451969147,-0.008210241794586182,0.8040785951155076,0.09896295084620027,-0.5396240699557162,0.22906327921261269
1729785465019113200,1.48011328125,0.67793869972229,-1.5204967260360718,-0.6697958707809448,-0.9198412299156189,0.07889871299266815,-0.384274959564209,-0.0028731226921081543,0.061619557440280914,-0.010774970054626465,0.8003275400185892,0.10534772325049546,-0.5447608374934676,0.22718600938661385
1729785465029143300,1.490143310546875,0.715129017829895,-1.4160884618759155,-0.5656156539916992,-0.9258261919021606,0.07052909582853317,-0.3713108003139496,-0.048707008361816406,0.016583427786827087,0.013599097728729248,0.7966429734664564,0.11151830143772379,-0.5494617984833545,0.2258661472675462
1729785465039174400,1.50017431640625,0.6233924031257629,-1.447116494178772,-0.5169879794120789,-0.9313905239105225,0.06305640190839767,-0.35851871967315674,-0.16504508256912231,-0.11955961585044861,0.03890827298164368,0.7929302672072346,0.11729550837807397,-0.5540599221588268,0.2247687578989393
1729785465049204200,1.510204345703125,0.5656638145446777,-1.478645920753479,-0.5091366767883301,-0.936885416507721,0.05620824918150902,-0.34508901834487915,-0.18347597122192383,-0.15967801213264465,0.10371032357215881,0.789046915873807,0.12269614821525038,-0.5589285750050195,0.22349392537361493
1729785465059234300,1.520234375,0.688862144947052,-1.416039228439331,-0.4717158079147339,-0.9420852661132812,0.04944772645831108,-0.3317084014415741,-0.1469346284866333,-0.11329041421413422,0.12611156702041626,0.7851180920473938,0.1281509112390558,-0.563669358229509,0.22235990126553667
1729785465069265400,1.530265380859375,0.9783984422683716,-1.3198498487472534,-0.33283862471580505,-0.9467369318008423,0.0428759902715683,-0.3191412091255188,-0.14234405755996704,-0.01725637912750244,0.09819400310516357,0.7811529029209894,0.13407820954206037,-0.5678489536576395,0.2221956667922968
1729785465079295500,1.54029541015625,1.2784061431884766,-1.2049365043640137,-0.11730501055717468,-0.9507988095283508,0.03715704753994942,-0.30757296085357666,-0.14617091417312622,0.028608422726392746,0.08760237693786621,0.7770140433433825,0.1405730432821888,-0.571360424509908,0.22368674286673443
1729785465089325300,1.5503251953125,1.4494290351867676,-1.1193569898605347,0.036609452217817307,-0.9543275237083435,0.03267626464366913,-0.2969702184200287,-0.13769829273223877,-0.02117106318473816,0.11856457591056824,0.7727300699872063,0.1473087928657678,-0.5742952239717724,0.22665705901008382
1729785465099356400,1.5603564453125,1.4540985822677612,-1.028847098350525,0.11263737827539444,-0.9574585556983948,0.02912931703031063,-0.28709694743156433,-0.1306304931640625,-0.09967061132192612,0.18817433714866638,0.768425612169438,0.1539794780090947,-0.5768377949473705,0.23037053741258942
1729785465109386500,1.570386474609375,1.34730863571167,-0.9070405960083008,0.18349343538284302,-0.9601582884788513,0.026568928733468056,-0.27819088101387024,-0.10310465097427368,-0.12314173579216003,0.2640308439731598,0.764355134800777,0.16005073632560005,-0.5790408678330341,0.23421501613632295
1729785465119417300,1.580417236328125,1.276233434677124,-0.7864105701446533,0.3143811523914337,-0.9624179601669312,0.025338906794786453,-0.2703879773616791,-0.11825525760650635,-0.11730353534221649,0.33642813563346863,0.7605357353690874,0.16534948401995828,-0.5809178654617861,0.23828436533361488
1729785465129447400,1.590447509765625,1.1238974332809448,-0.6886354088783264,0.4207054674625397,-0.9642947316169739,0.02567320503294468,-0.2635839581489563,-0.11564606428146362,-0.10744497925043106,0.36140820384025574,0.7569297432992614,0.1697507512916925,-0.5825742021530558,0.24258883143749857
1729785465139477200,1.600477294921875,0.9597973823547363,-0.6026526093482971,0.5322088003158569,-0.9658567309379578,0.027576910331845284,-0.25760528445243835,-0.07464021444320679,-0.06758536398410797,0.4050663113594055,0.7535634443105693,0.17307514341803248,-0.584159530766039,0.24687015974067114
1729785465149508400,1.61050830078125,0.9009407758712769,-0.48519718647003174,0.6558705568313599,-0.9670915603637695,0.030950598418712616,-0.2525396943092346,-0.0076857805252075195,-0.025716736912727356,0.4369422495365143,0.7504022354293244,0.17550995554341964,-0.5855991860554512,0.2513295189606475
1729785465159538200,1.6205380859375,1.0228354930877686,-0.30923229455947876,0.757770836353302,-0.9678479433059692,0.035460203886032104,-0.24902427196502686,0.03390312194824219,0.00616585835814476,0.40318387746810913,0.7474957852393055,0.17749062348943778,-0.5865022940960055,0.2564416128482444
1729785465169568300,1.630568359375,1.145409107208252,-0.16869214177131653,0.8312754034996033,-0.9681307077407837,0.040463805198669434,-0.24715518951416016,0.017202913761138916,-0.001309674233198166,0.31794077157974243,0.744789640521012,0.17954710183607067,-0.5866730264517124,0.26242339012530397
1729785465179599400,1.640599365234375,1.2265366315841675,-0.0427938811480999,0.8986544609069824,-0.9680190086364746,0.04592502489686012,-0.24663779139518738,0.02450692653656006,0.006672121584415436,0.3204141855239868,0.7422535908351013,0.1815609233545642,-0.5862735991973208,0.2690326821655488
1729785465189629400,1.65062939453125,1.3573251962661743,0.06388074159622192,0.9524902701377869,-0.967545747756958,0.05171911418437958,-0.24734731018543243,0.04004007577896118,0.02169099450111389,0.3381219506263733,0.7398335480766681,0.18361493396540954,-0.5853305921237408,0.2762610529127436
1729785465199659300,1.6606591796875,1.4658147096633911,0.20920917391777039,1.0512633323669434,-0.966663658618927,0.05787670239806175,-0.24942350387573242,0.07521450519561768,0.028793301433324814,0.3352542519569397,0.7375105839523174,0.18574637352533455,-0.5837692489287044,0.28423605357110127
1729785465209690400,1.6706904296875,1.523769736289978,0.31702521443367004,1.1047366857528687,-0.9653207063674927,0.06459221988916397,-0.2529509365558624,0.13170230388641357,0.04708694666624069,0.3619292676448822,0.7353343247540182,0.1877120040396435,-0.5816259428377164,0.2928466200726165
1729785465219720400,1.680720458984375,1.677482008934021,0.3914310038089752,1.1332250833511353,-0.9636626243591309,0.07132072746753693,-0.2574254870414734,0.1424802541732788,0.06323137134313583,0.36542731523513794,0.7331755486390582,0.1898129005644898,-0.5790149499120858,0.30193786854845994
1729785465229751300,1.690751220703125,1.8920540809631348,0.504665732383728,1.1761430501937866,-0.9616419672966003,0.07785020768642426,-0.26302918791770935,0.17901849746704102,0.09962485730648041,0.332899272441864,0.7309757985919978,0.19230501434156158,-0.5757640064245169,0.31175171294795534
1729785465239781400,1.700781494140625,2.172699213027954,0.6217159628868103,1.1665194034576416,-0.9591950178146362,0.0836920440196991,-0.27007532119750977,0.22158509492874146,0.13377630710601807,0.2764536142349243,0.7287436393742736,0.19549794536588827,-0.5716142803120668,0.32244454298174396
1729785465249811500,1.7108115234375,2.324361562728882,0.7225266695022583,1.1548353433609009,-0.9563307762145996,0.08863995224237442,-0.278522253036499,0.25752389430999756,0.13238370418548584,0.21734988689422607,0.7265301614607214,0.19930291201813724,-0.5665838123179088,0.3337891917268417
1729785465259842300,1.72084228515625,2.4026501178741455,0.8312224745750427,1.13173508644104,-0.9530910849571228,0.09288943558931351,-0.2880782186985016,0.309841513633728,0.12827154994010925,0.28144076466560364,0.7243718927779998,0.20335988074226738,-0.5608971791936245,0.3454339020963636
1729785465269872400,1.730872314453125,2.411466360092163,0.9029780626296997,1.0749391317367554,-0.9494880437850952,0.0963633581995964,-0.2986414134502411,0.33941107988357544,0.09551598131656647,0.30865129828453064,0.7223583718081452,0.20748729647051944,-0.5546425066917811,0.35709824595808043
1729785465279902500,1.74090234375,2.509945869445801,0.8983295559883118,0.8879842162132263,-0.9457740783691406,0.09825295209884644,-0.30960923433303833,0.35998910665512085,0.06262055784463882,0.2687462866306305,0.7204924111840215,0.2119738207378467,-0.5479621228509388,0.36836853929983476
1729785465289933600,1.75093359375,2.919888734817505,0.9892385601997375,0.7906669974327087,-0.9420313835144043,0.09752035140991211,-0.3210403621196747,0.35880982875823975,0.09106309711933136,0.18325358629226685,0.718562126395133,0.21773410814351396,-0.5404365673643915,0.3797220126334262
1729785465299963400,1.76096337890625,3.271883487701416,1.1264851093292236,0.7988677024841309,-0.9378396272659302,0.09477733820676804,-0.3338778018951416,0.3966865539550781,0.14292415976524353,0.09936553239822388,0.7163943109235625,0.2247582950189285,-0.5315494343479342,0.3920693358134616
1729785465309994500,1.770994384765625,3.581225633621216,1.2699708938598633,0.8669940233230591,-0.9329943060874939,0.09079711139202118,-0.34824952483177185,0.4000962972640991,0.16425363719463348,0.09066593647003174,0.7139660175317173,0.23248096786047168,-0.5213711167545161,0.4054349400090212
1729785465320024300,1.7810244140625,3.6472911834716797,1.420623540878296,0.9094181656837463,-0.9274092316627502,0.08611477166414261,-0.36400094628334045,0.4082745909690857,0.11206647008657455,0.13843029737472534,0.7112719780150264,0.2404115192399647,-0.510099819411049,0.41963426584642255
1729785465330054400,1.791054443359375,3.4568521976470947,1.5712053775787354,0.8459718227386475,-0.9210863709449768,0.08096477389335632,-0.3808472454547882,0.4100390076637268,0.02279505878686905,0.19310325384140015,0.7088069859464478,0.2476758205013686,-0.4982299258222544,0.43360851685951146
1729785465340085200,1.801085205078125,2.9124510288238525,1.4477190971374512,0.5860491394996643,-0.9144439101219177,0.07524875551462173,-0.39765575528144836,0.38430774211883545,-0.10836025327444077,0.19833025336265564,0.70697684441668,0.2538113617174331,-0.4865715855960746,0.4461072926158434
1729785465350115300,1.811115234375,2.304508924484253,0.9999966621398926,0.18588095903396606,-0.9092512726783752,0.06813175231218338,-0.4106340706348419,0.35811901092529297,-0.21955989301204681,0.1411944329738617,0.7057086010647684,0.25938357376589044,-0.4768680456663975,0.45529386192656035
1729785465360145400,1.8211455078125,1.6495749950408936,0.5920669436454773,0.05790169537067413,-0.9059061408042908,0.06079208850860596,-0.41909271478652954,0.4518502354621887,-0.1915445625782013,0.06583654880523682,0.7047365666488973,0.2643558778152793,-0.46964839266583,0.461403258132329
1729785465370176300,1.83117626953125,0.872562825679779,0.5104120373725891,0.01924005150794983,-0.9036164283752441,0.05584702268242836,-0.4246867299079895,0.5538085699081421,-0.1642606407403946,0.09103810787200928,0.7042039595181693,0.2674714852058015,-0.4648823995755763,0.46523161467157453
1729785465380206300,1.841206298828125,0.16888165473937988,0.38638219237327576,-0.09471128135919571,-0.901656985282898,0.05337557569146156,-0.4291456341743469,0.4809567332267761,-0.2430117279291153,0.07819348573684692,0.7046706399943836,0.2682633969276937,-0.4620194144586166,0.4669178839568107
1729785465390237400,1.851237548828125,-0.3711584210395813,0.1548236459493637,-0.23844635486602783,-0.9005745649337769,0.0523064061999321,-0.4315434396266937,0.38195866346359253,-0.37197795510292053,-0.03191173076629639,0.7058228688108343,0.267657903069295,-0.4610721475754213,0.46646121013213704
1729785465400267300,1.861267333984375,-0.9529304504394531,-0.16918185353279114,-0.36820513010025024,-0.9007412791252136,0.0524185411632061,-0.43118178844451904,0.3766780495643616,-0.41255640983581543,-0.08053690195083618,0.7074208543756598,0.26601588111039765,-0.46221710812442474,0.46383928331705043
1729785465410297300,1.87129736328125,-1.3885833024978638,-0.33939945697784424,-0.4201820492744446,-0.9020671844482422,0.0539264976978302,-0.4282134771347046,0.3858470320701599,-0.32287782430648804,-0.03554680943489075,0.7093079408120087,0.26333661208779946,-0.4653462014127006,0.459335431243863
1729785465420328400,1.881328369140625,-1.4837331771850586,-0.4783855676651001,-0.44119173288345337,-0.904095470905304,0.056224923580884933,-0.4236156642436981,0.3726470470428467,-0.21763230860233307,-0.048598021268844604,0.7112335872294104,0.260119065815426,-0.46960647177425807,0.4538222751879338
1729785465430358500,1.891358642578125,-1.3761191368103027,-0.5447422862052917,-0.4596618115901947,-0.9064984321594238,0.05823569744825363,-0.4181738793849945,0.3389323949813843,-0.13886305689811707,-0.10076218843460083,0.7129030158029338,0.25719624702509974,-0.4740919151361133,0.44817011594436124
1729785465440388400,1.901388427734375,-1.3069285154342651,-0.5846776962280273,-0.5329447984695435,-0.9091553092002869,0.059359267354011536,-0.41220539808273315,0.2709258198738098,-0.09137211740016937,-0.10552525520324707,0.7143765582721384,0.25481986764501446,-0.47850197743704115,0.44245788646257206
1729785465450419500,1.91141943359375,-0.9331638813018799,-0.4119705855846405,-0.42628148198127747,-0.9116109013557434,0.05948158726096153,-0.4067280888557434,0.13850903511047363,-0.13315093517303467,-0.055307984352111816,0.7157008724437572,0.2530535631932762,-0.48228606182715456,0.43719167026139344
1729785465460449500,1.921449462890625,-0.5077880620956421,-0.2113773077726364,-0.3327089250087738,-0.9129824042320251,0.05906202644109726,-0.40370166301727295,0.060763657093048096,-0.2647351622581482,-0.09490972757339478,0.7166829756200053,0.25201851132366854,-0.484392240092693,0.4338392998729804
1729785465470480400,1.93148046875,-0.5062008500099182,-0.27693068981170654,-0.4314597249031067,-0.9141693115234375,0.057411160320043564,-0.4012461006641388,0.0767059326171875,-0.3684462308883667,-0.19790542125701904,0.7175064961230816,0.2518211267662246,-0.4857603004198236,0.43105390485769146
1729785465480510500,1.941510498046875,-1.2689757347106934,-0.3911699056625366,-0.5232328176498413,-0.9157995581626892,0.05640648305416107,-0.3976552486419678,0.14753466844558716,-0.3551276922225952,-0.09373873472213745,0.7187966370976557,0.25064792934934643,-0.4882089600592071,0.42680111674552534
1729785465490540300,1.951540283203125,-2.0116922855377197,-0.5483393669128418,-0.3951840102672577,-0.9178959727287292,0.0585835836827755,-0.3924731910228729,0.2005801796913147,-0.35730481147766113,0.06547737121582031,0.7207686143046526,0.24679165505912448,-0.49280552987010495,0.42039193695595994
1729785465500571100,1.961571044921875,-2.4440534114837646,-0.7144308686256409,-0.10760604590177536,-0.9205463528633118,0.06502751260995865,-0.38518306612968445,0.2283313274383545,-0.4570104479789734,0.02969914674758911,0.722413090959162,0.24066644283477565,-0.4994878656515878,0.413171887639827
1729785465510601200,1.971601318359375,-2.858839988708496,-0.7620982527732849,0.03474976867437363,-0.9234060645103455,0.07498617470264435,-0.37642884254455566,0.21729010343551636,-0.4110914170742035,0.040231943130493164,0.7237436968807511,0.23259240596615213,-0.507628163811125,0.4054746917662313
1729785465520631300,1.98163134765625,-2.8568665981292725,-0.6827139854431152,0.0867551788687706,-0.926090657711029,0.0863112136721611,-0.36729639768600464,0.11430776119232178,-0.21572092175483704,0.12385773658752441,0.7250615343887006,0.2234014748763841,-0.5161817299527209,0.39740930304047906
1729785465530662400,1.991662353515625,-2.5640807151794434,-0.5599818229675293,0.1581374704837799,-0.928217351436615,0.09738347679376602,-0.359066903591156,0.01719135046005249,-0.05206479877233505,0.09608176350593567,0.7261316210722452,0.21447764089963114,-0.5238949257999077,0.3902132416981155
1729785465540692200,2.001692138671875,-2.403440237045288,-0.3749491274356842,0.07090430706739426,-0.9297628402709961,0.10740461945533752,-0.3521439731121063,-0.053162574768066406,0.04126185178756714,0.09521660208702087,0.7273555105144422,0.2058853724535221,-0.530602697262991,0.38343975748542625
1729785465550723300,2.011723388671875,-1.649000883102417,-0.28936663269996643,-0.005289793945848942,-0.9309203028678894,0.11480311304330826,-0.3467100262641907,-0.14764732122421265,0.0554850697517395,0.12632739543914795,0.7284623266296818,0.19902484592012346,-0.5357556261667414,0.3777536803769682
1729785465560753400,2.02175341796875,-1.0081080198287964,-0.15736733376979828,0.0029444340616464615,-0.9316329956054688,0.11944479495286942,-0.3432099521160126,-0.1077958345413208,0.06598009914159775,0.047296345233917236,0.7292069664251531,0.19454417514894415,-0.5390246635035942,0.37398170867146224
1729785465570783500,2.031783447265625,-0.2010212242603302,0.006674231495708227,-0.14432278275489807,-0.9320273995399475,0.1209120824933052,-0.3416217565536499,-0.03367096185684204,0.20564135909080505,0.10221141576766968,0.7296643771851347,0.19268482605129406,-0.5404273123029275,0.37202282591110764
1729785465580814300,2.041814453125,0.34886080026626587,0.17581531405448914,-0.26497170329093933,-0.9319711923599243,0.11853274703025818,-0.3426075577735901,-0.04382854700088501,0.254727840423584,0.07507529854774475,0.7302231447565017,0.19347019188552314,-0.5396901939694762,0.37158871210232
1729785465590844400,2.051844482421875,0.5125224590301514,0.29864493012428284,-0.25263941287994385,-0.9314218163490295,0.11449716240167618,-0.3454619348049164,-0.028157711029052734,0.19389832019805908,0.11923521757125854,0.7309440295895345,0.19538485447186013,-0.5376744317080776,0.37209129105191047
1729785465600874500,2.06187451171875,0.38672298192977905,0.3280172049999237,-0.23001186549663544,-0.930611789226532,0.11063932627439499,-0.3488849401473999,0.024178624153137207,0.06166299432516098,0.18274733424186707,0.7317704802074315,0.19715379600964586,-0.5354324457809898,0.3727659657924852
1729785465610905300,2.0719052734375,0.10732089728116989,0.25496312975883484,-0.2765665650367737,-0.9298129081726074,0.10743796825408936,-0.3520016074180603,0.06302201747894287,-0.040848515927791595,0.19468361139297485,0.7328040148440076,0.1981708530665669,-0.5335986339411316,0.37282588451830445
1729785465620935400,2.081935302734375,-0.14058159291744232,0.1336396485567093,-0.3765472173690796,-0.9295011162757874,0.10445951670408249,-0.3537175953388214,0.1049465537071228,-0.06330645829439163,0.1743200421333313,0.7339413899191062,0.1986111956942024,-0.5326300667202616,0.37173781491555147
1729785465630965500,2.091965576171875,-0.26503029465675354,0.19073504209518433,-0.4021569788455963,-0.9293989539146423,0.10151903331279755,-0.3548405170440674,0.12530642747879028,-0.0076468512415885925,0.17683154344558716,0.7352666138502199,0.19863056659292933,-0.5320955206867899,0.3698695656298445
1729785465640996400,2.101996337890625,-0.2000529021024704,0.25621819496154785,-0.4033956229686737,-0.9289594292640686,0.09864640980958939,-0.3567964732646942,0.10054421424865723,0.07042106986045837,0.12384060025215149,0.7368882976716727,0.1983554155938907,-0.5312785427044949,0.3679595070827318
1729785465651026200,2.112026123046875,-0.02027907408773899,0.23590165376663208,-0.4331718981266022,-0.9284667372703552,0.09518888592720032,-0.35901111364364624,0.053222477436065674,0.10760051012039185,0.03186267614364624,0.7384316363823797,0.1985772314196377,-0.5301523682671379,0.3663666597982035
1729785465661057500,2.1220576171875,0.2862046957015991,0.23785535991191864,-0.48572590947151184,-0.9280563592910767,0.09048732370138168,-0.36128032207489014,0.02334749698638916,0.13609051704406738,0.0155925452709198,0.7397636352256521,0.1998199405613371,-0.5286131234610405,0.3652258716873446
1729785465671087400,2.13208740234375,0.6759389042854309,0.32078567147254944,-0.5578805208206177,-0.9275108575820923,0.08385775983333588,-0.3642684817314148,0.010060906410217285,0.1317947804927826,0.011271744966506958,0.7409578270078097,0.20250234830453637,-0.526173500393058,0.3648503393473191
1729785465681117200,2.1421171875,0.768879234790802,0.4095168709754944,-0.5855201482772827,-0.9266250729560852,0.07576696574687958,-0.3682735860347748,0.0034530162811279297,0.08884494006633759,0.04245278239250183,0.7422127647192975,0.20611639191764275,-0.5228568057581385,0.3650439260087232
1729785465691148300,2.152148193359375,0.6648932695388794,0.48280081152915955,-0.5552005767822266,-0.9253776669502258,0.06777000427246094,-0.3729390501976013,0.0011527538299560547,0.023584440350532532,0.13418486714363098,0.743679068639875,0.20947719752992244,-0.5192781328054028,0.36525475911816313
1729785465701178400,2.162178466796875,0.9108687043190002,0.535190761089325,-0.386602520942688,-0.9237450361251831,0.060380563139915466,-0.37821877002716064,-0.00788038969039917,-0.0954604297876358,0.11346361041069031,0.7451121812408511,0.21263062750446932,-0.515440420241748,0.3659471494177597
1729785465711208400,2.17220849609375,0.014050602912902832,0.2867216169834137,-0.2286408692598343,-0.9225029945373535,0.05596594512462616,-0.38191118836402893,0.016771674156188965,-0.0755123645067215,-0.060379981994628906,0.7458986711101794,0.2146956102194459,-0.5127866962668338,0.3668662698240559
1729785465721239300,2.1822392578125,-0.5484833121299744,0.3215203285217285,-0.5672814846038818,-0.9217591285705566,0.05325927957892418,-0.3840881288051605,0.032492101192474365,-0.13513785600662231,0.2355286180973053,0.7476961948606298,0.21409704974553087,-0.5119749956308074,0.3646841943753922
1729785465731269400,2.192269287109375,-0.766160249710083,0.3156903088092804,-0.4427803158760071,-0.9206783175468445,0.05091444402933121,-0.38698747754096985,-0.04509627819061279,-0.24198490381240845,0.18021568655967712,0.7502576816990143,0.21235279616976138,-0.5112851965450327,0.3613962236563259
1729785465741300200,2.20230029296875,-0.8984261751174927,0.12449663132429123,-0.2884831428527832,-0.9199700951576233,0.05105705186724663,-0.3886493742465973,0.038988590240478516,-0.10983382910490036,0.026482075452804565,0.7523324938798387,0.2096559041692338,-0.511585485967348,0.3582186750979429
1729785465751330300,2.212330322265625,-1.0677173137664795,0.184223935008049,-0.16565310955047607,-0.9196276068687439,0.052892886102199554,-0.3892139494419098,0.01900804042816162,-0.04685032367706299,0.04094746708869934,0.7541081586780493,0.20619937985734904,-0.5127132125673751,0.3548632510491189
1729785465761360400,2.2223603515625,-0.9538922309875488,0.31498992443084717,-0.22354277968406677,-0.9186294078826904,0.055103130638599396,-0.3912592828273773,-0.04442918300628662,0.0023615658283233643,-0.02097204327583313,0.7561937320023169,0.20237358890190182,-0.5132399958278834,0.35185333778596206
1729785465771391500,2.2323916015625,-0.9179619550704956,0.16082602739334106,-0.2556857764720917,-0.9178124666213989,0.05652795732021332,-0.39296954870224,-0.061496734619140625,0.07456037402153015,-0.054128170013427734,0.7581979487655385,0.19901373609803422,-0.513720509968967,0.34874174064606517
1729785465781421300,2.24242138671875,-0.7113312482833862,0.06903832405805588,-0.2966981828212738,-0.9175750017166138,0.0573028028011322,-0.39341142773628235,0.003298819065093994,0.18947768211364746,-0.019094616174697876,0.7597516257234815,0.1963786743480626,-0.5145188982745208,0.34566353115358195
1729785465791451400,2.252451416015625,-0.28186941146850586,0.09028805792331696,-0.4231453537940979,-0.9174733757972717,0.056055109947919846,-0.39382830262184143,0.027626454830169678,0.2432766556739807,-0.028870582580566406,0.7610601459362522,0.1952196019815491,-0.5147573763512246,0.343076996332777
1729785465801482500,2.262482421875,0.2225884199142456,0.17104096710681915,-0.5871164202690125,-0.917232871055603,0.05145079270005226,-0.3950149714946747,-0.021091222763061523,0.2322864830493927,-0.039311110973358154,0.7622934366472254,0.1962256775854534,-0.5137976217079471,0.34119843092340435
1729785465811512600,2.2725126953125,0.5802938342094421,0.16663967072963715,-0.6160373091697693,-0.9168380498886108,0.04418880119919777,-0.3968065679073334,-0.060273826122283936,0.2167670726776123,-0.06353577971458435,0.7633799164435642,0.19907230258293915,-0.511827060410093,0.3400801007107428
1729785465821542100,2.282542236328125,0.8891379237174988,0.17159873247146606,-0.5751386284828186,-0.9164191484451294,0.03577550873160362,-0.3986179232597351,-0.07085514068603516,0.17233920097351074,-0.09506481885910034,0.76407366886027,0.20313860002864592,-0.5093385387225222,0.3398537446604989
1729785465831573200,2.2925732421875,1.0409386157989502,0.24426312744617462,-0.5639727711677551,-0.915765643119812,0.026645250618457794,-0.4008285403251648,-0.08818650245666504,0.06713534891605377,-0.07892295718193054,0.7645619357706647,0.20797514669235212,-0.5062924669105989,0.34038133624619493
1729785465841603300,2.302603271484375,0.9592226147651672,0.30436936020851135,-0.5366154313087463,-0.9147588610649109,0.017467213794589043,-0.403622567653656,-0.1288660764694214,-0.04258308932185173,-0.003619164228439331,0.7651452858597575,0.21279162601092366,-0.5029000346902555,0.3411217038769223
1729785465851634200,2.31263427734375,0.7414869070053101,0.22937798500061035,-0.43017423152923584,-0.9137248396873474,0.009505302645266056,-0.4062223732471466,-0.14494526386260986,-0.08965963125228882,0.019213765859603882,0.7657454351821253,0.21683825208744523,-0.4998699685356328,0.34167996393203215
1729785465861664300,2.322664306640625,0.5122761130332947,0.14071175456047058,-0.29968947172164917,-0.9129823446273804,0.0036328164860606194,-0.4079832136631012,-0.11184382438659668,-0.08467217534780502,0.02329397201538086,0.7661519380858459,0.21982412407110313,-0.497680368546257,0.3420570666106801
1729785465871694300,2.3326943359375,0.3486272394657135,0.05796458199620247,-0.15366142988204956,-0.912598729133606,-0.00016106688417494297,-0.40885668992996216,-0.0805349349975586,-0.05480101332068443,0.032452940940856934,0.7663021371814936,0.22185339229600767,-0.49633932458087365,0.3423589202031727
1729785465881725200,2.34272509765625,0.2192402333021164,0.14265844225883484,-0.16804783046245575,-0.9121609330177307,-0.0027484181337058544,-0.40982314944267273,-0.06299781799316406,-0.003309250343590975,0.038363248109817505,0.7665108656727327,0.2231559024360262,-0.4952674654320607,0.3425971352793889
1729785465891755300,2.35275537109375,0.09739815443754196,0.1544615626335144,-0.1954786479473114,-0.9115785360336304,-0.005103054456412792,-0.41109439730644226,-0.0730406641960144,0.02007199265062809,0.044151097536087036,0.7670011019590395,0.22398471671291717,-0.4942505905119506,0.3424275064133711
1729785465901785300,2.362785400390625,-0.14300113916397095,0.14527100324630737,-0.16535617411136627,-0.9109084606170654,-0.0067026326432824135,-0.4125540554523468,-0.06956028938293457,0.02873641438782215,0.08073648810386658,0.7677191156191384,0.22411207281570966,-0.49345390528396893,0.34188361696357983
1729785465911816400,2.37281640625,-0.4479880630970001,0.18810570240020752,-0.1807417869567871,-0.9102190732955933,-0.00702748354524374,-0.41406774520874023,-0.05308365821838379,0.027687963098287582,0.12041240930557251,0.7687486945917251,0.22310902439092367,-0.49314144514190056,0.3406751374130619
1729785465921846300,2.38284619140625,-0.6276260018348694,0.1712934374809265,-0.20404444634914398,-0.9094647765159607,-0.006523312069475651,-0.41572993993759155,-0.06648743152618408,0.01767757162451744,0.07721379399299622,0.7701416662208216,0.2211571098349261,-0.49317802285708495,0.33874309327175295
1729785465931877400,2.39287744140625,-0.5712394118309021,0.17406897246837616,-0.1374395787715912,-0.9087278842926025,-0.005579949356615543,-0.4173521399497986,-0.05011928081512451,0.02450094185769558,-0.004934787750244141,0.7715381420263941,0.2189473159487009,-0.4933416631866781,0.3367569434402314
1729785465941907500,2.402907470703125,-0.38646531105041504,0.16066955029964447,-0.05512366071343422,-0.9079968929290771,-0.00439611729234457,-0.4189542233943939,0.0020824670791625977,0.05920575559139252,-0.05200827121734619,0.7726660238082174,0.21699085412279814,-0.49339422824260726,0.33535739259832353
1729785465951937300,2.412937255859375,-0.07224453240633011,0.19555403292179108,-0.11443997919559479,-0.9072574973106384,-0.004085886292159557,-0.4205560088157654,0.014496147632598877,0.0829281434416771,-0.042380332946777344,0.7734798235675676,0.21596926537776276,-0.4930306940421676,0.3346747538551297
1729785465961968000,2.422968017578125,0.26568663120269775,0.2834838926792145,-0.2169133722782135,-0.9062440395355225,-0.006065999623388052,-0.42271173000335693,-0.02823483943939209,0.04462502524256706,-0.004747927188873291,0.7742381187868419,0.21639225353021546,-0.49175047203449634,0.33453172064751346
1729785465971998200,2.432998291015625,0.37494468688964844,0.2832271456718445,-0.21032656729221344,-0.9049631953239441,-0.009511099196970463,-0.4253838360309601,-0.06812047958374023,-0.0007427418604493141,-0.04864567518234253,0.7749700006717319,0.2177539608405581,-0.489786988403581,0.3348337979616111
1729785465982028300,2.4430283203125,0.3004390299320221,0.12583114206790924,-0.10624437034130096,-0.904066801071167,-0.012462876737117767,-0.4272097647190094,-0.06575143337249756,-0.010928766801953316,-0.08858299255371094,0.7753701846426242,0.21914791477822806,-0.48823079017423315,0.33527037645737634
1729785465992059100,2.45305908203125,0.18888665735721588,0.02900100126862526,-0.017143789678812027,-0.9037608504295349,-0.014067905023694038,-0.42780667543411255,-0.04651087522506714,-0.04425111040472984,-0.032169461250305176,0.7753669833805158,0.22014214841464036,-0.48747727669988933,0.33572231750316245
1729785466002089200,2.463089111328125,-0.016680344939231873,0.009227829053997993,-0.004804566036909819,-0.9036886096000671,-0.014523505233228207,-0.427944153547287,-0.05761528015136719,-0.07731907069683075,-0.01665109395980835,0.7753130249154974,0.2204944651831466,-0.4872474847838692,0.3359493546211172
1729785466012120300,2.473120361328125,-0.2027231901884079,-0.006610788404941559,-0.024237386882305145,-0.9036732912063599,-0.01415187306702137,-0.4279889464378357,-0.07877922058105469,-0.08339747786521912,-0.013203620910644531,0.7754766719083698,0.22006576850818094,-0.48741828619285377,0.33560483485179915
1729785466022150400,2.483150390625,-0.2658849358558655,-0.018304407596588135,-0.0019488581456243992,-0.9037289619445801,-0.013253260403871536,-0.4279002547264099,-0.08456778526306152,-0.0800236240029335,-0.008913099765777588,0.7757344405799699,0.2191876416115982,-0.48785925279259357,0.3349424478071197
1729785466032180200,2.49318017578125,-0.28395751118659973,-0.07641416043043137,0.026485979557037354,-0.9039102792739868,-0.011970973573625088,-0.4275548756122589,-0.08432531356811523,-0.05246681347489357,-0.0521661639213562,0.7759126357170538,0.21816291198828439,-0.4884951431383442,0.33427123184377616
1729785466042211300,2.50321142578125,-0.18420721590518951,-0.1419212520122528,0.07723251730203629,-0.9044075012207031,-0.010479789227247238,-0.4265413284301758,-0.08210384845733643,-0.01608569547533989,-0.07701385021209717,0.7758188888175207,0.21727976882448113,-0.4894066123690673,0.3337303787588999
1729785466052241400,2.513241455078125,-0.012985674664378166,-0.10731896758079529,0.09823766350746155,-0.9049628973007202,-0.009213934652507305,-0.42539075016975403,-0.05495232343673706,0.014890293590724468,-0.04586157202720642,0.7754496772875821,0.21689127600023053,-0.4901660970109279,0.3337262690263533
1729785466062271200,2.523271240234375,0.09601617604494095,-0.03240185230970383,0.04895160719752312,-0.9052802324295044,-0.008728268556296825,-0.4247255027294159,-0.043053627014160156,0.04206881672143936,-0.04880046844482422,0.7750974524971695,0.21700362198453987,-0.4904555799413784,0.3340461948846668
1729785466072302300,2.53330224609375,0.17680422961711884,0.004505619406700134,0.005356991663575172,-0.9053205251693726,-0.009097539819777012,-0.4246317148208618,-0.04135012626647949,0.0417056605219841,-0.03967791795730591,0.7748840944582431,0.21749662731390587,-0.4902849846413916,0.33447058834172216
1729785466082332200,2.543332275390625,0.2084396481513977,-0.009917794726788998,0.0102441580966115,-0.9053366184234619,-0.009901735000312328,-0.42457959055900574,-0.026441454887390137,0.02265816740691662,-0.042522430419921875,0.7746549543011675,0.21825660011387005,-0.4899737401555191,0.3349622149311004
1729785466092362200,2.5533623046875,0.15973536670207977,-0.050603173673152924,0.04752068966627121,-0.9054722189903259,-0.010467714630067348,-0.424276739358902,-0.010650336742401123,-0.0056760115548968315,-0.04418325424194336,0.7743269076714399,0.21897861276161018,-0.48980607432528356,0.3354943586438233
1729785466102393000,2.56339306640625,0.040730416774749756,-0.0881902277469635,0.08133538067340851,-0.9058018922805786,-0.010576455853879452,-0.4235697090625763,-0.0028285980224609375,-0.02859276719391346,-0.03799337148666382,0.7739413492651098,0.21945204691945705,-0.4899550432939745,0.3358569072361064
1729785466112423200,2.573423095703125,-0.1011301800608635,-0.12140219658613205,0.10281910002231598,-0.9062389731407166,-0.009761076420545578,-0.42265352606773376,0.0006296038627624512,-0.03699176758527756,-0.030959725379943848,0.773587751192792,0.2193350783187135,-0.49047462278749127,0.3359896393053469
1729785466122454300,2.583454345703125,-0.2150231897830963,-0.14938029646873474,0.10712969303131104,-0.9067717790603638,-0.008159451186656952,-0.4215429127216339,0.012164175510406494,-0.027591802179813385,-0.010952085256576538,0.7732888603826475,0.2186706922434448,-0.4913366159295424,0.33585098158117255
1729785466132484000,2.593484130859375,-0.26669198274612427,-0.16346345841884613,0.1249888464808464,-0.9074154496192932,-0.0060234288685023785,-0.4201917350292206,0.022176682949066162,-0.005084875971078873,-0.007588326930999756,0.7729811408117877,0.21767652897024475,-0.4924642705657331,0.33555355620258087
1729785466142514200,2.60351416015625,-0.27682027220726013,-0.1649755984544754,0.10943252593278885,-0.9080493450164795,-0.0035873232409358025,-0.4188481569290161,0.036406099796295166,0.0249191764742136,-0.015828967094421387,0.772689941087773,0.21649319604131523,-0.4936665018559701,0.3352231773119839
1729785466152545300,2.613545166015625,-0.1932038515806198,-0.15658079087734222,0.073463074862957,-0.908660352230072,-0.001537707750685513,-0.41753336787223816,0.03649836778640747,0.04833650588989258,-0.03128856420516968,0.7724238440990586,0.2154853484360354,-0.4947720424639722,0.3348555558799407
1729785466162575400,2.623575439453125,-0.04327693581581116,-0.15836110711097717,0.06908430904150009,-0.9092103242874146,-0.000324666645610705,-0.4163370728492737,0.032363951206207275,0.052738700062036514,-0.058684200048446655,0.7720981821878959,0.2150445000851935,-0.49556767962471665,0.3347133824609026
1729785466172605200,2.633605224609375,0.04286087676882744,-0.1743256002664566,0.11184988170862198,-0.9097525477409363,0.0003363032592460513,-0.41515108942985535,0.030067920684814453,0.056243378669023514,-0.08663415908813477,0.7716335395143422,0.21511186596728063,-0.4961364136792458,0.3348991881717462
1729785466182636300,2.64363623046875,0.08526905626058578,-0.20848064124584198,0.12857505679130554,-0.9103747606277466,0.0007915978785604239,-0.4137842655181885,0.03519153594970703,0.0644855871796608,-0.07780808210372925,0.771025919883179,0.21546302146896834,-0.4966724738631204,0.335278039433118
1729785466192666400,2.653666259765625,0.13291312754154205,-0.2097906917333603,0.11290156096220016,-0.911087155342102,0.0009514779085293412,-0.4122127592563629,0.041107237339019775,0.06273877620697021,-0.059237927198410034,0.7703249290550647,0.21606840547708409,-0.49720022381155704,0.3357171016185785
1729785466202697200,2.663697265625,0.12859241664409637,-0.1684587001800537,0.063300721347332,-0.9117515683174133,0.00082324881805107,-0.41074150800704956,0.05020970106124878,0.05709920451045036,-0.032327890396118164,0.7696638351388154,0.21679397717301943,-0.4976239700218483,0.3361375624875559
1729785466212727300,2.673727294921875,0.0866103544831276,-0.15519529581069946,0.014537439681589603,-0.9122902154922485,0.0006002164445817471,-0.4095441699028015,0.048154354095458984,0.04874678701162338,-0.01570296287536621,0.7691723073973309,0.21738041318750206,-0.4979695411920954,0.3363721841508001
1729785466222757400,2.68375732421875,0.06924361735582352,-0.15467599034309387,-0.003380573820322752,-0.9127517342567444,0.0005553700029850006,-0.4085146486759186,0.04951608180999756,0.02659008651971817,0.003622710704803467,0.7687736638001149,0.21776890050116854,-0.49831655469049524,0.33651838158096237
1729785466232788200,2.693788330078125,0.03560629487037659,-0.15733644366264343,-0.02227596752345562,-0.9131587147712708,0.0007130835438147187,-0.40760383009910583,0.0468866229057312,0.0044749765656888485,0.008037269115447998,0.76842946699127,0.21799217154050263,-0.49867573810111865,0.3366278668060762
1729785466242818300,2.703818359375,-0.0019006000366061926,-0.1663091629743576,-0.024595048278570175,-0.9134945273399353,0.0009295903728343546,-0.4068503677845001,0.021618187427520752,-0.004973080009222031,-0.0010017752647399902,0.768196666338006,0.21805283975624426,-0.49902683121837565,0.3365996560891311
1729785466252848000,2.71384814453125,-0.02202877216041088,-0.17946404218673706,-0.0030087963677942753,-0.913801908493042,0.0014132923679426312,-0.40615788102149963,0.004103302955627441,-0.009424064308404922,0.002868145704269409,0.7679826298814718,0.2179528344828519,-0.49941727968247773,0.33657353088650427
1729785466262879200,2.723879150390625,-0.05341039597988129,-0.1600418984889984,0.014083904214203358,-0.9140488505363464,0.002360166748985648,-0.4055975079536438,-0.005384922027587891,-0.005442352965474129,0.012775301933288574,0.7677794722379375,0.2176126431352991,-0.4998459551325435,0.3366209168701783
1729785466272909000,2.733908935546875,-0.06323033571243286,-0.12066183984279633,0.047738272696733475,-0.9142122864723206,0.0036524226889014244,-0.40521928668022156,-0.024676382541656494,0.005579228978604078,0.01334315538406372,0.7676060525933244,0.21707923220729727,-0.5002668953381283,0.33673534167754826
1729785466282939100,2.743939208984375,-0.04623563960194588,-0.11822052299976349,0.10111947357654572,-0.9143851399421692,0.005242212675511837,-0.4048116207122803,-0.018399953842163086,0.01862262934446335,0.00014859437942504883,0.7673543463706342,0.21649221141451858,-0.5007247930193498,0.33700617200359845
1729785466292970200,2.75397021484375,-0.042230647057294846,-0.1636200100183487,0.056492879986763,-0.9147663116455078,0.006735792849212885,-0.40392765402793884,0.0011767148971557617,0.03630933538079262,-0.020007193088531494,0.7669620178511191,0.2160602762248879,-0.5013523061940667,0.3372437299533772
1729785466303000300,2.764000244140625,-0.03383636102080345,-0.18987558782100677,-0.007064258214086294,-0.9153794050216675,0.007369668688625097,-0.4025249779224396,-0.01052403450012207,0.04545634984970093,-0.013337969779968262,0.7665535878354406,0.2160066294854153,-0.5020743386306923,0.33713232927536047
1729785466313031200,2.77403125,-0.026689035817980766,-0.16160425543785095,-0.04575732350349426,-0.9160093069076538,0.007221896201372147,-0.4010921120643616,-0.008230865001678467,0.04708420857787132,0.006942421197891235,0.7662422030205244,0.21622951928507425,-0.5026914897716521,0.3367773966999329
1729785466323061200,2.784061279296875,-0.016323747113347054,-0.13201147317886353,-0.06716914474964142,-0.9165318012237549,0.006634751800447702,-0.39990711212158203,-0.010836541652679443,0.040102988481521606,0.004475593566894531,0.7660545341032581,0.21656401170899758,-0.5031366373225153,0.3363245814646031
1729785466333091300,2.79409130859375,0.007199887186288834,-0.11896470934152603,-0.06844532489776611,-0.9169808030128479,0.00579249020665884,-0.39888960123062134,-0.01458364725112915,0.021078305318951607,0.00010120868682861328,0.765924241932643,0.21698979268000684,-0.5034586647270286,0.33586468848661966
1729785466343122200,2.8041220703125,0.02413865737617016,-0.13572078943252563,-0.06005024537444115,-0.9175267815589905,0.0049726711586117744,-0.39764317870140076,-0.009276926517486572,-0.00028813304379582405,-0.01196366548538208,0.7656848603293558,0.21751370330442596,-0.5038513681058544,0.33548243763704527
1729785466353152300,2.81415234375,0.007961951196193695,-0.16846728324890137,-0.04290854185819626,-0.9182165861129761,0.004501962568610907,-0.3960534632205963,-0.009578943252563477,-0.012405937537550926,-0.022174596786499023,0.7653060190400822,0.21797588833532647,-0.5044400591684864,0.3351622014298906
1729785466363182300,2.824182373046875,0.008985670283436775,-0.18327338993549347,-0.0328226201236248,-0.9188947081565857,0.004558280110359192,-0.39447689056396484,-0.0030414462089538574,-0.014415387064218521,-0.01116269826889038,0.7648773508637555,0.2182256641205759,-0.505112970590962,0.33496468666885565
1729785466373213200,2.834213134765625,0.027522269636392593,-0.17810361087322235,-0.03492198884487152,-0.9192976951599121,0.005204950924962759,-0.393528550863266,-0.001020967960357666,-0.011430453509092331,-0.010997176170349121,0.7645446972334424,0.21815129453812093,-0.5056142112496895,0.3350160795842072
1729785466383243300,2.8442431640625,0.06708858907222748,-0.1704462319612503,-0.015707548707723618,-0.9197884202003479,0.006006228271871805,-0.3923690915107727,-0.004268765449523926,-0.0011996268294751644,-0.02169334888458252,0.764083078066243,0.21813723343540553,-0.5061932455023285,0.3352041626795751
1729785466393274400,2.8542744140625,0.0943136140704155,-0.18818703293800354,0.003240576945245266,-0.9204807877540588,0.00690507935360074,-0.3907272219657898,0.008829057216644287,0.008903115056455135,-0.02792811393737793,0.7634092444916578,0.21827676183541758,-0.5069434345779285,0.33551482469480176
1729785466403304400,2.864304443359375,0.09922687709331512,-0.21092243492603302,-0.004957165103405714,-0.9212371110916138,0.0075902631506323814,-0.38892751932144165,0.023654043674468994,0.007638079114258289,-0.014148592948913574,0.7626887569935122,0.21856678771223273,-0.5077054280540366,0.3358119762994848
1729785466413334000,2.874333984375,0.08327188342809677,-0.19912339746952057,-0.020804837346076965,-0.9219681620597839,0.007622563745826483,-0.3871908485889435,0.029511988162994385,-0.006371262017637491,0.009719043970108032,0.7620746022381952,0.21907039716623478,-0.5083431317374648,0.3359133957150772
1729785466423365400,2.884365478515625,0.06196712702512741,-0.1684001088142395,-0.008881599642336369,-0.9224875569343567,0.007074242457747459,-0.3859621286392212,0.027162790298461914,-0.021249590441584587,0.023627012968063354,0.761694822954461,0.21965861294308572,-0.5086934584143736,0.335860323379803
1729785466433395200,2.894395263671875,0.03835560753941536,-0.15036678314208984,0.015761427581310272,-0.9228917360305786,0.006622279528528452,-0.3850027024745941,0.03150373697280884,-0.03736867010593414,0.03197541832923889,0.7613976820138835,0.22013181115711122,-0.5089603513506161,0.3358198531384309
1729785466443425300,2.90442529296875,-0.007214804645627737,-0.13996846973896027,0.021614789962768555,-0.9233272075653076,0.006459984928369522,-0.3839600086212158,0.03404492139816284,-0.045720770955085754,0.034228622913360596,0.7610906886969042,0.2204405356826576,-0.5093387523871811,0.3357396837638538
1729785466453456100,2.9144560546875,-0.060249995440244675,-0.14050781726837158,0.030223194509744644,-0.9237464070320129,0.006637193262577057,-0.3829474151134491,0.03107661008834839,-0.041762854903936386,0.03919753432273865,0.7608269446404266,0.2205030446237448,-0.5098084930402073,0.3355833741536938
1729785466463486200,2.924486328125,-0.08597799390554428,-0.11350975185632706,0.021503470838069916,-0.9240778684616089,0.007177664898335934,-0.38213708996772766,0.042669057846069336,-0.026617271825671196,0.055385470390319824,0.7606431041102065,0.22029124375959505,-0.5102971892949583,0.3353964148575173
1729785466473517000,2.93451708984375,-0.08269590884447098,-0.0623299777507782,0.002591298893094063,-0.9242408275604248,0.007718500215560198,-0.38173219561576843,0.03471440076828003,-0.0125706996768713,0.04718336462974548,0.760596649913855,0.21996639436949203,-0.5106355747374128,0.33519982014479804
1729785466483547100,2.944547119140625,-0.03549404814839363,-0.025233739987015724,-0.0038929658476263285,-0.9242717027664185,0.008018490858376026,-0.38165146112442017,0.020340919494628906,-0.002159031108021736,0.02821218967437744,0.760638658769884,0.2197173747467091,-0.5107822940661527,0.33504445336045646
1729785466493577200,2.9545771484375,0.03935009986162186,-0.013610693626105785,0.021608665585517883,-0.9243054389953613,0.008001110516488552,-0.38157016038894653,0.016636252403259277,-0.0009972508996725082,0.009896636009216309,0.7606041863393771,0.2197600469271179,-0.5108037254094814,0.33506209612899174
1729785466503608300,2.9646083984375,0.05076787248253822,0.02461392432451248,0.05228988081216812,-0.924315333366394,0.007894446142017841,-0.3815484344959259,0.01939260959625244,-0.005987015552818775,0.009157657623291016,0.7605082382502357,0.21996001887153577,-0.5107282832673441,0.3352636521592646
1729785466513638100,2.97463818359375,0.017546335235238075,0.056326474994421005,0.07409637421369553,-0.9241958260536194,0.007989686913788319,-0.3818356394767761,0.017610013484954834,-0.008279518224298954,0.0208737850189209,0.760478062057573,0.2200218827118178,-0.5105610231455073,0.3355459010969006
1729785466523668200,2.984668212890625,0.001792671624571085,0.005436394363641739,0.01972554251551628,-0.924124002456665,0.00799906998872757,-0.3820091784000397,0.02181065082550049,-0.012713965028524399,0.03561943769454956,0.7604830725577669,0.2200505235931752,-0.5104636947249098,0.33566389744396435
1729785466533699300,2.99469921875,-0.020718030631542206,0.005225098691880703,0.059523023664951324,-0.9241487383842468,0.008062095381319523,-0.3819478154182434,0.00926220417022705,-0.01688159815967083,0.05594387650489807,0.7604408368921518,0.2200652083712329,-0.5104874134773485,0.33571370084876484
1729785466543729400,3.0047294921875,-0.07639487087726593,0.027591124176979065,0.08892326056957245,-0.9242160320281982,0.008735506795346737,-0.3817704916000366,0.010321199893951416,0.007942433468997478,0.05463731288909912,0.7603543683550412,0.21978256953419428,-0.5106959661936701,0.3357778437793143
1729785466553760300,3.01476025390625,-0.04333259537816048,0.028001464903354645,0.054236918687820435,-0.9241473078727722,0.009663436561822891,-0.38191431760787964,-0.035859525203704834,0.01636815257370472,0.022569894790649414,0.7603342996975948,0.21933446614951627,-0.5108182003300611,0.335930152871923
1729785466563790300,3.024790283203125,0.03989172354340553,0.06686817109584808,0.05065549910068512,-0.9240014553070068,0.010062167420983315,-0.3822566568851471,-0.07389289140701294,0.005257744342088699,-0.01149633526802063,0.7603514041173564,0.21916958577770257,-0.510721415196525,0.33614604922671437
1729785466573820400,3.0348203125,0.01575888693332672,0.01638108119368553,0.037271782755851746,-0.9238760471343994,0.010265088640153408,-0.38255465030670166,-0.06022447347640991,0.00391040463000536,-0.012800514698028564,0.7603386920257921,0.21914771201164435,-0.5105849197973306,0.33639659640036107
1729785466583851300,3.044851318359375,-0.045890361070632935,-0.030291350558400154,0.023915231227874756,-0.9239115715026855,0.010518040508031845,-0.3824619948863983,-0.047280073165893555,0.015055770054459572,0.021774768829345703,0.7602884431308153,0.2190622269914236,-0.5106669582879475,0.3364413868991734
1729785466593881000,3.054881103515625,-0.06679637730121613,-0.054896771907806396,0.0368824265897274,-0.9241101741790771,0.010938196443021297,-0.3819698393344879,-0.0552448034286499,0.0290704183280468,0.026684284210205078,0.76018171468443,0.21887486356826327,-0.5109881410197639,0.33631654723866017
1729785466603911200,3.0649111328125,-0.048014696687459946,-0.05028151720762253,0.10121268033981323,-0.9243484139442444,0.01170185673981905,-0.3813702166080475,-0.06820541620254517,0.0392015315592289,0.0050427913665771484,0.7599742868585005,0.21862481681134224,-0.5113883829502183,0.336339606807115
1729785466613942300,3.0749423828125,-0.03866646811366081,-0.031490251421928406,0.1381848007440567,-0.924635112285614,0.012828380800783634,-0.38063809275627136,-0.07380849123001099,0.04718451201915741,-0.028129518032073975,0.7596417129706485,0.21833215684850443,-0.5118711063575783,0.3365464504493497
1729785466623972000,3.08497216796875,0.003668735735118389,-0.018748357892036438,0.20339976251125336,-0.924801230430603,0.014492039568722248,-0.3801749646663666,-0.08102774620056152,0.0433846153318882,-0.056317925453186035,0.7592468054928339,0.21790084847222516,-0.512280919594089,0.3370934505531048
1729785466634002200,3.095002197265625,0.07070982456207275,-0.035359401255846024,0.25584301352500916,-0.924939751625061,0.016590723767876625,-0.37975189089775085,-0.04703003168106079,0.018336718901991844,-0.09754294157028198,0.7586878565378562,0.21748577665513155,-0.5126636177319155,0.33803682112922284
1729785466644033300,3.105033203125,0.13066557049751282,-0.13945597410202026,0.25899645686149597,-0.9252158403396606,0.018617942929267883,-0.37898439168930054,0.007704734802246094,-0.03795074671506882,-0.11317247152328491,0.7579116099630485,0.21735574106315692,-0.5130928600410609,0.3392084058394974
1729785466654063000,3.11506298828125,0.054874397814273834,-0.3037691116333008,0.20626692473888397,-0.9260239005088806,0.02040984109044075,-0.3769131004810333,0.05918717384338379,-0.08548848330974579,-0.08368861675262451,0.7568188428151114,0.21752507718895459,-0.5140294634086435,0.34012057772880083
1729785466664094200,3.12509423828125,-0.1518891602754593,-0.36196956038475037,0.12548552453517914,-0.9273238182067871,0.022104747593402863,-0.37360680103302,0.07406747341156006,-0.0880836695432663,0.013621538877487183,0.7556722250967164,0.21753552510061663,-0.515630583451956,0.34023956955743156
1729785466674124300,3.135124267578125,-0.3157683312892914,-0.32632291316986084,0.1021312028169632,-0.9286432266235352,0.0240757018327713,-0.3701920509338379,0.03144162893295288,-0.05279267579317093,0.07708606123924255,0.7548155068700338,0.21692132484019994,-0.5175414066457564,0.33963162844047196
1729785466684154400,3.145154296875,-0.27541983127593994,-0.2808736562728882,0.14484722912311554,-0.9297393560409546,0.026422083377838135,-0.3672693073749542,-0.01836562156677246,-0.012826409190893173,0.04305058717727661,0.7541365188194145,0.2159373938112065,-0.5193615250901695,0.33898798386588547
1729785466694185200,3.155185302734375,-0.15273013710975647,-0.29149100184440613,0.15932683646678925,-0.9307112097740173,0.028745491057634354,-0.3646239936351776,-0.03187435865402222,0.019441839307546616,-0.0282135009765625,0.7533706386120748,0.21516047683353537,-0.5209548702349206,0.33874015079541886
1729785466704215300,3.16521533203125,-0.04365557059645653,-0.32204917073249817,0.11482782661914825,-0.9317483305931091,0.030501678586006165,-0.3618214428424835,-0.030272603034973145,0.0521552637219429,-0.049662262201309204,0.7524476646776177,0.2148987134823052,-0.5224058024098022,0.33872302623236117
1729785466714245400,3.175245361328125,0.026880314573645592,-0.33550456166267395,0.03993307799100876,-0.9327879548072815,0.031264886260032654,-0.3590671122074127,-0.02596759796142578,0.06797836720943451,-0.02871963381767273,0.7515489246851734,0.21516567174796228,-0.5236126163804136,0.33868544686604096
1729785466724276200,3.185276123046875,0.08156566321849823,-0.34606242179870605,0.011980806477367878,-0.933834969997406,0.03107430227100849,-0.35635197162628174,-0.04320061206817627,0.06197388470172882,-0.016069144010543823,0.7507062906961348,0.21588946725461663,-0.5246100940151184,0.33854997217765215
1729785466734306300,3.195306396484375,0.10816098749637604,-0.33539751172065735,0.0579855814576149,-0.9350536465644836,0.03102075308561325,-0.3531467020511627,-0.06432086229324341,0.05264326184988022,-0.009569883346557617,0.7496387859023392,0.21675903688803916,-0.5257776828901093,0.3385487126209993
1729785466744337400,3.20533740234375,0.162274569272995,-0.2948460876941681,0.12117227166891098,-0.9361458420753479,0.031395480036735535,-0.3502075672149658,-0.08370590209960938,0.04732469469308853,-0.004269272089004517,0.7485087585947039,0.21755151731262104,-0.5268467975048279,0.338878317851097
1729785466754367200,3.2153671875,0.22811461985111237,-0.2951636016368866,0.17933356761932373,-0.9371126294136047,0.032123029232025146,-0.34754619002342224,-0.10208731889724731,0.03199449181556702,-0.036547958850860596,0.7472636095855366,0.21839494993115327,-0.5277599377533724,0.3396622212328807
1729785466764397000,3.22539697265625,0.19493350386619568,-0.3318001627922058,0.18885837495326996,-0.9381386637687683,0.03313075751066208,-0.3446716368198395,-0.09044122695922852,0.019008610397577286,-0.05712270736694336,0.7458797298807879,0.21924023028283074,-0.5287701760712026,0.34058695121722615
1729785466774428200,3.23542822265625,0.13543236255645752,-0.39467841386795044,0.15639017522335052,-0.9393332600593567,0.034184664487838745,-0.34129858016967773,-0.07269078493118286,0.011286601424217224,-0.028467535972595215,0.744435325548098,0.22002435691334793,-0.5300377285641639,0.3412704917138048
1729785466784458200,3.245458251953125,0.09043265879154205,-0.423107385635376,0.15811537206172943,-0.9406843781471252,0.03527308255434036,-0.3374444544315338,-0.06116199493408203,0.009313181042671204,-0.020313024520874023,0.7429493448644554,0.22072805953354685,-0.5315608065763021,0.3416849144443481
1729785466794488000,3.255488037109375,0.10561627149581909,-0.4220633804798126,0.2056378871202469,-0.9420470595359802,0.036655131727457047,-0.33347228169441223,-0.05862438678741455,0.021603010594844818,-0.032235026359558105,0.7414005315870571,0.2213305344374717,-0.5331760054174061,0.3421424432785443
1729785466804519200,3.265519287109375,0.18334780633449554,-0.4057057201862335,0.23235177993774414,-0.9433416724205017,0.0383007749915123,-0.3296053409576416,-0.051577210426330566,0.02677803486585617,-0.047790199518203735,0.739755197282188,0.22195868948976605,-0.5347257860130885,0.3428775757675607
1729785466814549200,3.27554931640625,0.2802055776119232,-0.3850475251674652,0.19318893551826477,-0.9445756077766418,0.03958361595869064,-0.3258993625640869,-0.037815868854522705,0.01768270879983902,-0.05308312177658081,0.7380427517054295,0.22293663864788346,-0.5360499767104211,0.3438645393232047
1729785466824579300,3.285579345703125,0.3249586522579193,-0.36072778701782227,0.1243896409869194,-0.9457333087921143,0.04009881988167763,-0.3224605321884155,-0.029410243034362793,0.011308122426271439,-0.03769254684448242,0.736414060289281,0.2242873339250025,-0.5370893079972794,0.34485466919871444
1729785466834610200,3.295610107421875,0.34053337574005127,-0.3339846730232239,0.10023742914199829,-0.9468056559562683,0.040045659989118576,-0.3193046748638153,-0.026750922203063965,0.02031819149851799,-0.02604737877845764,0.7349157361868,0.22583038746421435,-0.5379110568084028,0.34576187423506605
1729785466844640300,3.30564013671875,0.38726332783699036,-0.3619515895843506,0.13336367905139923,-0.9478662014007568,0.03996392711997032,-0.316152960062027,-0.02683478593826294,0.020613539963960648,-0.030511409044265747,0.7333755806858039,0.22745515064493246,-0.538690706532205,0.3467518812108664
1729785466854671400,3.31567138671875,0.45027074217796326,-0.3578139841556549,0.18223828077316284,-0.9489607214927673,0.04010014235973358,-0.31283488869667053,-0.01823294162750244,-0.002349819988012314,-0.017380446195602417,0.7316288626349339,0.22923254145564648,-0.539476593952653,0.34804700858350257
1729785466864701200,3.325701171875,0.4100375473499298,-0.27267858386039734,0.2246730923652649,-0.9498661160469055,0.04066166654229164,-0.31000155210494995,-0.019051730632781982,-0.029186971485614777,0.023716241121292114,0.7299190562417406,0.2308331835294349,-0.5401067143667589,0.34959827118087805
1729785466874731300,3.335731201171875,0.3340119421482086,-0.20322152972221375,0.2655954957008362,-0.950489342212677,0.04184624180197716,-0.30792689323425293,-0.021342992782592773,-0.05159653350710869,0.06551066040992737,0.7284194399539101,0.2319449496931778,-0.5405905020646931,0.3512387473941849
1729785466884762400,3.345762451171875,0.2420112043619156,-0.21600817143917084,0.2764950394630432,-0.9510190486907959,0.04354473575949669,-0.3060504198074341,0.0018306970596313477,-0.06222141906619072,0.05867499113082886,0.727036022200112,0.2326317128892195,-0.5411628945629631,0.3527662473110456
1729785466894792200,3.355792236328125,0.15484240651130676,-0.23626528680324554,0.25263655185699463,-0.9516012668609619,0.045475784689188004,-0.3039528727531433,0.03178596496582031,-0.050236430019140244,0.0425240695476532,0.725713634557287,0.23303362780314724,-0.5419583835106017,0.3540005642844144
1729785466904823300,3.3658232421875,0.12480594962835312,-0.2516855299472809,0.24068695306777954,-0.9522367715835571,0.047409430146217346,-0.30165836215019226,0.0411648154258728,-0.026825226843357086,0.028144627809524536,0.7244436895366019,0.2333019002470833,-0.5429005825331488,0.3549799187293408
1729785466914853400,3.375853271484375,0.1423710286617279,-0.23715686798095703,0.24238310754299164,-0.9528669118881226,0.049296800047159195,-0.29935696721076965,0.03775149583816528,-0.007975917309522629,0.009348541498184204,0.7231880246907408,0.23357067312223503,-0.5438439580095796,0.35591810949963504
1729785466924883200,3.38588330078125,0.16465316712856293,-0.21944470703601837,0.2224123328924179,-0.9534361958503723,0.05107060447335243,-0.29723936319351196,0.033727943897247314,-0.0007317662239074707,0.004255503416061401,0.7219665917085868,0.23389559591531056,-0.5446771208210719,0.3569088943723897
1729785466934914300,3.395914306640625,0.20822773873806,-0.19675873219966888,0.20498327910900116,-0.9539433717727661,0.05254123732447624,-0.2953500747680664,0.024560987949371338,-0.009801290929317474,0.02240091562271118,0.7207975602738043,0.23436870954141872,-0.5453405137286523,0.3579470221462211
1729785466944944000,3.405944091796875,0.20662610232830048,-0.1663110852241516,0.2252667099237442,-0.954369843006134,0.05391732603311539,-0.29371964931488037,0.018288850784301758,-0.02552064135670662,0.041812390089035034,0.7196768439356095,0.23488423928981378,-0.5458658889244757,0.35906147402590927
1729785466954974700,3.415974609375,0.1607552319765091,-0.12417848408222198,0.26048117876052856,-0.9546756744384766,0.05571405217051506,-0.29238805174827576,0.02271437644958496,-0.027881931513547897,0.06492534279823303,0.718608590075257,0.23515098794555306,-0.546360669176328,0.3602721733370477
1729785466965005600,3.426005615234375,0.12588059902191162,-0.06373351812362671,0.2735695540904999,-0.9548047184944153,0.05785124748945236,-0.29154959321022034,0.030503571033477783,-0.025441482663154602,0.07736209034919739,0.7176949199783277,0.23510596856812196,-0.5467635582676014,0.3615090645078857
1729785466975035600,3.43603564453125,0.13192743062973022,-0.03035968542098999,0.24396051466464996,-0.9547849893569946,0.05997826159000397,-0.2911844849586487,0.03483247756958008,-0.022975601255893707,0.060258060693740845,0.7169463263583385,0.23492960405462857,-0.5470062470506503,0.3627400026665948
1729785466985065700,3.446065673828125,0.14614231884479523,-0.03005582094192505,0.18081802129745483,-0.9547533988952637,0.061606086790561676,-0.29094788432121277,0.041530072689056396,-0.017233435064554214,0.05382639169692993,0.7163044591551314,0.2349063511852269,-0.5471243653779487,0.36384325562724196
1729785466995096600,3.4560966796875,0.1737479269504547,-0.0033879904076457024,0.15740004181861877,-0.9547215700149536,0.06272627413272858,-0.2908128798007965,0.028726696968078613,-0.0018131211400032043,0.061351269483566284,0.7157493399310773,0.2350656348927691,-0.5471176369061456,0.36484148622839224
1729785467005126700,3.466126708984375,0.23593886196613312,0.07305245846509933,0.16909319162368774,-0.9545232057571411,0.06366196274757385,-0.2912609875202179,0.0009250640869140625,0.011411376297473907,0.05793893337249756,0.7153073083477133,0.23529779152379252,-0.5468129930688849,0.3660139975411225
1729785467015157800,3.47615771484375,0.2829628884792328,0.12449817359447479,0.23271530866622925,-0.9541105031967163,0.06478927284479141,-0.2923622131347656,-0.030249297618865967,0.0037685558199882507,0.025425046682357788,0.7148991202775351,0.23551844759516935,-0.5462142029854165,0.36756013853243424
1729785467025187800,3.486187744140625,0.26966920495033264,0.16075125336647034,0.28393590450286865,-0.953512966632843,0.06647021323442459,-0.29393020272254944,-0.024682343006134033,-0.004916168749332428,0.011352777481079102,0.7144826479405588,0.23553517311488043,-0.5454888468902177,0.36943175290224806
1729785467035217700,3.4962177734375,0.2540847659111023,0.1402536928653717,0.2811829745769501,-0.9528831839561462,0.06839629262685776,-0.2955264747142792,-0.0028206706047058105,-0.009192109107971191,-0.0002193450927734375,0.7140508798238043,0.23543086008580363,-0.5448018649075606,0.3713418997277457
1729785467045248800,3.506248779296875,0.2201790064573288,0.1058184951543808,0.23174086213111877,-0.9523445963859558,0.07015591859817505,-0.2968469262123108,0.03077465295791626,-0.023524969816207886,-0.0004552602767944336,0.7136189613233869,0.23535102659880094,-0.5442301274660158,0.37305710156741356
1729785467055278800,3.51627880859375,0.19038714468479156,0.10467781126499176,0.1926770806312561,-0.95189368724823,0.0715290904045105,-0.29796352982521057,0.04663538932800293,-0.03553352504968643,0.026463985443115234,0.7132630416095702,0.23532959192272263,-0.5437262313115162,0.37448339647821327
1729785467065309000,3.526308837890625,0.1902092546224594,0.12321634590625763,0.1934419423341751,-0.9514216780662537,0.07279311865568161,-0.2991626262664795,0.03969365358352661,-0.041359931230545044,0.03242379426956177,0.7129851631526358,0.23526995906553494,-0.5432004585346004,0.37581070898957286
1729785467075339800,3.53633984375,0.21592099964618683,0.13830576837062836,0.20759664475917816,-0.9508816599845886,0.07409892231225967,-0.30055510997772217,0.028075873851776123,-0.044100068509578705,0.013171166181564331,0.7127184323170196,0.23520641560956182,-0.5425867486243573,0.37723997024209116
1729785467085369900,3.546369873046875,0.2146860957145691,0.15476302802562714,0.21012024581432343,-0.9502881765365601,0.07543018460273743,-0.3020976185798645,0.025666415691375732,-0.037756145000457764,0.022144734859466553,0.7124611007854186,0.23514077057701088,-0.5419040517225441,0.3787455446446837
1729785467095400700,3.556400634765625,0.18850336968898773,0.16044925153255463,0.1853664368391037,-0.949657678604126,0.07670790702104568,-0.3037537634372711,0.032055020332336426,-0.031770676374435425,0.04444599151611328,0.7122748632554712,0.23502103928379733,-0.5411914864526833,0.3801861935647482
1729785467105430800,3.5664306640625,0.16115696728229523,0.14103266596794128,0.16050662100315094,-0.9490705132484436,0.07779449224472046,-0.3053087890148163,0.03281062841415405,-0.040196746587753296,0.04310178756713867,0.7121445799186246,0.23490428866751542,-0.5405234305106965,0.3814507385759291
1729785467115460600,3.576460693359375,0.10948903858661652,0.1139129102230072,0.17456625401973724,-0.9485532641410828,0.07896263152360916,-0.30661314725875854,0.033590495586395264,-0.0515730157494545,0.018954545259475708,0.7120063513476704,0.2346971525538807,-0.5400098881406314,0.3825618465840288
1729785467125492000,3.586491943359375,0.0894402340054512,0.08298082649707794,0.19427897036075592,-0.9481112360954285,0.08041197806596756,-0.30760204792022705,0.04085415601730347,-0.04818534106016159,-0.011962652206420898,0.7117969986232686,0.23436402626228375,-0.5396966591451491,0.3835962224921432
1729785467135521500,3.596521484375,0.09311532974243164,0.04300603270530701,0.1856900006532669,-0.9477617144584656,0.08194674551486969,-0.30827367305755615,0.053062498569488525,-0.04965905845165253,-0.029769420623779297,0.711489044116609,0.23405556315495732,-0.5395193731647088,0.3846040601639866
1729785467145551600,3.606551513671875,0.07123266160488129,0.005172634497284889,0.15608684718608856,-0.9475586414337158,0.08331292122602463,-0.30853137373924255,0.06587529182434082,-0.049255214631557465,-0.013200074434280396,0.711118688175026,0.2338471413664458,-0.5394903357944925,0.3854555304249815
1729785467155582700,3.616582763671875,0.03540869057178497,0.011573116295039654,0.13527584075927734,-0.9474248886108398,0.08451120555400848,-0.30861684679985046,0.06905251741409302,-0.03630860149860382,0.026130974292755127,0.7107859571124775,0.23364693050309035,-0.5395374810016761,0.3861243479410323
1729785467165612800,3.62661279296875,0.036807116121053696,0.013471949845552444,0.13337594270706177,-0.9472742080688477,0.08567187190055847,-0.30875882506370544,0.05880063772201538,-0.02932107448577881,0.043454378843307495,0.7105233447763639,0.2333799492794201,-0.5395872319709349,0.38669899004012015
1729785467175642600,3.636642578125,0.03833703696727753,0.021098816767334938,0.13299350440502167,-0.947107195854187,0.08684179186820984,-0.3089441657066345,0.04589259624481201,-0.034671902656555176,0.020019084215164185,0.7102565757458721,0.2331211186635374,-0.53961324643965,0.38730832571592616
1729785467185673700,3.646673828125,0.04038979858160019,-0.009829270653426647,0.10944771021604538,-0.9469786286354065,0.08787386119365692,-0.30904683470726013,0.04864782094955444,-0.039717040956020355,0.002955615520477295,0.7099943052723483,0.2329180310746688,-0.5396533767932941,0.38785527017614096
1729785467195703800,3.656703857421875,-0.004875018261373043,-0.03809622302651405,0.08435194194316864,-0.9470090866088867,0.08850697427988052,-0.30877283215522766,0.06190764904022217,-0.04874248802661896,0.010158419609069824,0.7097312863148425,0.23287059865623877,-0.5398007683835814,0.388159942499404
1729785467205734700,3.666734619140625,-0.05704501271247864,-0.04471417888998985,0.05298949405550957,-0.9470672607421875,0.08908183872699738,-0.3084286153316498,0.07009881734848022,-0.052338600158691406,0.022768914699554443,0.7095703446673095,0.2327007351404352,-0.540033386847043,0.3882324060755821
1729785467215764700,3.6767646484375,-0.06116585433483124,-0.03312532603740692,0.03364775329828262,-0.9471145272254944,0.08947999030351639,-0.30816835165023804,0.06300491094589233,-0.05064627528190613,0.011781692504882812,0.7095202745117498,0.23249347773520307,-0.540243096341229,0.3881564323793345
1729785467225794800,3.686794921875,-0.050370462238788605,-0.05471397563815117,-0.029634546488523483,-0.9472319483757019,0.08952188491821289,-0.3077950179576874,0.056835711002349854,-0.039701834321022034,0.011744022369384766,0.7095071547205514,0.23241602012534424,-0.5404491559829687,0.3879398603945299
1729785467235825700,3.69682568359375,-0.019783325493335724,0.011523634195327759,-0.018353130668401718,-0.9473468661308289,0.0892290472984314,-0.30752599239349365,0.04091364145278931,-0.023631438612937927,0.04867595434188843,0.7095433737993218,0.23248063645479544,-0.5405457965497044,0.3877000281588332
1729785467245855700,3.706855712890625,0.011708819307386875,0.02736784517765045,-0.047146961092948914,-0.9473236799240112,0.08886142075061798,-0.3077039420604706,0.03236079216003418,-0.003610461950302124,0.03415966033935547,0.7096895306011581,0.23252100594087316,-0.5404461188426434,0.38754729889633105
1729785467255886800,3.716886962890625,0.040492862462997437,0.016202755272388458,-0.029575958847999573,-0.9473134279251099,0.08825767040252686,-0.30790936946868896,0.008211076259613037,-0.020905278623104095,0.0059684813022613525,0.709798881596264,0.23275264555915726,-0.5402513549626287,0.38747964295058274
1729785467265917000,3.7269169921875,-0.03018743172287941,0.024503562599420547,-0.016238847747445107,-0.9472649097442627,0.08791717141866684,-0.3081558048725128,0.016982197761535645,-0.02589009702205658,0.023320019245147705,0.7099202916677964,0.23282507629280674,-0.5401060824127717,0.38741617592470406
1729785467275946800,3.73694677734375,-0.0898032933473587,0.020570285618305206,-0.04255460575222969,-0.9472101330757141,0.08772384375333786,-0.30837905406951904,0.019979238510131836,-0.022187262773513794,0.054518669843673706,0.710140543532612,0.23267115777468847,-0.5400690783098263,0.38715629825928055
1729785467285977900,3.746977783203125,-0.11236558854579926,0.011720068752765656,-0.05014035478234291,-0.9472106099128723,0.087430939078331,-0.3084605932235718,0.01900315284729004,-0.01904095709323883,0.04668089747428894,0.7104250915518076,0.23245671514167235,-0.5401236708548733,0.3866865359545343
1729785467296007700,3.757007568359375,-0.08453889191150665,0.02603386715054512,-0.04394291341304779,-0.9472026824951172,0.08715067058801651,-0.30856436491012573,0.012830674648284912,-0.00327301025390625,0.022263795137405396,0.7107137604236106,0.23223335124434866,-0.5401717252649845,0.3862230510451259
1729785467306037800,3.767037841796875,-0.011356553062796593,0.07659291476011276,-0.03348707780241966,-0.9470897912979126,0.08678573369979858,-0.30901381373405457,-0.0043721795082092285,0.006720215082168579,-0.0024485886096954346,0.7110064347983299,0.23211981222594816,-0.540012492954222,0.38597541840786387
1729785467316068600,3.777068603515625,0.04866457358002663,0.09010621905326843,-0.0348530113697052,-0.946908712387085,0.08629763871431351,-0.30970415472984314,-0.022207558155059814,0.010565236210823059,-0.01777985692024231,0.7112608557848313,0.23217657638395808,-0.5396683732521516,0.38595355665525527
1729785467326098700,3.7870986328125,0.06981886178255081,0.0725911408662796,-0.027728255838155746,-0.9467389583587646,0.0858352854847908,-0.31035104393959045,-0.027015984058380127,0.006266847252845764,-0.017926424741744995,0.7114183755781126,0.23234559283868547,-0.539295845122288,0.38608227200730494
1729785467336128800,3.797128662109375,0.05774322524666786,0.06528837978839874,-0.050101738423109055,-0.9465903639793396,0.08512499183416367,-0.3109996020793915,-0.01803988218307495,-0.0008811205625534058,0.023569822311401367,0.7116078333660767,0.2326112073854478,-0.5388805341621754,0.3861532197927926
1729785467346159600,3.80715966796875,0.04304097592830658,0.0619136244058609,-0.04693657159805298,-0.946520209312439,0.08425386250019073,-0.3114500641822815,-0.031995534896850586,-0.014338009059429169,0.04791557788848877,0.711800809097986,0.23292478048164128,-0.5385359897071642,0.3860892904126139
1729785467356189700,3.817189697265625,0.022782308980822563,0.056628208607435226,0.01518165972083807,-0.946540892124176,0.08379019051790237,-0.3115119934082031,-0.04825592041015625,-0.022053055465221405,0.019641965627670288,0.7118427794266533,0.23314184083154363,-0.5384133065185377,0.3860518091437459
1729785467366220800,3.827220703125,0.0051447260193526745,0.061427757143974304,0.06967206299304962,-0.9464931488037109,0.0840379148721695,-0.31159037351608276,-0.03557783365249634,-0.008094817399978638,-0.012017965316772461,0.7117838595980208,0.2330982092694834,-0.5383958032793342,0.38621121934151675
1729785467376250600,3.837250732421875,0.010144611820578575,0.04107747972011566,0.04896359145641327,-0.9463691115379333,0.08465247601270676,-0.31180036067962646,0.0028113722801208496,-0.004894711077213287,0.00027701258659362793,0.7117136702059649,0.23288667226217996,-0.5383898434561014,0.38647621145235383
1729785467386280700,3.84728076171875,-0.021689750254154205,0.024172265082597733,-0.0045172106474637985,-0.9462537169456482,0.08502040803432465,-0.31205105781555176,0.03657025098800659,-0.028379693627357483,0.039010316133499146,0.7117224467935624,0.23271346768981213,-0.5383483212052449,0.3866225558874881
1729785467396311800,3.857311767578125,-0.06192445382475853,0.01643945649266243,-0.03639791160821915,-0.9461669325828552,0.08508198708295822,-0.3122967481613159,0.03765857219696045,-0.03250012546777725,0.07808968424797058,0.7118777968282103,0.23250903762508696,-0.5383225518737367,0.38649507697935065
1729785467406342000,3.867341796875,-0.057510800659656525,0.013399459421634674,-0.00954898726195097,-0.9461133480072021,0.08508971333503723,-0.31245726346969604,0.010047554969787598,-0.022757478058338165,0.07799077033996582,0.7120564621728341,0.23228667629698407,-0.5383440122016536,0.3862698934450075
1729785467416371700,3.877371826171875,-0.015295900404453278,0.016829876229166985,0.02786283567547798,-0.9461914300918579,0.08525499701499939,-0.31217581033706665,-0.01642465591430664,-0.017811045050621033,0.039302945137023926,0.7120212506651691,0.23218753089742322,-0.538517448847506,0.38615267448582913
1729785467426402800,3.88740283203125,-0.01885281875729561,0.012915295548737049,0.05163421109318733,-0.9463527202606201,0.08547402918338776,-0.3116263747215271,-0.028210997581481934,-0.01116364449262619,0.010616302490234375,0.7118487852684946,0.23219735249721352,-0.5387682308998635,0.3861148591083533
1729785467436433000,3.897432861328125,-0.05334082245826721,-0.0362556055188179,0.03908752650022507,-0.9465101361274719,0.0856873169541359,-0.31108930706977844,-0.014580130577087402,0.006506383419036865,0.0037926137447357178,0.7117089669720431,0.2321672410131151,-0.5390303486901655,0.38602495691562533
1729785467446463700,3.907463623046875,-0.0759662389755249,-0.06318309158086777,-0.005812305957078934,-0.9466619491577148,0.08587440103292465,-0.3105752766132355,0.007498621940612793,0.021257653832435608,0.022992968559265137,0.7116468624557803,0.2320476481328703,-0.5393201713415652,0.3858064131933828
1729785467456493800,3.917493896484375,-0.056051451712846756,-0.04886269196867943,-0.032110221683979034,-0.9468547701835632,0.08579140901565552,-0.31000998616218567,0.003922522068023682,0.030694276094436646,0.03735077381134033,0.7116394141531819,0.2319951885673178,-0.5396047060441832,0.38545369146296793
1729785467466523600,3.927523681640625,0.024143517017364502,-0.021080326288938522,-0.007987841963768005,-0.9471256136894226,0.08523744344711304,-0.3093343675136566,-0.021792292594909668,0.02660958468914032,0.02086704969406128,0.7115772467350711,0.2322656758416396,-0.5398013206899013,0.3851300141938878
1729785467476554800,3.9375546875,0.06813134253025055,0.009901822544634342,0.03935756906867027,-0.9474860429763794,0.08474800735712051,-0.3083637058734894,-0.034584999084472656,0.008193373680114746,0.00039565563201904297,0.7112839784003208,0.23276525862129033,-0.5400356297877672,0.3850416399709055
1729785467486584600,3.94758447265625,0.04036496579647064,0.009528180584311485,0.04742614924907684,-0.9478392004966736,0.08461084961891174,-0.3073142468929291,-0.026022613048553467,-0.012589268386363983,0.013780951499938965,0.7108865549992405,0.23319458661173725,-0.5403361556040223,0.38509420417061246
1729785467496614700,3.95761474609375,-0.04930220544338226,-0.023135116323828697,0.03400488197803497,-0.9480482935905457,0.08470501750707626,-0.30664247274398804,-0.003245711326599121,-0.0191836878657341,0.050676435232162476,0.7106726908854222,0.23330869177173785,-0.5405976426656243,0.3850527759299516
1729785467506645800,3.967645751953125,-0.11065078526735306,-0.03365939483046532,0.0005230875685811043,-0.948200523853302,0.0849638432264328,-0.3060995042324066,0.018543541431427002,-0.008700326085090637,0.08184114098548889,0.7106278263659336,0.2331167210499194,-0.5409314609757878,0.3847828490955222
1729785467516675600,3.977675537109375,-0.11714909225702286,-0.03333417326211929,-0.014064377173781395,-0.9483157992362976,0.08530884981155396,-0.30564644932746887,0.011517584323883057,0.005740441381931305,0.06538164615631104,0.7106739271762801,0.23276513116839556,-0.5412921301413094,0.38440339594564776
1729785467526706700,3.987706787109375,-0.08120041340589523,-0.018964551389217377,-0.012522140517830849,-0.9484453201293945,0.0858050212264061,-0.30510544776916504,0.0026596784591674805,0.01975538581609726,0.023977577686309814,0.7106454733566672,0.2324139386352759,-0.541692753011353,0.38410413149942685
1729785467536736800,3.99773681640625,-0.06504621356725693,-0.020502954721450806,-0.03239677846431732,-0.9486157298088074,0.08627590537071228,-0.30444207787513733,0.006980419158935547,0.029935143887996674,0.0002581179141998291,0.7105415862958327,0.23215839455485593,-0.5421083266676558,0.3838645086364532
1729785467546766800,4.007766845703125,-0.05018950253725052,-0.01195207703858614,-0.0658588632941246,-0.9487735629081726,0.08631718158721924,-0.30393779277801514,0.018094182014465332,0.029481850564479828,0.0039195716381073,0.7105302670514642,0.2320489860570016,-0.5423876545845525,0.38355669816285065
1729785467556797700,4.017797607421875,-0.049794554710388184,-0.00674117635935545,-0.09074956923723221,-0.9488946795463562,0.08579091727733612,-0.3037088215351105,0.025280117988586426,0.01442890614271164,0.015119373798370361,0.7106761125179908,0.23209719583312582,-0.5424725660640107,0.38313714859899917
1729785467566827800,4.027827880859375,-0.0925726443529129,0.009904646314680576,-0.12575548887252808,-0.9491043090820312,0.0847078338265419,-0.3033575713634491,0.0168074369430542,-0.0027375221252441406,0.02753978967666626,0.7109231836491986,0.2322947218031181,-0.5425498871874368,0.382448920374621
1729785467576857900,4.03785791015625,-0.1403600126504898,0.0005824626423418522,-0.17145267128944397,-0.9494959712028503,0.08333887904882431,-0.30250999331474304,-0.003049314022064209,-0.0006056353449821472,0.040318310260772705,0.7111924026069393,0.23252099892708078,-0.5428434299788902,0.38139285943701334
1729785467586888700,4.047888671875,-0.13671307265758514,-0.011410550214350224,-0.1818438023328781,-0.9500889182090759,0.08199647068977356,-0.30101117491722107,-0.030013680458068848,0.015415728092193604,0.03401300311088562,0.7113340376010174,0.23277568801574985,-0.5434242243209731,0.38014408328739385
1729785467596918800,4.057918701171875,-0.09944459795951843,0.036173321306705475,-0.1591707020998001,-0.9505200386047363,0.08097045123577118,-0.29992637038230896,-0.05540060997009277,0.05327647924423218,0.015075355768203735,0.7115003037785785,0.23289706409924196,-0.5438711043012597,0.3791184253532468
1729785467606950000,4.067949951171875,-0.02030903473496437,0.10578808933496475,-0.14461199939250946,-0.9504643082618713,0.08007092773914337,-0.30034396052360535,-0.06734281778335571,0.0946422889828682,-0.007090091705322266,0.7119484878167485,0.23285649577847867,-0.5436964941619632,0.3785518104506907
1729785467616979700,4.077979736328125,0.031385719776153564,0.1353827863931656,-0.12624870240688324,-0.9501516819000244,0.0791201964020729,-0.3015827238559723,-0.05177104473114014,0.09568457305431366,-0.03516340255737305,0.7124893548844254,0.2328854913545047,-0.5431141529030902,0.37835238103134805
1729785467627009500,4.088009521484375,0.005271292291581631,0.1351444274187088,-0.10885985940694809,-0.9498019218444824,0.07828663289546967,-0.30289900302886963,-0.006680130958557129,0.0747896209359169,-0.02911686897277832,0.7130102716702063,0.23289184328881263,-0.5425051927313043,0.3782407895999062
1729785467637041000,4.098041015625,-0.03957221284508705,0.1506037563085556,-0.08917883038520813,-0.9494494199752808,0.07762037962675095,-0.3041727542877197,0.04397749900817871,0.037949755787849426,0.0018351972103118896,0.7135555794542587,0.23275810117097148,-0.5419753615273492,0.3780541455315671
1729785467647070700,4.10807080078125,-0.07649827003479004,0.164695605635643,-0.07749314606189728,-0.9490720629692078,0.07708237320184708,-0.30548474192619324,0.07701677083969116,-0.01278173178434372,0.009754210710525513,0.7141616102683949,0.23247201993933325,-0.5414927436169021,0.37777751015924654
1729785467657100800,4.118100830078125,-0.10020752996206284,0.10460920631885529,-0.12987060844898224,-0.9487833976745605,0.07642620801925659,-0.3065439760684967,0.10082191228866577,-0.049814797937870026,-0.007649630308151245,0.7147749046289843,0.2321892967809381,-0.5411248842939588,0.37731805320808365
1729785467667131600,4.128131591796875,-0.09026888012886047,0.025788962841033936,-0.22702938318252563,-0.9487749934196472,0.07507047057151794,-0.306904673576355,0.10095083713531494,-0.05724812299013138,-0.015040457248687744,0.7153444746830779,0.23222074424588382,-0.5409447255958127,0.37647665957267823
1729785467677161700,4.13816162109375,-0.0646163821220398,0.020165111869573593,-0.2756704092025757,-0.9489406943321228,0.07305741310119629,-0.30687811970710754,0.0680965781211853,-0.03312509506940842,-0.013708919286727905,0.7159064478227104,0.23255404139208916,-0.5408137938263975,0.37538917697112495
1729785467687192600,4.148192626953125,0.043407559394836426,0.12705294787883759,-0.20280766487121582,-0.9489072561264038,0.07110780477523804,-0.30743908882141113,0.012871980667114258,-0.001664958894252777,-0.020441651344299316,0.7165068744220542,0.23291872504967553,-0.5403973784002098,0.3746164930599968
1729785467697222700,4.15822265625,0.21258559823036194,0.2259005904197693,-0.08494041115045547,-0.948402464389801,0.06970752030611038,-0.30931156873703003,-0.016929566860198975,-0.0008750408887863159,-0.06188890337944031,0.7170790355068694,0.23328914004874884,-0.5393703610181206,0.37477126472308914
1729785467707252700,4.168252685546875,0.3212151527404785,0.17111696302890778,-0.09511848539113998,-0.9477726221084595,0.0683697834610939,-0.31153276562690735,-0.00011867284774780273,-0.03002435714006424,-0.1197262704372406,0.7174434266571673,0.23399265705361055,-0.538034438322442,0.3755547430206432
1729785467717283800,4.178283935546875,0.3085591495037079,-0.0071906642988324165,-0.25929969549179077,-0.9476038217544556,0.0659300908446312,-0.31257086992263794,0.032396793365478516,-0.048855409026145935,-0.07637560367584229,0.7175926011680561,0.23537840014619607,-0.5369465287529951,0.3759607964805452
1729785467727313700,4.188313720703125,0.2841012179851532,-0.0876074731349945,-0.36653053760528564,-0.9479928612709045,0.06194896623492241,-0.31220516562461853,0.01940387487411499,-0.03260624036192894,0.04572576284408569,0.7177050160716516,0.2373963499152147,-0.536227929264761,0.375502699250443
1729785467737343700,4.19834375,0.40336868166923523,0.1603938490152359,-0.20029550790786743,-0.9480910301208496,0.05796214938163757,-0.31267237663269043,-0.05317556858062744,0.015264857560396194,0.1267135739326477,0.7179384612082867,0.23941173822576792,-0.5351129098573313,0.37536745136205724
1729785467747374800,4.208374755859375,0.6454193592071533,0.43524113297462463,-0.015825524926185608,-0.9471525549888611,0.055414218455553055,-0.31596100330352783,-0.12215292453765869,0.06882292032241821,0.03622174263000488,0.7183585935510234,0.24091413682808221,-0.5328976243835092,0.37675125519904074
