time,seconds_elapsed,rotationRateX,rotationRateY,rotationRateZ,gravityX,gravityY,gravityZ,accelerationX,accelerationY,accelerationZ,quaternionW,quaternionX,quaternionY,quaternionZ
1729789166226653000,0.11965283203125,0.19305044412612915,0.14939990639686584,0.22820258140563965,-0.1489412933588028,-0.35081443190574646,-0.9245246052742004,0.004135414958000183,-0.017380058765411377,-0.06351250410079956,0.9809497145216542,0.178813669663659,-0.07591688713401133,-9.007629602510498e-18
1729789166236683800,0.129683837890625,0.2004832625389099,0.1489429622888565,0.33497777581214905,-0.14853060245513916,-0.3521833121776581,-0.9240701198577881,0.04269564151763916,-0.0026445090770721436,-0.08362030982971191,0.9808325885895064,0.17965575839641754,-0.0754238091235661,0.0015984616219822504
1729789166246715000,0.13971484375,0.1800197958946228,0.13456667959690094,0.41390562057495117,-0.14855264127254486,-0.35335928201675415,-0.9236175417900085,0.07021403312683105,-0.008243471384048462,-0.044155895709991455,0.9807118035331115,0.1804334144378558,-0.07506673620818494,0.0036439454982784523
1729789166256745000,0.149744873046875,0.20004436373710632,0.15385861694812775,0.4842926859855652,-0.14882536232471466,-0.3543712794780731,-0.9231858253479004,0.05499906837940216,-0.008009672164916992,-0.008103907108306885,0.9805897950449618,0.18115478032384547,-0.07476657213640814,0.0060574727416724955
1729789166266775800,0.15977587890625,0.21004240214824677,0.15442001819610596,0.5583730340003967,-0.14918166399002075,-0.3555128574371338,-0.9226892590522766,0.026378944516181946,0.0046675801277160645,0.02179509401321411,0.9804422029929589,0.18197147984857423,-0.07444298992102484,0.00881338492084136
1729789166276807000,0.169806884765625,0.2557353377342224,0.2130814641714096,0.5374837517738342,-0.14950056374073029,-0.35672545433044434,-0.9221694469451904,-0.00008134543895721436,0.004049092531204224,0.04858851432800293,0.9802778439544877,0.18284536811551894,-0.07404616943295245,0.011837663440855442
1729789166286838000,0.179838134765625,0.4008325934410095,0.2254137545824051,0.5529359579086304,-0.14940977096557617,-0.3589634299278259,-0.9213153719902039,-0.03267332911491394,-0.021621227264404297,0.04942816495895386,0.9800200467950977,0.18424842910999448,-0.07344957840300567,0.01477801650085847
1729789166296867800,0.189867919921875,0.49588215351104736,0.2879796624183655,0.6474027633666992,-0.14920516312122345,-0.362225204706192,-0.9200710654258728,-0.051203757524490356,-0.04214790463447571,0.05620992183685303,0.979645861941451,0.18622270467515228,-0.07270203773103616,0.018152095527319796
1729789166306899000,0.19989892578125,0.47534918785095215,0.32887011766433716,0.6231768131256104,-0.14870505034923553,-0.36578235030174255,-0.9187437295913696,-0.041541531682014465,-0.02859625220298767,0.04877912998199463,0.9792328337425932,0.1883664191298665,-0.07173713681428136,0.0217934969564601
1729789166316930000,0.209929931640625,0.4060198962688446,0.3054279088973999,0.5408617258071899,-0.14778655767440796,-0.3689396381378174,-0.917628824710846,-0.07888273894786835,-0.02998611330986023,0.03614383935928345,0.978869417911111,0.19026117672633008,-0.07061350831625235,0.025080664714066083
1729789166326961200,0.219961181640625,0.16946302354335785,0.4895916283130646,0.24297194182872772,-0.14614324271678925,-0.37115278840065,-0.916999340057373,-0.10004204511642456,-0.04078871011734009,0.04477643966674805,0.9786375729481694,0.19158844353884552,-0.06924015533821877,0.02771880864785509
1729789166336992000,0.229991943359375,0.006400073412805796,0.24013091623783112,-0.4051583707332611,-0.14112839102745056,-0.37155118584632874,-0.9176232814788818,-0.07894910871982574,-0.03762847185134888,0.012441396713256836,0.9788072006775337,0.19166303534489268,-0.06673551826326476,0.02735526157931074
1729789166347022000,0.24002197265625,-0.2082110345363617,0.03347388654947281,-0.0011714817956089973,-0.13919249176979065,-0.3710044026374817,-0.9181400537490845,-0.11175353825092316,-0.13978353142738342,0.018893837928771973,0.9789701570762726,0.19125399643337765,-0.06596871845663946,0.026220846803466934
1729789166357053000,0.250052978515625,-0.16701212525367737,-0.02338465303182602,0.5216919779777527,-0.14050938189029694,-0.36870110034942627,-0.9188670516014099,0.055990949273109436,-0.10180360078811646,0.04737651348114014,0.9791178375488995,0.19015400645822375,-0.06639229044744399,0.02760295968762547
1729789166367084000,0.260083984375,0.04801210016012192,0.10045100748538971,0.4841528832912445,-0.14204750955104828,-0.36737632751464844,-0.9191611409187317,0.11694681644439697,0.15672877430915833,0.051500558853149414,0.9791167771887319,0.1896618959340247,-0.06669185401927336,0.030183403764152253
1729789166377115100,0.270115234375,0.20523034036159515,0.25582802295684814,0.22366587817668915,-0.14166361093521118,-0.3680214285850525,-0.918962299823761,-0.11099140346050262,0.21369406580924988,0.01632857322692871,0.9790034864857681,0.19012783415799991,-0.06610801664497176,0.032145898808535724
1729789166387145000,0.28014501953125,0.29375994205474854,0.2815733551979065,0.14960338175296783,-0.13983911275863647,-0.3701133728027344,-0.9184014201164246,-0.24198153614997864,0.21226125955581665,0.0024163126945495605,0.9788196880817754,0.19127327354674234,-0.06491408301770736,0.0333573724530386
1729789166397176000,0.290176025390625,0.28068724274635315,0.2623286545276642,0.13768333196640015,-0.13785195350646973,-0.37260276079177856,-0.9176949262619019,-0.21590779721736908,0.18139493465423584,0.025666117668151855,0.9786020000405844,0.19261485046624033,-0.06365566710032437,0.03443356320434093
1729789166407207000,0.30020703125,0.18654820322990417,0.20424909889698029,0.04409719631075859,-0.13603471219539642,-0.3746069669723511,-0.9171500205993652,-0.14091229438781738,0.11015692353248596,0.039418697357177734,0.9784350042832062,0.1936828026685959,-0.0625455850625711,0.03521514931059405
1729789166417238000,0.310238037109375,0.06746615469455719,0.12648504972457886,-0.10060565918684006,-0.13442730903625488,-0.37580597400665283,-0.9168964624404907,-0.11393998563289642,0.04642978310585022,0.04040110111236572,0.9783682726572416,0.1942815123322907,-0.06169641818359482,0.03526758096880953
1729789166427268900,0.320268798828125,-0.04689903184771538,0.07695531845092773,-0.2103276401758194,-0.13291147351264954,-0.376059353351593,-0.9170135855674744,-0.09453602135181427,0.025641322135925293,0.02977597713470459,0.9784222136547259,0.1943349704948429,-0.06105023940649167,0.03459401219097631
1729789166437299000,0.330298828125,-0.0995718315243721,0.0705895647406578,-0.24472449719905853,-0.13138140738010406,-0.37564459443092346,-0.9174039959907532,-0.06100139021873474,0.03696054220199585,0.007018864154815674,0.9785602598444911,0.1940078877393077,-0.06048919653844263,0.03349543526897895
1729789166447330000,0.340330078125,-0.1476386934518814,0.06242937594652176,-0.21679964661598206,-0.1298714280128479,-0.37479159235954285,-0.917967677116394,-0.0309104323387146,0.035298824310302734,-0.004792332649230957,0.9787415669409353,0.19344957481800112,-0.05994510135787344,0.03238543433671725
1729789166457361000,0.35036083984375,-0.17985574901103973,0.033141471445560455,-0.17708073556423187,-0.12868312001228333,-0.37348344922065735,-0.9186679124832153,-0.01833529770374298,0.013223499059677124,-0.006029963493347168,0.9789518214715185,0.19266789230607692,-0.05954090513909269,0.03142134301075195
1729789166467392000,0.36039208984375,-0.19386157393455505,0.022065650671720505,-0.1392183005809784,-0.12781628966331482,-0.37196579575538635,-0.9194043874740601,-0.02559557557106018,-0.00820690393447876,-0.012251496315002441,0.9791656709561195,0.1917929514106143,-0.05927279161902705,0.030607268568779062
1729789166477422000,0.370422119140625,-0.1791156679391861,-0.003288494423031807,-0.04929773136973381,-0.12736250460147858,-0.3702816963195801,-0.9201468825340271,-0.029894545674324036,-0.021762311458587646,-0.0231819748878479,0.9793716799006631,0.19085720080974397,-0.059161589153878806,0.030075198989736974
1729789166487453000,0.380452880859375,-0.07587742805480957,-0.02188747748732567,0.06554283201694489,-0.12753736972808838,-0.369061142206192,-0.9206128716468811,-0.001872420310974121,-0.019656449556350708,-0.014552533626556396,0.9794910369406254,0.19021334518512542,-0.05926583879781076,0.03006269582789797
1729789166497484000,0.390484130859375,-0.0055240970104932785,-0.027776313945651054,0.1296701431274414,-0.12814325094223022,-0.368571937084198,-0.9207247495651245,0.041427552700042725,-0.009205132722854614,-0.05240452289581299,0.9795054229115749,0.18999561186347352,-0.059491986503728146,0.030521223564858424
1729789166507515000,0.400514892578125,0.027877269312739372,-0.01920626126229763,0.1600472331047058,-0.12891311943531036,-0.3684499263763428,-0.9206660985946655,0.031546786427497864,-0.011020869016647339,-0.05063211917877197,0.9794688541873201,0.18999035517476914,-0.05975462900247131,0.031205592993382533
1729789166517544400,0.41054443359375,-0.0025946865789592266,0.03395852819085121,0.10435733944177628,-0.12942636013031006,-0.368420273065567,-0.9206059575080872,0.033631712198257446,-0.05289006233215332,-0.04455822706222534,0.9794301771549075,0.19003088942200064,-0.05987726824269864,0.03192941538548657
1729789166527574500,0.420574462890625,-0.3106968402862549,0.3743150234222412,-0.87061607837677,-0.12584713101387024,-0.3668348789215088,-0.9217345714569092,0.007576271891593933,-0.16555947065353394,-0.041217029094696045,0.979764155620393,0.1890210814357672,-0.05834150303224622,0.030486815492914286
1729789166537605600,0.430605712890625,-0.43282556533813477,-0.0012255562469363213,-1.22065269947052,-0.12045499682426453,-0.3650096654891968,-0.923178493976593,-0.05874421447515488,-0.40607795119285583,-0.05002707242965698,0.9802838180856553,0.18762859614847888,-0.05662386489460761,0.02515630058909359
1729789166547636500,0.440636474609375,-0.7129653692245483,-0.10916667431592941,-0.5337474942207336,-0.11772073805332184,-0.36102625727653503,-0.9250956177711487,0.18417277932167053,-0.3123593330383301,-0.09316915273666382,0.9808807086650251,0.18520584598179238,-0.05613366401917164,0.020517399853351388
1729789166557667600,0.45066748046875,-1.004321575164795,-0.20305098593235016,0.19175907969474792,-0.11857777088880539,-0.3532826006412506,-0.9279713034629822,0.2943437695503235,-0.166096031665802,-0.0784527063369751,0.9816455712707448,0.18104040974941757,-0.05690979984010403,0.01891088182258261
1729789166567697400,0.460697509765625,-0.8971826434135437,-0.378968745470047,0.9196276664733887,-0.12328045070171356,-0.3435981273651123,-0.9309899210929871,0.32614606618881226,-0.1532890498638153,-0.08181220293045044,0.9823591350131152,0.17617739129791632,-0.05887745877736695,0.021577201884483102
1729789166577728500,0.470728515625,-0.7273221611976624,-0.16983662545681,0.7995936274528503,-0.12872527539730072,-0.33497554063796997,-0.9333922863006592,0.2792074680328369,-0.18672242760658264,-0.15494084358215332,0.9828772033796523,0.17198680868832264,-0.061027739909508945,0.025466295208998103
1729789166587759600,0.480759521484375,-0.7215966582298279,-0.04294871538877487,0.5190322995185852,-0.1317736953496933,-0.3273661732673645,-0.9356639981269836,0.05740237236022949,-0.22239264845848083,-0.14175909757614136,0.9833741669507102,0.16824597316522522,-0.062139360955848065,0.028414363549615664
1729789166597790500,0.49079052734375,-0.7519360780715942,0.07923189550638199,0.5950812697410583,-0.13327908515930176,-0.3197824954986572,-0.9380702972412109,0.06470610201358795,-0.2638966739177704,-0.12070655822753906,0.983913102129749,0.16446604822818947,-0.06257615382748678,0.030827322524404305
1729789166607821600,0.500821533203125,-1.101793646812439,0.006043700966984034,0.8143848776817322,-0.13499699532985687,-0.3103879392147064,-0.9409756660461426,0.19261419773101807,-0.2800508737564087,-0.0926852822303772,0.984546217871613,0.15980744058262367,-0.06303778899525787,0.03400893871869545
1729789166617851400,0.510851318359375,-1.0748212337493896,-0.0865669772028923,0.9159884452819824,-0.13819992542266846,-0.2981944680213928,-0.94444739818573,0.28971970081329346,-0.3125079572200775,0.05418860912322998,0.9852825558623632,0.15379881810599055,-0.0642046577666952,0.03797319052685546
1729789166627882500,0.520882568359375,-0.991843581199646,-0.09268292784690857,0.9663024544715881,-0.14177078008651733,-0.28732046484947205,-0.9472845196723938,0.29193252325057983,-0.36114752292633057,-0.0544854998588562,0.9858287867151835,0.14853329366655618,-0.06554075678170664,0.04223581788612128
1729789166637913300,0.530913330078125,-1.3203054666519165,-0.06822317838668823,1.0576871633529663,-0.14545036852359772,-0.27486658096313477,-0.9504170417785645,0.2629125416278839,-0.35651156306266785,-0.029792308807373047,0.9864171381211878,0.14250255752258154,-0.06696639752949794,0.04679482691327079
1729789166647944400,0.5409443359375,-1.3215707540512085,-0.04571547359228134,1.1438257694244385,-0.14890390634536743,-0.2603605091571808,-0.9539601802825928,0.26143747568130493,-0.3193513751029968,0.06145834922790527,0.9870666454172919,0.13546907489648455,-0.06832300943830436,0.05176521662707584
1729789166657975600,0.5509755859375,-1.201271891593933,-0.08232253789901733,1.2015076875686646,-0.1524704098701477,-0.24645334482192993,-0.9570859670639038,0.2908371090888977,-0.3197392225265503,-0.06850302219390869,0.9875632795026673,0.1288119740048609,-0.0697459619877012,0.05711156948161053
1729789166668005400,0.56100537109375,-1.0944069623947144,-0.10818902403116226,1.1614607572555542,-0.15633516013622284,-0.23365652561187744,-0.9596686959266663,0.29036837816238403,-0.2966778874397278,-0.11943286657333374,0.9878883849673122,0.12277758795866571,-0.0713535585980788,0.06253771093674296
1729789166678036500,0.571036376953125,-1.2359281778335571,-0.05946260318160057,0.9906906485557556,-0.15955983102321625,-0.22079387307167053,-0.9621801972389221,0.26063406467437744,-0.2082069367170334,-0.19748777151107788,0.9882012760066902,0.11668132031990959,-0.07276929763183751,0.06744182811299898
1729789166688067300,0.5810673828125,-1.4471567869186401,-0.003687489777803421,0.8224310874938965,-0.16183383762836456,-0.20634782314300537,-0.9650027751922607,0.22392186522483826,-0.08684976398944855,-0.18898892402648926,0.9886381412601044,0.10969758458401506,-0.07392594391301817,0.07138636306637428
1729789166698098400,0.591098388671875,-1.6987648010253906,0.0463976226747036,0.802893340587616,-0.16315136849880219,-0.18974241614341736,-0.9681835770606995,0.20566236972808838,-0.01515255868434906,-0.13539308309555054,0.9891896576491008,0.10156347542551664,-0.07478683229459938,0.0748037160434141
1729789166708128500,0.60112841796875,-1.9867438077926636,0.07417438924312592,0.8696310520172119,-0.1639997959136963,-0.17044328153133392,-0.971623957157135,0.19283892214298248,-0.009213656187057495,-0.04424518346786499,0.989791034487005,0.09207584986650218,-0.07556486965300811,0.07826662352494465
1729789166718159400,0.611159423828125,-2.2528746128082275,0.07768161594867706,0.967131495475769,-0.16471514105796814,-0.14818701148033142,-0.9751458764076233,0.15447650849819183,-0.0365816205739975,0.06744629144668579,0.9903728944904285,0.08114719531766722,-0.0764341601377718,0.08206383487880087
1729789166728190500,0.6211904296875,-2.5950140953063965,0.15812692046165466,0.9624485969543457,-0.16490070521831512,-0.12288233637809753,-0.9786254167556763,0.08767598867416382,-0.07957123219966888,0.18416130542755127,0.9909182581137699,0.0687071761121659,-0.07724388993545216,0.0859877206970925
1729789166738221300,0.63122119140625,-3.0783941745758057,0.24117562174797058,0.8473694324493408,-0.1636083722114563,-0.09353438019752502,-0.9820812940597534,-0.008434459567070007,-0.1155415028333664,0.3430126905441284,0.9914878608673912,0.054167792790234134,-0.07762225375518882,0.08940116451173641
1729789166748252400,0.64125244140625,-3.4996557235717773,0.27669820189476013,0.8748093247413635,-0.16175366938114166,-0.0595482662320137,-0.985032856464386,-0.07977767288684845,-0.12366396188735962,0.5136431455612183,0.9919580945197014,0.037285784216310874,-0.0780598194434295,0.09238815210844735
1729789166758282500,0.651282470703125,-3.746817111968994,0.27784374356269836,1.1160074472427368,-0.1593441367149353,-0.022006943821907043,-0.986977756023407,-0.09109833836555481,-0.12965011596679688,0.6092464923858643,0.9921141301198105,0.01867953674702148,-0.07849958244263937,0.09590828648424989
1729789166768313300,0.661313232421875,-3.8040168285369873,0.23119528591632843,1.417386531829834,-0.1567148119211197,0.01753760315477848,-0.9874882102012634,-0.07183130085468292,-0.16541047394275665,0.6281132102012634,0.9917641770802649,-0.0008080837875418036,-0.07909018084266965,0.1007378232272467
1729789166778344400,0.671344482421875,-3.6819875240325928,0.34602439403533936,1.4117176532745361,-0.15360218286514282,0.05689524486660957,-0.9864934086799622,-0.05620613694190979,-0.1615247130393982,0.5545018315315247,0.9909221438261232,-0.020154168628396776,-0.07966863451599988,0.10639582918755199
1729789166788375300,0.681375244140625,-3.7074615955352783,0.634602963924408,1.0415053367614746,-0.14779506623744965,0.09519506245851517,-0.984425961971283,-0.13777314126491547,-0.06573029607534409,0.41846227645874023,0.9898915555795239,-0.03921690285512025,-0.07905087969575479,0.11103039135296124
1729789166798405400,0.6914052734375,-3.565117835998535,0.7781419157981873,0.7255082726478577,-0.13970917463302612,0.13258981704711914,-0.9812753200531006,-0.192428857088089,0.15284112095832825,0.38802891969680786,0.9887880472704844,-0.058151038912062886,-0.07733555017853083,0.1137362832617137
1729789166808436500,0.7014365234375,-2.9483463764190674,0.7128568887710571,0.7376144528388977,-0.13119150698184967,0.16580559313297272,-0.9773930907249451,-0.11546680331230164,0.34499770402908325,0.30466365814208984,0.987572093028558,-0.07512896952976401,-0.07522685408169293,0.11575014478495238
1729789166818467300,0.71146728515625,-2.1379306316375732,0.5771132707595825,0.9522255659103394,-0.12344484031200409,0.1917474865913391,-0.9736499786376953,-0.014250457286834717,0.47165894508361816,0.1971912384033203,0.9862716018311417,-0.08839471270522523,-0.07322148669997272,0.11871585498120896
1729789166828498400,0.72149853515625,-1.311151385307312,0.6437767148017883,1.1926831007003784,-0.11544382572174072,0.20988549292087555,-0.9708865880966187,-0.00542101263999939,0.5202323198318481,0.17205852270126343,0.9850273939012774,-0.09768540051421755,-0.07081144351220302,0.12314325095159893
1729789166838529500,0.731529541015625,-0.6413851976394653,0.8625598549842834,1.2878080606460571,-0.1055188924074173,0.22061456739902496,-0.9696364998817444,-0.08767261356115341,0.4349335730075836,0.17820888757705688,0.9840158457472553,-0.10332937876142276,-0.06711766799833771,0.12857331731475696
1729789166848559400,0.741559326171875,-0.3040294945240021,1.1338030099868774,1.3216320276260376,-0.09287390857934952,0.22628387808799744,-0.9696236848831177,-0.1927248239517212,0.24550266563892365,0.24792873859405518,0.983239493951399,-0.10662592145604259,-0.06179872529877827,0.13435751889239134
1729789166858590500,0.751590576171875,-0.37957844138145447,1.3666716814041138,1.2772294282913208,-0.07764659821987152,0.23046071827411652,-0.9699788093566895,-0.23311388492584229,0.02907608449459076,0.33293962478637695,0.9825408058461628,-0.1094253545344244,-0.055106183329119,0.14001118154563733
1729789166868621600,0.76162158203125,-0.7680204510688782,1.4524089097976685,1.2203770875930786,-0.06087971851229668,0.23678912222385406,-0.9696517586708069,-0.21290871500968933,-0.1263001710176468,0.40185701847076416,0.9817035002549668,-0.11353108835902707,-0.047799594842076444,0.14520401352015117
1729789166878652700,0.771652587890625,-1.0923322439193726,1.3143988847732544,1.2036303281784058,-0.044370975345373154,0.24667318165302277,-0.9680824279785156,-0.12498630583286285,-0.20951798558235168,0.4035530090332031,0.9805531107142389,-0.11951336169076184,-0.04093105383752062,0.15018894258403453
1729789166888683500,0.78168359375,-1.1705559492111206,1.1564451456069946,0.9545190334320068,-0.02967369742691517,0.2580982744693756,-0.9656628370285034,-0.04187474027276039,-0.2177692949771881,0.2835797667503357,0.9792557181244629,-0.12624635128149636,-0.03507750523840235,0.15456287676868297
1729789166898713600,0.791713623046875,-1.3109530210494995,1.0834842920303345,0.6768370866775513,-0.016665052622556686,0.2701464593410492,-0.9626750349998474,-0.037457846105098724,-0.05527213215827942,0.1531810164451599,0.978008540865679,-0.13327684187190408,-0.029996287901937143,0.15759751905974761
1729789166908744400,0.801744384765625,-1.7380043268203735,0.6950918436050415,0.7019723057746887,-0.006009790580719709,0.284750759601593,-0.9585827589035034,-0.003542187623679638,0.21128198504447937,0.10912597179412842,0.9765663873087355,-0.1414881583105209,-0.0262626465805007,0.16002980712834333
1729789166918775600,0.811775634765625,-1.9989069700241089,0.6352897882461548,0.9877033829689026,0.002590640215203166,0.30311939120292664,-0.9529491066932678,0.136386439204216,0.34594377875328064,-0.04673045873641968,0.97455166290444,-0.15147806295094268,-0.024080213894790346,0.16347405110630972
1729789166928806700,0.821806640625,-2.1096694469451904,0.42375120520591736,0.6873188018798828,0.010465254075825214,0.3223678171634674,-0.9465566277503967,0.19542160630226135,0.29303446412086487,-0.233054518699646,0.9722861459521864,-0.1619182053978632,-0.022453764628474253,0.16714680810708565
1729789166938836500,0.83183642578125,-2.408470869064331,0.2968771457672119,0.11123628914356232,0.015139986760914326,0.34380072355270386,-0.9389205574989319,-0.007876777090132236,0.2861737012863159,-0.12417447566986084,0.9700999422668272,-0.1733289077384893,-0.022289054289739475,0.16842316846500072
1729789166948867600,0.84186767578125,-2.557452440261841,-0.013139581307768822,-0.05945209786295891,0.01650495082139969,0.36703333258628845,-0.9300613403320312,-0.0668741837143898,0.36969155073165894,-0.016731202602386475,0.9678865144357668,-0.18549645516017535,-0.023672492209797842,0.16800731322822518
1729789166958898400,0.8518984375,-2.7074437141418457,-0.0471305176615715,0.009866255335509777,0.01596641354262829,0.391570121049881,-0.9200097322463989,-0.03151509538292885,0.4070749282836914,0.0339929461479187,0.9653561189316137,-0.1982701833156667,-0.02615460972633745,0.16760825280510713
1729789166968929500,0.861929443359375,-2.696842908859253,0.06730099022388458,0.04474780708551407,0.016245238482952118,0.4164245128631592,-0.9090251326560974,-0.06423410028219223,0.3301575779914856,0.023679733276367188,0.96254633446854,-0.21138907018878575,-0.028321115821471676,0.1673833238396635
1729789166978960600,0.871960693359375,-2.4346821308135986,0.24332831799983978,0.041360534727573395,0.017946138978004456,0.4398653507232666,-0.8978844285011292,-0.11273370683193207,0.17280560731887817,0.01165395975112915,0.9597059467366862,-0.22400696123308064,-0.02964241570806293,0.16705316464392939
1729789166988990500,0.881990478515625,-2.0950098037719727,0.2308862954378128,-0.09705273807048798,0.020003287121653557,0.4600883722305298,-0.887647807598114,-0.10198873281478882,0.06006854772567749,-0.011873066425323486,0.9571560176790174,-0.23505661251977797,-0.030405576062343332,0.16636215270260885
1729789166999021600,0.892021484375,-1.7041270732879639,0.11002853512763977,-0.33067694306373596,0.02050347626209259,0.47718772292137146,-0.8785621523857117,-0.0971178263425827,0.12611433863639832,0.027198076248168945,0.9550533676736926,-0.24439883022007186,-0.03143446880593179,0.16478529421391375
1729789167009052400,0.902052490234375,-0.870926022529602,-0.13657832145690918,-0.33766719698905945,0.018759913742542267,0.4887735843658447,-0.8722089529037476,-0.05139843374490738,0.27013757824897766,0.05619943141937256,0.9537050162274767,-0.2506144613365516,-0.03298356093663859,0.16294568243225446
1729789167019083500,0.91208349609375,-0.04897550120949745,-0.20464718341827393,-0.4789428412914276,0.015247958712279797,0.4926534593105316,-0.87009197473526,0.009761224500834942,0.32021278142929077,0.032903313636779785,0.9534305198396047,-0.2524850570169663,-0.03471750400905364,0.16129551490303973
1729789167029113600,0.922113525390625,0.316947877407074,0.22639183700084686,-0.3972005546092987,0.012984097003936768,0.4913192689418793,-0.8708827495574951,-0.10667303204536438,0.3773330748081207,0.1312893033027649,0.9540141634107262,-0.25164095981905077,-0.03514894129952383,0.15905453710085324
1729789167039144400,0.93214453125,0.3017885088920593,0.21119540929794312,-0.5013554692268372,0.012801088392734528,0.48850008845329285,-0.8724699020385742,-0.10368240624666214,0.46296173334121704,0.2896299958229065,0.9548028032116093,-0.2501661133066164,-0.03437956814745435,0.15680082167578493
1729789167049175600,0.942175537109375,0.2637716233730316,0.022259315475821495,-0.8348162770271301,0.010843616910278797,0.4861670732498169,-0.8737986087799072,-0.18090279400348663,0.430230051279068,0.4064677357673645,0.9556904590509395,-0.2488471831822719,-0.034289692830005325,0.1534762831269491
1729789167059206400,0.952206298828125,0.516211986541748,-0.38921865820884705,-0.9718361496925354,0.004503314383327961,0.48318225145339966,-0.8755082488059998,-0.2125111073255539,0.3096950054168701,0.34871381521224976,0.9567984432968399,-0.246855937825234,-0.03616676597109364,0.14930150325646493
1729789167069237500,0.962237548828125,1.3594738245010376,-0.48156484961509705,-0.6995583176612854,-0.0037192306481301785,0.47498589754104614,-0.8799855709075928,-0.0873299390077591,0.15393567085266113,0.05100607872009277,0.9584810908648722,-0.24187531332990045,-0.03877571291992237,0.14596848179488967
1729789167079267600,0.972267578125,2.3561465740203857,-0.024664783850312233,-0.1352320909500122,-0.00824726466089487,0.4587922990322113,-0.8885052800178528,-0.025535669177770615,-0.0033173859119415283,-0.23545712232589722,0.9609084973415295,-0.2328110345819041,-0.03932408791733237,0.1445945968035022
1729789167089298400,0.98229833984375,3.436436414718628,0.41591766476631165,0.2901597023010254,-0.005674276035279036,0.4324314594268799,-0.9016489386558533,-0.029039444401860237,-0.1390201449394226,-0.42923784255981445,0.9641945241609783,-0.2188220841797246,-0.035950267578081306,0.14544196121966224
1729789167099329500,0.99232958984375,3.1775825023651123,0.3049622178077698,0.12116561084985733,-0.0012399271363392472,0.4013512432575226,-0.9159234166145325,-0.08439236879348755,-0.3071586787700653,-0.48614567518234253,0.9676965980445101,-0.20261991997553863,-0.03136029232245469,0.14671452172338473
1729789167109360400,1.0023603515625,1.8439832925796509,-0.08653657138347626,-0.16140404343605042,-0.00012293404142837971,0.37794333696365356,-0.925828754901886,-0.058959074318408966,-0.3946821987628937,-0.3833295702934265,0.9702282013145958,-0.1903976125358404,-0.02888574724395701,0.14687316296681896
1729789167119391500,1.0123916015625,0.22710275650024414,-0.5124769806861877,-0.3999473452568054,-0.004144864622503519,0.36826473474502563,-0.9297117590904236,0.11690734326839447,-0.49303582310676575,-0.20580154657363892,0.9713713356041059,-0.1850623109772849,-0.029934422829763677,0.14592386652475248
1729789167129421600,1.022421630859375,-1.182715654373169,-0.741541862487793,-0.5560078024864197,-0.011816544458270073,0.37306055426597595,-0.9277317523956299,0.18675857782363892,-0.49827414751052856,0.030438721179962158,0.9711378464244717,-0.1870544222153301,-0.03383440021342416,0.14407354877921458
1729789167139452400,1.032452392578125,-1.7378596067428589,-0.8789642453193665,-0.6707138419151306,-0.021738015115261078,0.38707736134529114,-0.9217909574508667,0.10540197789669037,-0.31336209177970886,0.18457788228988647,0.969974463029461,-0.19376580763020515,-0.03948825988631321,0.14158120071345173
1729789167149483500,1.0424833984375,-1.5001658201217651,-0.8939336538314819,-0.6609349846839905,-0.03268040716648102,0.40214771032333374,-0.9149913787841797,-0.04149254038929939,-0.029756903648376465,0.10447502136230469,0.9686219101144931,-0.2010415186176903,-0.0456795016086852,0.13880696082870672
1729789167159514400,1.052514404296875,-0.859795093536377,-0.6924355030059814,-0.4111640453338623,-0.042281437665224075,0.41289618611335754,-0.9097961783409119,-0.12426821887493134,0.20378783345222473,-0.12925106287002563,0.967580199178789,-0.20616350935939734,-0.05097578372652279,0.1366994549251348
1729789167169544400,1.06254443359375,-0.12482312321662903,-0.365174800157547,-0.19267220795154572,-0.04832351580262184,0.4171895682811737,-0.9075338840484619,-0.13160809874534607,0.2835856080055237,-0.3112466335296631,0.9671335221988563,-0.20807994343177041,-0.05418307939716817,0.13571954192689475
1729789167179575600,1.072575439453125,0.2601553797721863,-0.10139476507902145,-0.15562736988067627,-0.05102413147687912,0.41626492142677307,-0.9078105688095093,-0.1319592446088791,0.2244211733341217,-0.28902775049209595,0.9672809665912079,-0.20743558232452114,-0.055364092066567845,0.1351772256273647
1729789167189606400,1.0826064453125,0.25307294726371765,-0.13964255154132843,-0.18330053985118866,-0.05262953042984009,0.4136824607849121,-0.9088987708091736,-0.07537642121315002,0.11387494206428528,-0.15762948989868164,0.9676512069627144,-0.20599290798517417,-0.05583490831313606,0.13453837617849715
1729789167199637500,1.092637451171875,0.031139040365815163,-0.3603118360042572,-0.25067639350891113,-0.05576271936297417,0.41223466396331787,-0.9093696475028992,0.02295634150505066,0.006970107555389404,-0.01844102144241333,0.9678743443051774,-0.2050571750504338,-0.05715542812903909,0.1338061626960165
1729789167209668400,1.10266845703125,-0.2651325762271881,-0.47056350111961365,-0.3449195325374603,-0.06088140606880188,0.41313305497169495,-0.9086333513259888,0.05622749403119087,-0.04602181911468506,0.04161369800567627,0.9678285982203928,-0.2052565721488804,-0.059607669895705775,0.13275728219332011
1729789167219698400,1.112698486328125,-0.35403838753700256,-0.4092576205730438,-0.37791183590888977,-0.06647435575723648,0.41596704721450806,-0.9069468379020691,0.03160805255174637,-0.05231955647468567,0.007319211959838867,0.9675839146818955,-0.20648253243700687,-0.06238228572566675,0.13135696655006976
1729789167229729500,1.1227294921875,-0.2218390852212906,-0.2943512797355652,-0.44319283962249756,-0.07139693945646286,0.4182572364807129,-0.9055182933807373,-0.02332960069179535,-0.0742935836315155,-0.0689537525177002,0.9674461760341937,-0.2074948786552472,-0.06470496261472432,0.12964223134298317
1729789167239760400,1.132760498046875,-0.3177580237388611,-0.2438630759716034,-0.42549559473991394,-0.07562550902366638,0.4202958643436432,-0.9042301774024963,-0.08620918542146683,-0.04534158110618591,-0.04985612630844116,0.9673748972812987,-0.20844544410153365,-0.0665988985555573,0.12767536678699182
1729789167249791500,1.14279150390625,-0.4414314925670624,-0.27885380387306213,-0.29569366574287415,-0.07951594889163971,0.4235469698905945,-0.9023775458335876,-0.060239277780056,0.017813563346862793,0.0030092597007751465,0.9671064610950586,-0.21004782603610025,-0.06849193070733267,0.12607135445277148
1729789167259821300,1.1528212890625,-0.4387141466140747,-0.256145715713501,-0.2949165403842926,-0.08322521299123764,0.42731773853302,-0.9002628326416016,-0.01723863184452057,0.032948434352874756,-0.03520774841308594,0.9667190548598027,-0.21192124846548266,-0.07041289893783903,0.12484300434993562
1729789167269852400,1.162852294921875,-0.43056806921958923,-0.12398157268762589,-0.3774593472480774,-0.08639050275087357,0.43101274967193604,-0.8982008099555969,-0.053181618452072144,0.06924670934677124,-0.054405391216278076,0.9663899422581467,-0.2138227802472548,-0.07196811904427435,0.12325166460102584
1729789167279883300,1.17288330078125,-0.36671125888824463,-0.10862898081541061,-0.3421034812927246,-0.0889764279127121,0.4342731535434723,-0.8963760733604431,-0.07841247320175171,0.14513364434242249,0.003965795040130615,0.9661495655158154,-0.21555278291782443,-0.07313662405948428,0.1214213265537622
1729789167289914400,1.182914306640625,-0.17746862769126892,-0.12170830368995667,-0.1499154269695282,-0.09113015979528427,0.4367195963859558,-0.8949699997901917,-0.02596575766801834,0.18258893489837646,0.00986868143081665,0.9659321232315294,-0.21682829279530597,-0.07416533694302838,0.12024999278601127
1729789167299945500,1.192945556640625,0.21655356884002686,-0.10423801094293594,-0.10599536448717117,-0.09263705462217331,0.4363963007926941,-0.8949729800224304,0.0397195965051651,0.0949147641658783,-0.0659492015838623,0.9659878044401066,-0.21660197196067285,-0.07481376118379554,0.11980802695932885
1729789167309975300,1.202975341796875,0.3166455626487732,-0.14949870109558105,-0.1978810876607895,-0.0944165512919426,0.43360635638237,-0.896142303943634,0.017939522862434387,-0.02215304970741272,-0.04474508762359619,0.9663499054957947,-0.21504129395601823,-0.07540610919168157,0.11932782530347341
1729789167320006400,1.21300634765625,0.021610384806990623,-0.23826399445533752,-0.23097379505634308,-0.0971025750041008,0.43176233768463135,-0.8967454433441162,0.026851139962673187,-0.05348166823387146,0.017320454120635986,0.9666052216553357,-0.21396386943260173,-0.07646395816733086,0.11852081863728686
1729789167330037500,1.22303759765625,-0.2986837327480316,-0.3747107684612274,-0.15094153583049774,-0.10068514198064804,0.43293827772140503,-0.8957828879356384,0.07166294008493423,-0.05210939049720764,0.07083171606063843,0.966437365812183,-0.21444504884350396,-0.07824248151940508,0.11785717678350947
1729789167340068600,1.233068603515625,-0.42752328515052795,-0.4545348882675171,-0.18091541528701782,-0.10515613108873367,0.436129093170166,-0.893718957901001,0.08460256457328796,-0.07898184657096863,0.03959304094314575,0.9659560320102295,-0.2159420574630523,-0.08068170550168036,0.1174246190217715
1729789167350099500,1.243099365234375,-0.549562394618988,-0.34414419531822205,-0.3183177411556244,-0.10994129627943039,0.4402117133140564,-0.8911377787590027,0.00778372585773468,-0.06643235683441162,-0.02458786964416504,0.9654060031697302,-0.21795374506347326,-0.08323021686727002,0.11644811784395805
1729789167360129500,1.253129638671875,-0.5935037732124329,-0.26547595858573914,-0.2556160092353821,-0.1139095202088356,0.44512635469436646,-0.8881931900978088,-0.06438940763473511,0.01959538459777832,0.013773083686828613,0.9648123685064605,-0.22050680123642383,-0.08532379396925392,0.11503814451685362
1729789167370160600,1.26316064453125,-0.30874788761138916,-0.275912880897522,-0.07714773714542389,-0.1170724555850029,0.44914934039115906,-0.885753333568573,-0.02710781991481781,0.05492481589317322,0.003169715404510498,0.9642603813995515,-0.22256795655494577,-0.08710253055821073,0.11436188884351013
1729789167380191500,1.27319140625,-0.04642485827207565,-0.205770805478096,-0.08648691326379776,-0.1195840984582901,0.45048776268959045,-0.884737491607666,-0.001601189374923706,0.02767696976661682,-0.09432744979858398,0.9640150135334943,-0.22317124812764325,-0.08846379784935385,0.11420996293101385
1729789167390222600,1.28322265625,-0.02480451762676239,-0.13158287107944489,-0.11191104352474213,-0.12148123234510422,0.4506317377090454,-0.8844056725502014,-0.02636115252971649,0.030813634395599365,-0.024545133113861084,0.9639691656391666,-0.22318015777465652,-0.08937441524312811,0.11387017483709286
1729789167400252700,1.293252685546875,-0.02291300892829895,-0.20977279543876648,-0.08943263441324234,-0.12336157262325287,0.4507600963115692,-0.8840798735618591,0.025186553597450256,0.02577194571495056,0.062241554260253906,0.9639211631206978,-0.22317962412574407,-0.09028238189089949,0.1135601467330506
1729789167410283500,1.303283447265625,-0.0629429817199707,-0.4024769961833954,-0.06354298442602158,-0.1263725459575653,0.45100417733192444,-0.8835299611091614,0.0689537525177002,-0.007614254951477051,0.08808934688568115,0.9637847855845474,-0.2231591165999065,-0.09184240470827801,0.11350664268586692
1729789167420314600,1.313314697265625,-0.10130774974822998,-0.4876137375831604,-0.08647865802049637,-0.13077834248542786,0.4516640901565552,-0.8825511932373047,0.07703691720962524,-0.0308724045753479,0.03912162780761719,0.9635117002708499,-0.22327037750028733,-0.09420582884746403,0.11367044763865014
1729789167430345500,1.323345458984375,-0.2002875953912735,-0.39249202609062195,-0.1848371922969818,-0.13535116612911224,0.4528186321258545,-0.8812692165374756,0.027135848999023438,-0.022749602794647217,-0.043733835220336914,0.9632073925853052,-0.22368159879071167,-0.09660198329814369,0.11342982332780671
1729789167440376600,1.33337646484375,-0.2277602255344391,-0.3038642108440399,-0.16336944699287415,-0.1392153948545456,0.45455947518348694,-0.8797697424888611,-0.04494291543960571,0.02882373332977295,-0.013037264347076416,0.9628884122000744,-0.22448613620573488,-0.09859571810835772,0.11283090775455344
1729789167450406700,1.34340673828125,-0.16313648223876953,-0.2551933526992798,-0.07657116651535034,-0.14223939180374146,0.4561537802219391,-0.8784598708152771,-0.04796139895915985,0.0712357759475708,-0.0177345871925354,0.9625910321760113,-0.22523366796153507,-0.10019914920589634,0.11246590276044915
1729789167460437500,1.3534375,-0.08910974115133286,-0.26277023553848267,-0.014587688259780407,-0.14463821053504944,0.4571966230869293,-0.8775255680084229,-0.03462202847003937,0.08354440331459045,-0.02716803550720215,0.9623458019769081,-0.22567530158983665,-0.1015277738746165,0.11248780052727399
1729789167470468600,1.363468505859375,-0.08867697417736053,-0.30749350786209106,-0.017390131950378418,-0.1472318023443222,0.4579296410083771,-0.8767116069793701,-0.023590311408042908,0.05943489074707031,-0.007809817790985107,0.9621095324095358,-0.2259193962401402,-0.10297872632500364,0.11269909028066594
1729789167480499500,1.37349951171875,-0.10378309339284897,-0.38743066787719727,-0.01674005389213562,-0.1503307968378067,0.45880481600761414,-0.8757275938987732,-0.013457030057907104,0.0007289350032806396,0.013514459133148193,0.9618258812958598,-0.22621219256024522,-0.10471032890750205,0.11293691896304475
1729789167490529500,1.383529541015625,-0.07328163832426071,-0.46546369791030884,-0.05086873099207878,-0.15421798825263977,0.4595285654067993,-0.8746715784072876,0.0023930519819259644,-0.08791595697402954,0.015296578407287598,0.9615154632412382,-0.22637550101440698,-0.1068566969776625,0.11324270366414985
1729789167500560600,1.393560546875,-0.1744161695241928,-0.4518122673034668,-0.14746585488319397,-0.15872807800769806,0.46036046743392944,-0.8734263777732849,-0.001901179552078247,-0.13882720470428467,0.0022563934326171875,0.961192980693211,-0.22660202385750974,-0.10926264873340549,0.11323135140530646
1729789167510591500,1.403591552734375,-0.3294238746166229,-0.43565672636032104,-0.16095396876335144,-0.16332314908504486,0.4623972475528717,-0.8715012073516846,-0.014044985175132751,-0.10851538181304932,0.03077244758605957,0.96074095484212,-0.22752771766626373,-0.11171631143503422,0.11281641592708935
1729789167520621800,1.413621826171875,-0.3493700623512268,-0.4456409811973572,-0.1308905929327011,-0.167881578207016,0.46515488624572754,-0.8691643476486206,0.011372208595275879,-0.05716535449028015,0.01917356252670288,0.9601773034179125,-0.2288484018309275,-0.11422006380404086,0.11243565839712519
1729789167530652700,1.423652587890625,-0.39948251843452454,-0.43019863963127136,-0.10753573477268219,-0.17222627997398376,0.468202143907547,-0.8666746020317078,0.020035147666931152,0.0010056495666503906,-0.0030458569526672363,0.959562966701823,-0.23033221427296527,-0.11666092563947854,0.11214394039699326
1729789167540682800,1.433682861328125,-0.37682873010635376,-0.49052709341049194,-0.04066802188754082,-0.1765313446521759,0.47152483463287354,-0.8640028834342957,0.014483019709587097,0.05087512731552124,0.04672694206237793,0.9588737148384878,-0.23194518571938189,-0.11916364837135772,0.1120834711942386
1729789167550713900,1.4437138671875,-0.31846022605895996,-0.4862026572227478,-0.0375707671046257,-0.18103452026844025,0.4744696319103241,-0.8614552021026611,0.030094623565673828,0.05934387445449829,0.002126038074493408,0.958183900394229,-0.23331158915747488,-0.12181174737175446,0.1122995727124154
1729789167560744700,1.45374462890625,-0.23519104719161987,-0.4165591597557068,-0.06398027390241623,-0.1851508915424347,0.476842999458313,-0.8592670559883118,0.0025184452533721924,0.06284517049789429,-0.026002049446105957,0.9576016068772609,-0.23440176535798202,-0.12418644821543219,0.1123954838836974
1729789167570775800,1.46377587890625,-0.009210910648107529,-0.38090449571609497,-0.059125859290361404,-0.18885822594165802,0.4778050482273102,-0.85792475938797,-0.014343053102493286,0.040810734033584595,-0.004334092140197754,0.9572405823246798,-0.23474069409286075,-0.12623158673412993,0.11248532159593723
1729789167580806000,1.473805908203125,0.11071975529193878,-0.3886314034461975,-0.05844755470752716,-0.19238591194152832,0.47715654969215393,-0.8575018048286438,-0.0017669051885604858,-0.006346553564071655,-0.0210687518119812,0.957105562058787,-0.23419007314311513,-0.12807856756929906,0.11269373479501028
1729789167590836700,1.483836669921875,0.008864229544997215,-0.40613341331481934,-0.06850045919418335,-0.19615742564201355,0.47644415497779846,-0.8570433259010315,0.0053768157958984375,-0.037082552909851074,0.02360832691192627,0.9569618332739032,-0.2335934647760414,-0.13004780893957749,0.11289733673262675
1729789167600867800,1.493867919921875,-0.18514712154865265,-0.3988809287548065,-0.057980701327323914,-0.19987480342388153,0.4770825505256653,-0.8558284640312195,0.02378840744495392,-0.05081295967102051,0.04555624723434448,0.9566319229703526,-0.23375323766284367,-0.13208028156573803,0.11300297160312102
1729789167610898700,1.503898681640625,-0.3079183101654053,-0.4279498755931854,-0.04385795816779137,-0.20364315807819366,0.4792018234729767,-0.8537535667419434,0.03269895911216736,-0.06660410761833191,0.05657339096069336,0.9560803353281317,-0.23472760672758372,-0.13426157509421732,0.11308118428868592
1729789167620929800,1.5139296875,-0.34217819571495056,-0.40219125151634216,-0.06990393996238708,-0.20751526951789856,0.48191019892692566,-0.85129314661026,0.025630518794059753,-0.07149448990821838,0.0029655098915100098,0.9554352744383726,-0.23603258477840244,-0.13653592084392563,0.11309286236525681
1729789167630959900,1.5239599609375,-0.3101568818092346,-0.2944895625114441,-0.10354605317115784,-0.21093519032001495,0.48455849289894104,-0.8489460945129395,-0.01776351034641266,-0.044617027044296265,-0.029410839080810547,0.9548518342187179,-0.2373683111353851,-0.13850359692701128,0.11283231404015133
1729789167640990700,1.53399072265625,-0.20567689836025238,-0.2066211700439453,-0.06414592266082764,-0.2135084867477417,0.48660317063331604,-0.8471313118934631,-0.04427346587181091,0.012069374322891235,-0.02919614315032959,0.9544134258206909,-0.2384219227511826,-0.1399618447479797,0.11251993006802659
1729789167651021800,1.544021728515625,-0.09856216609477997,-0.1328715831041336,-0.01998564973473549,-0.21509571373462677,0.48780399560928345,-0.8460385203361511,-0.025123387575149536,0.06683778762817383,-0.04797393083572388,0.9541404228687743,-0.23902811186232384,-0.14087693527489628,0.11240738198689121
1729789167661052700,1.554052734375,0.017241602763533592,-0.13084816932678223,0.01464023906737566,-0.21619805693626404,0.4881647825241089,-0.8455492854118347,-0.004901781678199768,0.08620661497116089,-0.018082916736602783,0.9539979285432763,-0.23915904164250593,-0.14152145937784927,0.11252826230241296
1729789167671083800,1.564083740234375,0.07188966870307922,-0.17747345566749573,0.005113312043249607,-0.21742865443229675,0.487749844789505,-0.8454731702804565,0.02274179458618164,0.05718731880187988,-0.02644449472427368,0.9539446231417671,-0.23883209512449297,-0.14220639727591095,0.11281021319261818
1729789167681113600,1.574113525390625,0.024210628122091293,-0.14706099033355713,0.000924958847463131,-0.21878767013549805,0.4873647689819336,-0.845344603061676,0.02211715281009674,0.017670661211013794,-0.0155867338180542,0.9538814627395825,-0.23852034479824935,-0.14295361958369177,0.11305943352923367
1729789167691144700,1.584144775390625,-0.0818106159567833,-0.1333257555961609,0.02790384739637375,-0.21993927657604218,0.48762306571006775,-0.8448967337608337,-0.002549096941947937,-0.015455037355422974,0.0015282034873962402,0.9537389238694016,-0.23857827300829282,-0.14363861313745416,0.1132713997964067
1729789167701175800,1.59417578125,-0.2003699541091919,-0.08525595813989639,0.07316932827234268,-0.2206045389175415,0.4889659881591797,-0.843946635723114,-0.014930114150047302,-0.0353221595287323,-0.0021837353706359863,0.9534560825763818,-0.2392459755572838,-0.14418064164655475,0.11355525236135797
1729789167711206700,1.60420654296875,-0.22454267740249634,-0.02477690391242504,0.0778314620256424,-0.22070957720279694,0.491012841463089,-0.8427298665046692,-0.030327990651130676,-0.034286707639694214,0.003130316734313965,0.9531045068531859,-0.24033026236745297,-0.14448676429172483,0.11382750600545248
1729789167721236700,1.61423681640625,-0.17417289316654205,0.011034464463591576,0.10334880650043488,-0.22031590342521667,0.4929455518722534,-0.8417039513587952,-0.04469873011112213,-0.00490841269493103,0.01563894748687744,0.9528019931369083,-0.24137428399920083,-0.1445215211446333,0.1141067684678429
1729789167731267600,1.624267578125,-0.06726962327957153,0.0874839648604393,0.12848956882953644,-0.21931135654449463,0.4942866861820221,-0.8411796689033508,-0.017550811171531677,0.03273665904998779,-0.0006629824638366699,0.9526142244585953,-0.24209909931460025,-0.14421582846280676,0.11452489811271675
1729789167741298700,1.634298583984375,0.10193058848381042,0.08007052540779114,0.10918991267681122,-0.21792125701904297,0.4944046139717102,-0.8414715528488159,0.0030622631311416626,0.03860020637512207,-0.0011644959449768066,0.9526345562042122,-0.24215835902179628,-0.14360900947394054,0.11499201990591364
1729789167751329500,1.64432958984375,0.1848331242799759,0.09294818341732025,0.07833213359117508,-0.21671666204929352,0.4933587610721588,-0.8423959612846375,0.024822145700454712,0.011493563652038574,-0.0057637691497802734,0.9528212044539788,-0.24156690382940665,-0.14299455147158702,0.11545418262982185
1729789167761360600,1.654360595703125,0.13852103054523468,0.008736317045986652,0.04878036677837372,-0.21593111753463745,0.49208807945251465,-0.8433403968811035,0.04053136706352234,-0.00034308433532714844,0.02992492914199829,0.9530279350879457,-0.24085109779292502,-0.14255015491076187,0.11579237785987936
1729789167771390700,1.664390625,0.07690639793872833,0.0033585955388844013,0.050325267016887665,-0.2158747911453247,0.49107226729393005,-0.8439467549324036,0.0420771986246109,-0.0012955963611602783,0.033018410205841064,0.9531510669406642,-0.24024863080390876,-0.14250343430002693,0.11608768619784814
1729789167781421600,1.674421630859375,0.07056175172328949,0.011498440988361835,0.03694208338856697,-0.21604883670806885,0.48987630009651184,-0.8445969820022583,0.010665565729141235,-0.014549702405929565,0.010612666606903076,0.9533014964349605,-0.23955559874131485,-0.1425293386733826,0.11625282230632425
1729789167791452700,1.68445263671875,0.0325176939368248,0.13005012273788452,0.04181699827313423,-0.21617604792118073,0.48896318674087524,-0.8450934290885925,-0.02747628092765808,-0.029139548540115356,0.0034949779510498047,0.9534285035006593,-0.23904185471399894,-0.14252111020982186,0.11627949456500217
1729789167801483500,1.6944833984375,0.10449828207492828,0.20258796215057373,0.01588473469018936,-0.2156471610069275,0.48852774500846863,-0.8454803228378296,-0.03383401036262512,-0.025591284036636353,0.01061093807220459,0.953550013400924,-0.23885155351871265,-0.14216110227108092,0.11611454978899227
1729789167811513600,1.704513671875,0.26370951533317566,0.3047500252723694,0.04152245447039604,-0.2137642651796341,0.48772621154785156,-0.8464207053184509,-0.029765978455543518,-0.010889023542404175,0.0394139289855957,0.9538067582948928,-0.23851195344370718,-0.14107338425898694,0.11603032018818828
1729789167821544700,1.714544677734375,0.39472678303718567,0.3113197386264801,0.10744181275367737,-0.21073509752750397,0.48623213171958923,-0.848038375377655,0.024989888072013855,0.014042586088180542,0.04328984022140503,0.9541980484296462,-0.2377946034821112,-0.1394078518387205,0.11629846987803495
1729789167831575600,1.724575439453125,0.48165714740753174,0.27290284633636475,0.12593400478363037,-0.20724321901798248,0.48310473561286926,-0.8506820797920227,0.08547811210155487,0.03642657399177551,0.03978431224822998,0.9548182665588988,-0.23615766197037252,-0.1374354582605395,0.11688918358198477
1729789167841606700,1.734606689453125,0.5322862267494202,0.21378597617149353,0.07297678291797638,-0.2044580727815628,0.4793362021446228,-0.8534833192825317,0.0867365300655365,0.03284037113189697,0.02837955951690674,0.9554760852654136,-0.23413723775722392,-0.1357869527019861,0.11750438747471566
1729789167851637500,1.744637451171875,0.5018953680992126,0.32335522770881653,0.0727355033159256,-0.2018953561782837,0.47501420974731445,-0.8565043807029724,0.04604211449623108,0.023994028568267822,-0.023607254028320312,0.9562202794330144,-0.2318440408861873,-0.13414972459191857,0.11787668419464059
1729789167861667600,1.75466748046875,0.5399782657623291,0.424522340297699,0.12130143493413925,-0.19808590412139893,0.47081297636032104,-0.8597075939178467,-0.0004614293575286865,0.014920085668563843,-0.030368030071258545,0.9570129009640113,-0.2296881744123081,-0.1318694443341357,0.11823773360530522
1729789167871698700,1.76469873046875,0.5251184105873108,0.46149304509162903,0.1514074057340622,-0.19364586472511292,0.46639496088027954,-0.8631204962730408,-0.04651220142841339,-0.015299320220947266,0.008491039276123047,0.9578405864285122,-0.22743370740852273,-0.1292812770117302,0.11875073825166352
1729789167881729500,1.7747294921875,0.3898116946220398,0.47322559356689453,0.19618073105812073,-0.18878063559532166,0.4627288281917572,-0.8661662340164185,-0.06947435438632965,-0.0012877285480499268,0.004090428352355957,0.958562563968896,-0.22561034510695568,-0.12655777104009322,0.1193350703373883
1729789167891760600,1.7847607421875,0.3325064778327942,0.5530122518539429,0.2545130252838135,-0.1832648664712906,0.4601585566997528,-0.8687163591384888,-0.062401607632637024,0.03027421236038208,-0.00928962230682373,0.9591335774454653,-0.22440305642461414,-0.12363288966349477,0.12008759522995256
1729789167901790700,1.794790771484375,0.44167429208755493,0.5216936469078064,0.22590772807598114,-0.1774221807718277,0.4572506248950958,-0.8714604377746582,-0.07315762341022491,0.01955607533454895,-0.018645763397216797,0.9597490804084221,-0.22303385591190594,-0.12052257107672126,0.12088000861362694
1729789167911821600,1.804821533203125,0.48659783601760864,0.6079345345497131,0.23085401952266693,-0.17150816321372986,0.4536011517047882,-0.8745461106300354,-0.08697570860385895,-0.009265154600143433,-0.062206149101257324,0.9604562664677512,-0.22128103537355112,-0.11731001361940885,0.12164195152905878
1729789167921852700,1.814852783203125,0.5979893207550049,0.6917445063591003,0.18784743547439575,-0.16477926075458527,0.4492496848106384,-0.8780788779258728,-0.059250250458717346,-0.03274577856063843,-0.05998563766479492,0.9612962321743848,-0.21922142970418282,-0.11358929524512774,0.12226603383837709
1729789167931883500,1.824883544921875,0.6785176396369934,0.7750793695449829,0.146231546998024,-0.1575700044631958,0.44380083680152893,-0.8821635246276855,-0.044746264815330505,-0.06692394614219666,0.009223520755767822,0.9623125053587716,-0.21664076606873936,-0.10947606071264951,0.12262318102111244
1729789167941915000,1.834914794921875,0.7320380806922913,0.7323827743530273,0.16723456978797913,-0.15002520382404327,0.4378172755241394,-0.8864583969116211,0.016404002904891968,-0.06368699669837952,0.054167747497558594,0.9633886363641838,-0.2138111014200706,-0.10514571277530782,0.12292900437541517
1729789167951944700,1.84494482421875,0.7060133814811707,0.6215923428535461,0.205875962972641,-0.14324551820755005,0.4316694140434265,-0.8905853629112244,0.07532867789268494,-0.05369389057159424,0.13081973791122437,0.9643885077275139,-0.21083890846441447,-0.10126344948230824,0.12348074659766947
1729789167961975600,1.8549755859375,0.6240106821060181,0.48874431848526,0.23023457825183868,-0.1373089849948883,0.4258934259414673,-0.8942936062812805,0.1038312166929245,-0.03394085168838501,0.15410500764846802,0.9652455758537275,-0.2080066472421645,-0.0979103193182797,0.12428934579418315
1729789167972007000,1.8650068359375,0.44798704981803894,0.5393860340118408,0.2272678166627884,-0.1317661553621292,0.4214858412742615,-0.8972108960151672,0.1059177964925766,-0.0008620321750640869,0.11309230327606201,0.9658882251946082,-0.2058896549889678,-0.09488943771521835,0.1251617822339398
1729789167982037800,1.875037841796875,0.449211061000824,0.5199613571166992,0.15781496465206146,-0.12615390121936798,0.41773325204849243,-0.8997689485549927,0.09241674840450287,0.030447959899902344,0.037693142890930176,0.9664744699017643,-0.20416455420039226,-0.09182795516471459,0.12574377313997437
1729789167992067600,1.885067626953125,0.502336859703064,0.4289590120315552,0.13416317105293274,-0.12119360268115997,0.41363248229026794,-0.9023415446281433,0.04549477994441986,0.044802576303482056,-0.001863718032836914,0.9670830742507561,-0.2022376211145447,-0.08904592589821618,0.12617833241149998
1729789168002098700,1.8950986328125,0.47785016894340515,0.38619789481163025,0.1724863201379776,-0.11700992286205292,0.40932735800743103,-0.9048534631729126,-0.015802554786205292,0.052296847105026245,-0.04697448015213013,0.9676633081223883,-0.20015453506261527,-0.08666845392742173,0.12670669937296497
1729789168012129800,1.9051298828125,0.7605732083320618,0.5050387978553772,0.22111617028713226,-0.1122361496090889,0.4040646553039551,-0.9078187346458435,-0.08890519291162491,0.0318027138710022,-0.033541738986968994,0.9683275658119228,-0.1975864085515535,-0.08396579885189587,0.1274800450197966
1729789168022161000,1.915160888671875,0.9200899004936218,0.7512081861495972,0.33028101921081543,-0.10540542751550674,0.3964982330799103,-0.9119642972946167,-0.13710248470306396,-0.00004431605339050293,-0.0080186128616333,0.9692545422575874,-0.19391401676190506,-0.0800950056421481,0.12856075643656548
1729789168032191700,1.925191650390625,0.8527681231498718,0.9046094417572021,0.42824673652648926,-0.09616005420684814,0.3888927400112152,-0.9162508845329285,-0.09391865879297256,0.0011219680309295654,0.07179903984069824,0.9701715063495887,-0.1903688157704312,-0.075061729727582,0.12997257223702677
1729789168042221800,1.935221923828125,0.9348222613334656,0.7876514196395874,0.3654896020889282,-0.08665375411510468,0.38089480996131897,-0.9205489158630371,-0.0013284087181091309,-0.033207982778549194,0.09552145004272461,0.971074575261281,-0.18665676136269463,-0.06989135893363231,0.1314865107945358
1729789168052252700,1.945252685546875,0.6932263970375061,0.5703044533729553,0.20781715214252472,-0.07929854840040207,0.37347865104675293,-0.9242432117462158,0.06574876606464386,-0.061680495738983154,0.04748845100402832,0.9718826686590715,-0.18317199067284454,-0.06577559470711093,0.1325360232164247
1729789168062283800,1.95528369140625,0.5345290303230286,0.4239926338195801,0.14490263164043427,-0.07404933124780655,0.36815232038497925,-0.9268120527267456,0.09127651900053024,-0.015491127967834473,0.0793541669845581,0.972468450837566,-0.1806931157184909,-0.06280101528895723,0.13308388089596662
1729789168072314600,1.965314697265625,0.6372053623199463,0.3022976219654083,0.2295389473438263,-0.07003724575042725,0.36291682720184326,-0.9291857481002808,0.06724491715431213,0.011915355920791626,0.06128114461898804,0.9729768722117328,-0.17817727256825414,-0.06049781279196732,0.133823745856925
1729789168082345700,1.975345703125,0.6217155456542969,0.36984357237815857,0.33953338861465454,-0.06604669243097305,0.3570510149002075,-0.9317469596862793,-0.006402008235454559,0.007954508066177368,0.04437214136123657,0.9734515852826495,-0.1753054077177447,-0.05826261141793611,0.13514976925030647
1729789168092375800,1.985375732421875,0.5710220336914062,0.6075847744941711,0.35292190313339233,-0.0602070577442646,0.35200875997543335,-0.9340583086013794,-0.09538678824901581,-0.01893991231918335,-0.01282578706741333,0.9738419772084355,-0.1729918266585394,-0.055178507173393405,0.13660539551429754
1729789168102406700,1.99540673828125,0.7177838683128357,0.7504912614822388,0.27024564146995544,-0.05278553441166878,0.34591731429100037,-0.9367790222167969,-0.12729866802692413,-0.07434132695198059,-0.08388137817382812,0.9743805522521731,-0.17027470498737085,-0.051156853906684153,0.13773904717393337
1729789168112437800,2.005437744140625,0.392816424369812,0.6339995265007019,0.2580172121524811,-0.04552854225039482,0.34077009558677673,-0.9390435814857483,-0.10361083596944809,-0.04793861508369446,-0.008496642112731934,0.9748489380814734,-0.16806851350775406,-0.04723528834629039,0.13853278640737376
1729789168122468600,2.015468505859375,0.37018492817878723,0.6352880597114563,0.30909210443496704,-0.038417745381593704,0.33736178278923035,-0.9405907988548279,-0.04213337600231171,0.05205780267715454,-0.033057212829589844,0.9751113687642923,-0.16675695628178014,-0.043551193432526246,0.13947478737193064
1729789168132498700,2.025498779296875,0.39649510383605957,0.6734955906867981,0.3156568109989166,-0.031366076320409775,0.33390042185783386,-0.9420863389968872,-0.022787343710660934,0.08254247903823853,-0.1643437147140503,0.9753346810200404,-0.16541743412858012,-0.03992372246473601,0.14058949275207525
1729789168142529800,2.03552978515625,0.4226771295070648,0.6693200469017029,0.2562398314476013,-0.02382012829184532,0.33007436990737915,-0.9436543583869934,-0.03164554387331009,0.08157727122306824,-0.2096659541130066,0.9756069123976886,-0.16394513440885666,-0.035983723065266995,0.14148577875003807
1729789168152560600,2.045560546875,0.33707618713378906,0.4651455879211426,0.2259088009595871,-0.017752008512616158,0.32649192214012146,-0.9450332522392273,-0.024942059069871902,0.03260844945907593,-0.17172694206237793,0.9758467545813776,-0.16250652267685373,-0.03278713103882165,0.14226635815737276
1729789168162591700,2.055591796875,0.02610679902136326,0.4437234699726105,0.3266439437866211,-0.012541578151285648,0.32475829124450684,-0.9457138776779175,-0.017701318487524986,0.0007574856281280518,-0.0015974640846252441,0.9758821197636278,-0.1619609434146344,-0.030194497984480373,0.1432165132018843
1729789168172621800,2.065621826171875,-0.2927883565425873,0.3057402968406677,0.46906155347824097,-0.007591589819639921,0.32606860995292664,-0.9453155994415283,0.004280459135770798,-0.03583112359046936,0.1582978367805481,0.9755313650189507,-0.16295048812661184,-0.028094954245994647,0.14490115666147574
1729789168182652700,2.075652587890625,-0.6396095752716064,0.33678850531578064,0.4725460112094879,-0.0031496137380599976,0.33063212037086487,-0.9437544345855713,0.00015891320072114468,-0.03204810619354248,0.10279685258865356,0.974833593519931,-0.16558092054242549,-0.026565572836799174,0.1468901484714042
1729789168192683800,2.085683837890625,-0.5786652565002441,0.3898104429244995,0.5089783072471619,0.0021026877220720053,0.33660808205604553,-0.9416425228118896,0.00029296637512743473,0.05209437012672424,0.008964300155639648,0.9739885159657709,-0.16901433081225564,-0.024756922739626132,0.14888857155362512
1729789168202714600,2.095714599609375,-0.3767663538455963,0.24257996678352356,0.5369295477867126,0.006918190512806177,0.3410951793193817,-0.9400033354759216,0.06984880566596985,0.10443100333213806,-0.03094393014907837,0.9732229077757188,-0.17165287000268203,-0.023100561017330087,0.15112529346876638
1729789168212745700,2.105745849609375,-0.2533714473247528,0.18565303087234497,0.5122665166854858,0.010663040913641453,0.34404256939888,-0.9388934969902039,0.06512738764286041,0.1347629725933075,-0.08298754692077637,0.9725697527159454,-0.17341949124516398,-0.021884476022875233,0.15347582788637168
1729789168222775800,2.11577587890625,-0.12979252636432648,0.18169105052947998,0.5281568169593811,0.014154666103422642,0.34574398398399353,-0.9382221102714539,-0.0022985655814409256,0.14143863320350647,-0.21670031547546387,0.9720247675663469,-0.17452966027358333,-0.020696350610224762,0.15581705947692445
1729789168232806700,2.125806640625,-0.16936098039150238,0.1741684228181839,0.5852355360984802,0.017786655575037003,0.3469456732273102,-0.937716543674469,-0.035990361124277115,0.12456619739532471,-0.27810370922088623,0.9714835203148874,-0.17539649517629916,-0.019436875068160133,0.15836081180538464
1729789168242837800,2.135837646484375,-0.1346581131219864,0.14685700833797455,0.5412425398826599,0.021271800622344017,0.34836676716804504,-0.9371169209480286,-0.03892619162797928,0.09178832173347473,-0.16104286909103394,0.9708995448255155,-0.1763720657471513,-0.018287566977482232,0.16097384923992347
1729789168252868600,2.14586865234375,-0.15333059430122375,0.10998821258544922,0.5493313670158386,0.02432819828391075,0.3495429456233978,-0.9366044402122498,-0.05801957845687866,0.04375237226486206,0.055973947048187256,0.9703550969076157,-0.17719519108433568,-0.017310225915739018,0.16344216211835932
1729789168262899700,2.155899658203125,-0.044654324650764465,0.16677990555763245,0.6563637852668762,0.027744587510824203,0.3505316376686096,-0.9361398220062256,-0.028888974338769913,0.035485267639160156,0.22158604860305786,0.9697551759250638,-0.177953512586254,-0.016205684605892542,0.16626724745037186
1729789168272929800,2.1659296875,0.25607943534851074,0.2707206904888153,0.6809192299842834,0.03219591826200485,0.34941452741622925,-0.936414897441864,-0.007034145295619965,0.02990373969078064,0.2151014804840088,0.9692894227799059,-0.17771849821058863,-0.014445515726164334,0.16936810356053195
1729789168282960600,2.175960693359375,0.5354951620101929,0.41339001059532166,0.5543311834335327,0.03753993660211563,0.3453925549983978,-0.9377071857452393,-0.03886742517352104,0.07321712374687195,0.22576260566711426,0.9691416638538611,-0.17608175850301097,-0.011900761411269951,0.17209898518872635
1729789168292991700,2.18599169921875,0.7752701640129089,0.5131000876426697,0.5877735614776611,0.043909091502428055,0.33901911973953247,-0.9397542476654053,-0.046106334775686264,0.1778724193572998,0.24099326133728027,0.9692525658006144,-0.17334891612930986,-0.008545870985591257,0.17443231957204755
1729789168303022600,2.196022705078125,1.1465386152267456,0.40487444400787354,0.6274999380111694,0.050401393324136734,0.3297773003578186,-0.9427123665809631,0.036177001893520355,0.11960932612419128,0.07305300235748291,0.9695341472986588,-0.16917366723034827,-0.004907242302895661,0.17708687231625084
1729789168313052700,2.206052734375,1.2495357990264893,0.3252001404762268,0.3998606503009796,0.05548492819070816,0.31773698329925537,-0.9465540647506714,0.07859407365322113,-0.0704529881477356,-0.32235151529312134,0.9701075702922991,-0.1634635067869219,-0.0016241727940132056,0.1793555494713861
1729789168323083500,2.21608349609375,0.7395555973052979,0.3234136700630188,0.2690083384513855,0.05959026888012886,0.3080063760280609,-0.949516236782074,0.013133149594068527,-0.11412814259529114,-0.300148069858551,0.9706307741827793,-0.1588729511902179,0.0011280921204585188,0.1806485790728088
1729789168333114600,2.226114501953125,0.37026411294937134,0.22619816660881042,0.32995158433914185,0.063140869140625,0.3027324080467224,-0.9509817957878113,-0.012680023908615112,-0.05277812480926514,-0.05846339464187622,0.970784210238102,-0.1565211401635421,0.003200752950538927,0.18184889172262225
1729789168343145700,2.236145751953125,0.22163023054599762,0.2645428478717804,0.41594401001930237,0.0665358453989029,0.29980024695396423,-0.9516789317131042,-0.030921801924705505,0.038654983043670654,0.06305283308029175,0.9706576284110202,-0.15535910799115726,0.004907342261341108,0.18347540385334307
1729789168353176600,2.246176513671875,0.4811643362045288,0.3659166097640991,0.47933709621429443,0.07089371234178543,0.2964801788330078,-0.9524041414260864,-0.06454602628946304,0.13207823038101196,0.14915096759796143,0.9704742649104766,-0.1541031832791913,0.007081572253186946,0.18542364779159262
1729789168363206700,2.25620654296875,0.9873941540718079,0.5581872463226318,0.47665899991989136,0.07665450125932693,0.2892293632030487,-0.9541857838630676,-0.06449321657419205,0.16163739562034607,0.17467528581619263,0.9705556472284546,-0.15099761110304027,0.010336263109984,0.18738926443569226
1729789168373237500,2.266237548828125,1.576085090637207,0.7418968677520752,0.4552631676197052,0.08429966866970062,0.27645960450172424,-0.9573211073875427,-0.06850678473711014,0.17086711525917053,0.2540130019187927,0.9710378450708529,-0.14529601334094636,0.015117039233784418,0.18906654689473332
1729789168383268600,2.2762685546875,2.1233410835266113,0.7289730310440063,0.4213438332080841,0.09266925603151321,0.2582421600818634,-0.9616253972053528,-0.046511389315128326,0.13941717147827148,0.3166516423225403,0.9718611733840831,-0.13694309553554104,0.020830086490877992,0.1905220329786496
1729789168393299500,2.286299560546875,2.4537527561187744,0.5745514631271362,0.3771910071372986,0.09998759627342224,0.2354869693517685,-0.9667204022407532,0.0053743720054626465,0.05647476017475128,0.11351001262664795,0.9729257338950035,-0.1262436406223796,0.026501551922897725,0.1917701051706083
1729789168403329500,2.29632958984375,2.287867307662964,0.43343886733055115,0.26134562492370605,0.10561670362949371,0.21186204254627228,-0.9715758562088013,0.039433375000953674,-0.062341123819351196,-0.11848151683807373,0.9739861735006122,-0.11498648004658593,0.03146737198796054,0.1927145548813673
1729789168413360600,2.306360595703125,1.911974549293518,0.37903475761413574,0.07214268296957016,0.10989316552877426,0.19124701619148254,-0.9753707051277161,0.021256156265735626,-0.14933107793331146,-0.10806429386138916,0.9749146367199958,-0.10512081864832347,0.03555624106251568,0.19294259588136486
1729789168423391500,2.3163916015625,1.6576104164123535,0.49598804116249084,0.026917945593595505,0.11425409466028214,0.17387104034423828,-0.9781180024147034,-0.012126989662647247,-0.1334809809923172,-0.060761332511901855,0.9756896400045777,-0.09688387434523431,0.03942719570126827,0.1925845757047359
1729789168433422800,2.3264228515625,1.7903645038604736,0.5844617486000061,0.08506247401237488,0.11957599222660065,0.15709839761257172,-0.9803171157836914,0.007438190281391144,-0.03545530140399933,0.02381998300552368,0.9763165692624638,-0.08906030949756577,0.04370006431720395,0.19226185174688634
1729789168443453700,2.33645361328125,1.9800631999969482,0.6496462225914001,0.0748138278722763,0.12583819031715393,0.13836705684661865,-0.9823539853096008,0.020524144172668457,0.09384125471115112,-0.01665419340133667,0.9769015239415723,-0.08037120906878645,0.04861570332025633,0.19193862327875374
1729789168453483500,2.3464833984375,2.1712183952331543,0.7370655536651611,0.16776853799819946,0.1328924298286438,0.11780206114053726,-0.9841048121452332,0.03052923083305359,0.16512644290924072,0.09749287366867065,0.9773955976907077,-0.07087082493451032,0.05408254992578508,0.191703241659478
1729789168463515000,2.356514892578125,2.0495779514312744,0.6258940696716309,0.30815842747688293,0.13993844389915466,0.09631453454494476,-0.9854647517204285,0.07989495992660522,0.07885641604661942,0.024374663829803467,0.9776811050969015,-0.060961034778609015,0.05959350660143874,0.19202068721640447
1729789168473545700,2.366545654296875,1.7225006818771362,0.5732383131980896,0.3062047064304352,0.14644363522529602,0.0770854726433754,-0.9862110018730164,0.09275318682193756,-0.06359665840864182,-0.09562188386917114,0.9777197738218179,-0.0521603563856006,0.0646050128919996,0.19279423395039832
1729789168483576800,2.376576904296875,1.235722541809082,0.42076653242111206,0.13902157545089722,0.1516028344631195,0.062015850096940994,-0.9864941239356995,0.07810300588607788,-0.21428325772285461,-0.24516481161117554,0.9776948909106903,-0.04527343595035481,0.06858034447471648,0.1932869010807279
1729789168493607000,2.38660693359375,0.9551454186439514,0.19117489457130432,0.031169414520263672,0.15466617047786713,0.05137180536985397,-0.9866302609443665,0.06477050483226776,-0.2152206301689148,-0.13281548023223877,0.9777335931341594,-0.040329537910358454,0.0711223292772941,0.19326758206215142
1729789168503637800,2.3966376953125,0.8173167705535889,0.1964903324842453,-0.06948182731866837,0.15646709501743317,0.042628414928913116,-0.9867628216743469,0.12432517111301422,-0.07361897081136703,-0.08481615781784058,0.9778573652065463,-0.036165980998417994,0.07287393348502379,0.1928119346448329
1729789168513669400,2.40666943359375,0.761579692363739,0.2217874377965927,0.00167037732899189,0.1585281789302826,0.03501207381486893,-0.9867334961891174,0.1230422854423523,0.07912371307611465,0.006402075290679932,0.9779599633826799,-0.03257501042660112,0.07464667408919705,0.1922526302189612
1729789168523700500,2.416700439453125,0.7017862200737,0.371381551027298,0.12196642905473709,0.161441370844841,0.027447573840618134,-0.9865005612373352,0.12189911305904388,0.10066526383161545,0.1548355221748352,0.9779003919835207,-0.029135928187203956,0.07681684733157051,0.19225273144129074
1729789168533731600,2.426731689453125,0.1163153275847435,0.4546301066875458,0.0729975551366806,0.1656433343887329,0.022735383361577988,-0.9859236478805542,0.08533325791358948,0.032226815819740295,0.1668928861618042,0.9776987157304308,-0.027251453035789876,0.07934448678965278,0.192527794748679
1729789168543761400,2.436761474609375,-0.6215216517448425,0.3104526102542877,0.041184499859809875,0.16951313614845276,0.025247756391763687,-0.9852044582366943,0.007229447364807129,-0.0876561626791954,0.39218688011169434,0.9774532621979317,-0.028897487707980514,0.08101049741721063,0.19284001074617743
1729789168553792500,2.44679248046875,-1.1473002433776855,0.21401607990264893,-0.05132812634110451,0.17206071317195892,0.03395961597561836,-0.9845008254051208,0.006360337138175964,-0.22434347867965698,0.24512094259262085,0.9772060803662336,-0.03347157382824641,0.08142017803881914,0.1931808242805507
1729789168563823400,2.4568232421875,-1.582623839378357,0.1379368156194687,-0.11472893506288528,0.17380103468894958,0.047962501645088196,-0.9836121201515198,-0.0531039834022522,-0.24264934659004211,0.016052305698394775,0.9769619297065314,-0.04055591189822968,0.08092688375069962,0.1932649553719579
1729789168573854500,2.4668544921875,-1.360714077949524,0.0343659408390522,-0.12471392750740051,0.1745559126138687,0.06297382712364197,-0.9826314449310303,-0.09881125390529633,-0.1927040070295334,-0.014499902725219727,0.9767080247037013,-0.04803981347112446,0.07985273516639976,0.19328027683330695
1729789168583884500,2.476884521484375,-0.9080302119255066,-0.009351713582873344,-0.15932437777519226,0.1745363175868988,0.07449188828468323,-0.9818289279937744,-0.13468033075332642,-0.11594997346401215,-0.15348601341247559,0.9765516683631909,-0.05370608641650871,0.07874766165370524,0.19303206301060938
1729789168593915400,2.486915283203125,-0.39477595686912537,0.030498230829834938,-0.14205403625965118,0.17447778582572937,0.08118237555027008,-0.9813087582588196,-0.18196982145309448,0.010522991418838501,-0.19418251514434814,0.9765195443151667,-0.05696570815688729,0.07810580970290984,0.19252010126124625
1729789168603946500,2.496946533203125,-0.05117141082882881,0.09636197984218597,-0.06948955357074738,0.1750287115573883,0.08339986950159073,-0.9810246825218201,-0.20820128917694092,0.04219526797533035,-0.17868906259536743,0.9765382502599363,-0.05808023712254727,0.07819431064721258,0.1920553814563987
1729789168613977300,2.506977294921875,-0.10419973731040955,0.11664967983961105,-0.04508780688047409,0.17610768973827362,0.08391694724559784,-0.980787456035614,-0.22200609743595123,-0.05169034004211426,-0.11099416017532349,0.9765284498849119,-0.058423290637677906,0.0786955727546707,0.19179644879275368
1729789168624008400,2.517008544921875,-0.6658761501312256,0.0463821217417717,-0.04387526959180832,0.1769457757472992,0.08761195838451385,-0.9803133606910706,-0.2296190708875656,-0.21879172325134277,0.001324772834777832,0.9764277859630023,-0.06032664989089022,0.07876548415987442,0.19169102987446043
1729789168634038500,2.52703857421875,-1.5404220819473267,-0.13786788284778595,-0.13940952718257904,0.1764739751815796,0.09834504872560501,-0.9793800115585327,-0.2079680860042572,-0.4127523601055145,0.037226080894470215,0.9761810984049955,-0.06559525837627227,0.07750652900952704,0.19173000889548372
1729789168644069400,2.5370693359375,-2.3921751976013184,-0.39107605814933777,-0.30217310786247253,0.17374353110790253,0.1183890625834465,-0.9776487946510315,-0.22217489778995514,-0.5515860319137573,0.10530388355255127,0.9757830678661719,-0.07523769789605682,0.07426223201936773,0.1914989511100781
1729789168654100500,2.5471005859375,-2.629108190536499,-0.7014608383178711,-0.4185657799243927,0.16784782707691193,0.14407582581043243,-0.9752277731895447,-0.23913685977458954,-0.537340521812439,0.15700578689575195,0.975282090072235,-0.08735949947892768,0.06895229379587614,0.1908891176072722
1729789168664131300,2.55713134765625,-1.9383646249771118,-0.7538382411003113,-0.8208380937576294,0.159433051943779,0.1678202748298645,-0.972839891910553,-0.2116638720035553,-0.2654764652252197,0.15719664096832275,0.97501855480087,-0.09822217691368275,0.06270931844668123,0.18909966056250652
1729789168674161400,2.567161376953125,-0.5683869123458862,-0.07463979721069336,-1.180827260017395,0.15333956480026245,0.18200929462909698,-0.9712669849395752,-0.21527495980262756,0.2141699492931366,0.18238765001296997,0.9754601567633032,-0.10443199083024754,0.058825649070721936,0.18469157215100993
1729789168684192500,2.577192626953125,0.5358211994171143,0.6017444133758545,-0.8486396670341492,0.15414243936538696,0.1832464188337326,-0.9709072113037109,-0.09257319569587708,0.632732629776001,0.09219938516616821,0.9763719004484784,-0.10480236006848266,0.059689593411438854,0.17930874951595396
1729789168694223400,2.587223388671875,0.787422239780426,0.7117652297019958,0.01917267218232155,0.16030627489089966,0.177021324634552,-0.971064031124115,0.20025892555713654,0.7216145992279053,0.050074100494384766,0.9768910986375811,-0.10210397869254807,0.06358272145831292,0.17668010683555296
1729789168704254500,2.59725439453125,0.24750244617462158,0.2873246371746063,0.4043233096599579,0.16558359563350677,0.17106680572032928,-0.9712457060813904,0.4585466980934143,0.3746638298034668,-0.13269716501235962,0.9767809222717401,-0.09967969851586554,0.06664161837582404,0.17754407646522594
1729789168714285300,2.607285400390625,-0.8015228509902954,0.01688889041543007,0.04746263474225998,0.1675454080104828,0.1732328087091446,-0.9705250859260559,0.4717673659324646,-0.09245273470878601,-0.3421885371208191,0.9763637467349197,-0.10103836572029079,0.0672956695436138,0.17881969301335365
1729789168724315400,2.6173154296875,-1.6591155529022217,-0.3231048583984375,-0.39999687671661377,0.16572804749011993,0.1857699602842331,-0.9685162305831909,0.37502819299697876,-0.3819674253463745,-0.3206835389137268,0.9759273534048517,-0.10711756211601459,0.06532762103093911,0.17839287210253837
1729789168734346500,2.627346435546875,-2.0754787921905518,-0.5941555500030518,-0.5355027914047241,0.1601959466934204,0.20494887232780457,-0.9655740261077881,0.3615783452987671,-0.4170307517051697,-0.28059595823287964,0.9754548616766081,-0.1161230894480275,0.06106071293928744,0.17684685172571507
1729789168744377300,2.63737744140625,-2.049882173538208,-0.5738948583602905,-0.36486685276031494,0.15336085855960846,0.2260684072971344,-0.9619633555412292,0.30420446395874023,-0.2584780156612396,-0.14812874794006348,0.9747606983568646,-0.12604082570668854,0.05596449943484206,0.17556563598210564
1729789168754408400,2.647408447265625,-1.444504976272583,-0.3431037366390228,-0.1794557422399521,0.14835794270038605,0.24345000088214874,-0.9584998488426208,0.15140099823474884,-0.08492639660835266,0.057773590087890625,0.9739671046778129,-0.1343275260963129,0.05202093912037898,0.17503702659304682
1729789168764438300,2.657438232421875,-0.8284662961959839,-0.17444682121276855,-0.13761401176452637,0.14551356434822083,0.2545371353626251,-0.9560526609420776,-0.05457115173339844,0.012384921312332153,0.14518535137176514,0.9733854766278914,-0.13966657933525808,0.04966818159677125,0.17477693654437848
1729789168774469400,2.667469482421875,-0.431517630815506,-0.040076762437820435,-0.19321948289871216,0.1441091001033783,0.260571151971817,-0.9546387791633606,-0.2319691777229309,0.02858293056488037,0.19906938076019287,0.973126246545481,-0.14256959961433727,0.04852325273026576,0.17419771411109064
1729789168784500500,2.67750048828125,-0.2798684239387512,0.0866006538271904,-0.2537318170070648,0.14371073246002197,0.26413801312446594,-0.9537181854248047,-0.3176456093788147,-0.021660536527633667,0.2023754119873047,0.9730722086142396,-0.1442953664096227,0.048163909129842815,0.17317535384503258
1729789168794531300,2.68753125,-0.5024881958961487,0.18636558949947357,-0.20798857510089874,0.1444147378206253,0.2681593596935272,-0.9524888396263123,-0.2706964612007141,-0.07296887040138245,0.11008161306381226,0.9729686841060028,-0.1463500147517119,0.0483452833125364,0.17197758832244558
1729789168804562400,2.6975625,-0.693291962146759,0.13772833347320557,-0.15917709469795227,0.14556171000003815,0.27405744791030884,-0.9506336450576782,-0.09258316457271576,-0.09273719787597656,0.015529274940490723,0.9726376683735102,-0.1494240995923886,0.04853473626903067,0.17115137492330101
1729789168814592300,2.70759228515625,-0.9178552627563477,0.11837807297706604,-0.20937928557395935,0.14628395438194275,0.28231024742126465,-0.9481043815612793,0.06311242282390594,-0.08068057894706726,-0.08221477270126343,0.9721313191365519,-0.1536670433369886,0.0483140346793448,0.1703318598299814
1729789168824623400,2.717623291015625,-0.7403079271316528,-0.02983509749174118,-0.21906733512878418,0.14617282152175903,0.29061537981033325,-0.945608913898468,0.11189910769462585,-0.008877038955688477,-0.06784927845001221,0.9716444264945745,-0.1578647481089778,0.047689200251616104,0.1694454577721303
1729789168834654200,2.727654296875,-0.44932645559310913,-0.13568268716335297,-0.2518894672393799,0.14456072449684143,0.2966246008872986,-0.9439894556999207,0.06952011585235596,0.04868185520172119,-0.005870163440704346,0.9713868447182269,-0.16075192144935233,0.046519931755996335,0.16852996372423873
1729789168844685600,2.737685546875,-0.10872970521450043,-0.015104887075722218,-0.22242318093776703,0.1430465131998062,0.2997066378593445,-0.9432463645935059,-0.07436667382717133,0.12285506725311279,-0.004782199859619141,0.9713779098543516,-0.1621437431137241,0.045675334568903325,0.1674763491012567
1729789168854715400,2.74771533203125,0.27930909395217896,0.17601314187049866,-0.11827626824378967,0.14317555725574493,0.2991207540035248,-0.943412721157074,-0.17050401866436005,0.0863010585308075,-0.015510618686676025,0.971584625320795,-0.16180970865881256,0.04594851899537428,0.16652216695130115
1729789168864746200,2.757746337890625,0.6080933809280396,0.24204516410827637,-0.11947282403707504,0.1449228972196579,0.29454466700553894,-0.9445849657058716,-0.1536814123392105,-0.07796135544776917,0.013081729412078857,0.9720218487314349,-0.1595825037529946,0.04733848202735685,0.16572874174611008
1729789168874777600,2.767777587890625,0.2754940986633301,0.25382059812545776,-0.3552438020706177,0.14690177142620087,0.2902091145515442,-0.9456207156181335,-0.10336843132972717,-0.1904013454914093,0.10492253303527832,0.9725401718403699,-0.15746527063019983,0.048931862219609545,0.16424371548052097
1729789168884808400,2.777808349609375,-0.6401879787445068,0.10797230154275894,-0.3506847321987152,0.14744171500205994,0.2926160395145416,-0.9447945952415466,-0.009120762348175049,-0.09078797698020935,0.15829557180404663,0.972656763586869,-0.1586503916739144,0.04932304471274615,0.16228428111041715
1729789168894839600,2.787839599609375,-0.954653263092041,-0.18277883529663086,-0.08990801125764847,0.14652661979198456,0.30090031027793884,-0.9423316717147827,0.16011403501033783,0.06505128741264343,0.061548590660095215,0.9721537441559018,-0.16278667222181784,0.04831840956906723,0.1615020678644799
1729789168904869600,2.79786962890625,-0.8683987855911255,-0.20422393083572388,-0.1900940090417862,0.14414548873901367,0.3097969591617584,-0.9398127198219299,0.17107060551643372,0.08032456040382385,-0.11464589834213257,0.9715360628580514,-0.16714624406935982,0.0464304146843988,0.1613193562138107
1729789168914900500,2.807900390625,-0.6360190510749817,-0.059542395174503326,-0.2685541808605194,0.1420745551586151,0.31733083724975586,-0.9376118183135986,-0.07302850484848022,0.18909317255020142,-0.09783428907394409,0.9711244552835361,-0.17080526255495326,0.04494044169368556,0.16038447559373806
1729789168924931600,2.817931640625,-0.2894907593727112,0.0800144374370575,-0.07209731638431549,0.14165301620960236,0.32193616032600403,-0.9361044764518738,-0.15524856746196747,0.31972649693489075,-0.01749354600906372,0.9708640084299821,-0.17311330904577885,0.04449220111305509,0.15961009001453302
1729789168934962400,2.82796240234375,0.13065996766090393,0.23637549579143524,0.13460499048233032,0.14323435723781586,0.32276397943496704,-0.9355786442756653,-0.08160409331321716,0.36797094345092773,-0.03309506177902222,0.9707186481769507,-0.17368620155373654,0.04520835115210298,0.15967066766478596
1729789168944992500,2.837992431640625,0.5188095569610596,0.2100623995065689,0.10041533410549164,0.14588038623332977,0.3194754719734192,-0.9362981915473938,-0.021292343735694885,0.3296181857585907,-0.09663021564483643,0.9708439737835917,-0.17223935819301778,0.04673861877712298,0.16003476217377446
1729789168955023600,2.848023681640625,1.1201896667480469,0.2903713285923004,0.05276978015899658,0.14831219613552094,0.3118624985218048,-0.9384803175926208,-0.03251321613788605,0.31213048100471497,-0.05074697732925415,0.9714149501842526,-0.1685210067106562,0.04858516549571954,0.1599785062659306
1729789168965054500,2.858054443359375,1.5755125284194946,0.31113457679748535,0.18269182741641998,0.15160991251468658,0.29883480072021484,-0.9421848058700562,-0.07197427749633789,0.33083441853523254,0.015823781490325928,0.972379253352907,-0.16209816641818253,0.05130090443214624,0.15990942120832505
1729789168975085600,2.86808544921875,1.8834840059280396,0.3048790991306305,0.2845492362976074,0.1551990807056427,0.28205204010009766,-0.9467628598213196,-0.07467842102050781,0.27510741353034973,0.07739335298538208,0.9734761274563776,-0.15382646546806122,0.05436907412554051,0.16039206275446985
1729789168985115600,2.87811572265625,1.9665005207061768,0.22747008502483368,0.2736121416091919,0.1586129367351532,0.26306092739105225,-0.9516516923904419,-0.03790062665939331,0.11015385389328003,-0.015251994132995605,0.9746298510335683,-0.1444542872047636,0.05750761059990997,0.16100480441000728
1729789168995146500,2.888146484375,1.5530874729156494,0.0046759010292589664,0.21093571186065674,0.16040299832820892,0.2455168068408966,-0.95602947473526,0.043042466044425964,-0.07670877873897552,0.050969719886779785,0.9756540633569202,-0.1357138560391861,0.059724392586878255,0.16159848641536004
1729789169005177600,2.898177490234375,0.8693392276763916,-0.39612600207328796,0.07875477522611618,0.15891118347644806,0.23357217013835907,-0.9592660069465637,0.15255124866962433,-0.1994534730911255,0.07063990831375122,0.9764020202845184,-0.12954735363708017,0.059870508099382755,0.16208670658991065
1729789169015208400,2.90820849609375,-0.14491501450538635,-0.5052514672279358,-0.010627301409840584,0.1544877588748932,0.22978536784648895,-0.9609017968177795,0.1925429105758667,-0.20781266689300537,0.13949066400527954,0.9767727698831004,-0.12725426360603448,0.05792639766851267,0.16237529625715572
1729789169025239600,2.918239501953125,-0.7064604163169861,-0.5606088042259216,0.17353613674640656,0.14950081706047058,0.23461224138736725,-0.9605241417884827,0.1543169617652893,-0.06726905703544617,0.23655563592910767,0.9765383131118651,-0.1293055932231205,0.05493629499596393,0.16320261643879946
1729789169035269400,2.928269287109375,-0.31147417426109314,-0.5451401472091675,0.19059155881404877,0.14463451504707336,0.23939669132232666,-0.9600886106491089,0.12128043174743652,-0.03007657825946808,-0.009012341499328613,0.9761718136301928,-0.13138008525558934,0.05191321865953084,0.16472081942818786
1729789169045300500,2.938300537109375,-0.07395529001951218,-0.4577708840370178,-0.07767318189144135,0.13988681137561798,0.2409343421459198,-0.9604073762893677,-0.03281585872173309,-0.0033854693174362183,-0.043346285820007324,0.976141286768864,-0.13176904313113694,0.049327816333256946,0.16538399454130714
1729789169055331600,2.94833154296875,0.17213225364685059,-0.4303208887577057,-0.06896038353443146,0.1354854553937912,0.24087287485599518,-0.9610535502433777,-0.1483638435602188,0.1229424774646759,0.25408339500427246,0.9763424236704192,-0.13133400050728314,0.04716563662194996,0.1651736187226795
1729789169065362400,2.958362548828125,0.632093608379364,-0.44510728120803833,0.1586027294397354,0.1313156634569168,0.23675894737243652,-0.9626533389091492,-0.03146211802959442,0.06643325090408325,0.15567702054977417,0.9766810351664467,-0.1288983926153442,0.04537119591659789,0.1655928107250241
1729789169075392500,2.968392578125,0.4298182725906372,-0.4017590284347534,0.17279177904129028,0.1277158558368683,0.23095165193080902,-0.9645465016365051,0.0816500186920166,-0.09871894121170044,-0.029212594032287598,0.9769853104284273,-0.125688297140807,0.04392256543189611,0.1666521834456038
1729789169085423400,2.97842333984375,0.008668754249811172,-0.4607611894607544,-0.017870035022497177,0.12381167709827423,0.22880171239376068,-0.965567409992218,0.07972533255815506,-0.1405143290758133,0.026373744010925293,0.9771412849628267,-0.12428031810844978,0.04207958739074892,0.16726813308874589
1729789169095454500,2.988454345703125,-0.3177415728569031,-0.578483521938324,-0.1204318255186081,0.11858248710632324,0.23051930963993073,-0.9658151865005493,0.07166412472724915,-0.13626572489738464,-0.003316223621368408,0.9772095061429711,-0.12467976560618979,0.03933634601047848,0.16723959221684792
1729789169105485300,2.9984853515625,-0.3654954731464386,-0.6236439943313599,-0.09103105962276459,0.11243273317813873,0.23417195677757263,-0.965671956539154,0.061380162835121155,-0.07268814742565155,-0.06257200241088867,0.9771889009811576,-0.12597368705923176,0.03598108954535836,0.1671463827904541
1729789169115516400,3.008516357421875,-0.09793032705783844,-0.576635479927063,-0.06895186007022858,0.10638212412595749,0.23670077323913574,-0.965740978717804,0.008547104895114899,0.004388138651847839,-0.14134520292282104,0.9771972476119024,-0.12671582718084548,0.03275094907256733,0.16720029801354702
1729789169125546500,3.01854638671875,0.23854316771030426,-0.4891228973865509,-0.12472990155220032,0.1009371355175972,0.23601937294006348,-0.9664918780326843,-0.06834433972835541,0.04379633069038391,-0.0913388729095459,0.9774123720393537,-0.1258847826811183,0.030117825987566717,0.16706571274682241
1729789169135577300,3.028577392578125,0.27342870831489563,-0.3576383590698242,-0.05476732924580574,0.09666198492050171,0.23358145356178284,-0.9675205945968628,-0.11744443327188492,0.08039869368076324,0.06134694814682007,0.9777274435970488,-0.12426730550835736,0.02823694118735851,0.1667611660638766
1729789169145608400,3.0386083984375,0.41159477829933167,-0.28500449657440186,0.05662444233894348,0.09349597990512848,0.23027661442756653,-0.9686233401298523,-0.06180345267057419,0.04773856699466705,0.06272435188293457,0.9779722010565673,-0.12232711063884244,0.026914783726375728,0.16697917304756604
1729789169155639300,3.048639404296875,0.23252010345458984,-0.12230212241411209,-0.004656760487705469,0.09166664630174637,0.22688615322113037,-0.9695978164672852,-0.029593870043754578,-0.03067333996295929,0.012398719787597656,0.9781824114267513,-0.12046282860869302,0.026264176141853654,0.16720651026420227
1729789169165669400,3.05866943359375,0.1449417769908905,-0.09827364981174469,-0.04623083397746086,0.09060043096542358,0.22535166144371033,-0.9700557589530945,-0.03846112638711929,-0.02071601152420044,0.15490078926086426,0.9783164840908704,-0.11959316931591098,0.02587644017263425,0.16710709691469675
1729789169175700500,3.068700439453125,0.20918627083301544,-0.10289929062128067,-0.035969674587249756,0.08950505405664444,0.22354725003242493,-0.9705747961997986,0.016909770667552948,-0.031225427985191345,0.09314870834350586,0.9784789896213216,-0.11858344262427278,0.02550607635667606,0.16693195495675966
1729789169185731300,3.0787314453125,0.12151140719652176,-0.07358507812023163,0.00043200794607400894,0.088572196662426,0.22196179628372192,-0.9710241556167603,0.028798431158065796,-0.024131551384925842,0.03927677869796753,0.9786045125494952,-0.1177016379607431,0.025184132238863278,0.1668693219128845
1729789169195762400,3.088762451171875,0.22490732371807098,-0.05813475325703621,0.0013121822848916054,0.08798228204250336,0.22046881914138794,-0.9714178442955017,0.01615898311138153,-0.005289316177368164,0.012158811092376709,0.9786959460392736,-0.1168997063766482,0.025010784592828288,0.1669224582109703
1729789169205792500,3.09879248046875,0.2949768900871277,-0.03991740196943283,-0.06316614151000977,0.08744251728057861,0.2178221493959427,-0.972063422203064,-0.014108754694461823,-0.0044126957654953,-0.01438671350479126,0.978888300990953,-0.11551636890227157,0.02498501627080244,0.16676181878747445
1729789169215823400,3.1088232421875,0.44283851981163025,-0.03552132099866867,-0.036330800503492355,0.08699202537536621,0.21443688869476318,-0.9728562235832214,-0.03968974947929382,0.04200237989425659,-0.0062697529792785645,0.9791417452073365,-0.11376650924128373,0.025081320651937404,0.16646239301172738
1729789169225854500,3.1188544921875,0.6336551308631897,-0.048858270049095154,-0.03791751340031624,0.08645646274089813,0.209170401096344,-0.9740498065948486,-0.015777722001075745,0.05607317388057709,-0.09188342094421387,0.9794788466236294,-0.11106771471386932,0.025279647088695782,0.16627111771011233
1729789169235885300,3.12888525390625,0.7443007230758667,-0.00043507758527994156,-0.062493160367012024,0.08612963557243347,0.20245444774627686,-0.975496768951416,-0.027612149715423584,0.07238692045211792,-0.035718441009521484,0.9799063851714983,-0.10765781250637094,0.025718198009603198,0.1659274911720664
1729789169245916400,3.13891650390625,0.8568978309631348,0.051088035106658936,0.0026072775945067406,0.08626069128513336,0.19461201131343842,-0.9770799875259399,-0.021868571639060974,0.09315353631973267,0.03831350803375244,0.9803599060495374,-0.1037274572300362,0.026469442511203797,0.16563371246973202
1729789169255946500,3.148946533203125,0.8684407472610474,0.05080467462539673,0.09256885945796967,0.08696679770946503,0.18607112765312195,-0.978679895401001,0.02451394498348236,0.06356270611286163,-0.0041387081146240234,0.9807490410847907,-0.09951248955493779,0.02751951602030785,0.1657446080155186
1729789169265977300,3.158977294921875,0.7118425965309143,0.02084171399474144,0.043109431862831116,0.08745334297418594,0.17816105484962463,-0.9801074266433716,0.037806086242198944,0.009079605340957642,0.021214604377746582,0.9810739732878649,-0.09560299534500544,0.028396437283343227,0.16597454980840895
1729789169276008400,3.169008544921875,0.5982292294502258,-0.04544515907764435,-0.011761807836592197,0.08735772967338562,0.17180994153022766,-0.981249213218689,0.02917366474866867,-0.02389119565486908,0.037493109703063965,0.9813656073276164,-0.09242005724837221,0.028877996423971982,0.16597039510626937
1729789169286039300,3.179039306640625,0.5206170082092285,-0.03747767582535744,-0.05183305963873863,0.08691918849945068,0.16634777188301086,-0.9822288155555725,0.029657982289791107,-0.03905892372131348,-0.06617200374603271,0.981658638057225,-0.08964674106487584,0.02913841822007019,0.16571281443351135
1729789169296070400,3.1890703125,0.4640847444534302,-0.08011861145496368,0.013171770609915257,0.08634354919195175,0.16160957515239716,-0.9830702543258667,0.028555162250995636,-0.025058627128601074,-0.1153031587600708,0.9818982963820582,-0.08722807380961785,0.029259747056957882,0.165562274655272
1729789169306100500,3.1991005859375,0.46354711055755615,-0.11312317103147507,0.00693544652312994,0.08541814237833023,0.1569851040840149,-0.9839001297950745,0.04579220712184906,-0.03296160697937012,-0.12399476766586304,0.9821006035580468,-0.0848438493547776,0.029179920053064187,0.16561548404529444
1729789169316131300,3.20913134765625,0.419395387172699,-0.11105363070964813,-0.0499587282538414,0.08433327078819275,0.15274620056152344,-0.9846606254577637,0.010698497295379639,-0.029043152928352356,-0.04802370071411133,0.9823183028784256,-0.08263387723889934,0.02900589966741246,0.16547219982007383
1729789169326162400,3.219162353515625,0.4199812114238739,-0.09848356246948242,-0.027385510504245758,0.08322476595640182,0.14856195449829102,-0.9853948354721069,-0.0029940232634544373,-0.01697009801864624,-0.037279725074768066,0.9825416231453842,-0.08044830596280363,0.028821021122184855,0.16525556903712735
1729789169336193300,3.229193359375,0.31119000911712646,-0.06365447491407394,0.002164926379919052,0.08236794173717499,0.1448824256658554,-0.9860144853591919,-0.007126830518245697,-0.030990779399871826,0.0037757158279418945,0.9827106251400869,-0.07854106011578085,0.02870626504560402,0.1651877349272282
1729789169346223400,3.239223388671875,0.2181566059589386,-0.01875794306397438,0.02418341115117073,0.08207164704799652,0.14243386685848236,-0.9863958954811096,-0.029123619198799133,-0.00945347547531128,0.05867677927017212,0.982800256217713,-0.07729823844065269,0.028758306406727534,0.16523211870291407
1729789169356254500,3.24925439453125,0.2955384850502014,-0.03549138456583023,0.016521230340003967,0.08181200176477432,0.13994470238685608,-0.986773669719696,-0.004068441689014435,0.0054258257150650024,0.021533191204071045,0.982879711430611,-0.0760403067128071,0.028827690454251417,0.16533137647824256
1729789169366285300,3.259285400390625,0.2942810654640198,-0.017007235437631607,-0.03154350072145462,0.08150910586118698,0.136912539601326,-0.9872239828109741,0.02183869481086731,0.0167740136384964,-0.016727983951568604,0.9830096490346172,-0.07450336408498068,0.028935254629300192,0.16523976024637058
1729789169376316700,3.269316650390625,0.24000076949596405,-0.01744505949318409,0.04434673488140106,0.08140092343091965,0.1343095451593399,-0.9875904321670532,0.023426979780197144,0.02001790702342987,-0.06863820552825928,0.9831096247324672,-0.07319835615858843,0.029099660815793543,0.16519915638358348
1729789169386346200,3.27934619140625,0.05472366511821747,-0.03151640295982361,0.10253733396530151,0.08124230057001114,0.13264113664627075,-0.9878289699554443,0.02622538059949875,-0.06115366518497467,-0.06546998023986816,0.9831037371498362,-0.07236702736628345,0.029129753627272242,0.16559447606003247
1729789169396377300,3.28937744140625,-0.1971389353275299,-0.03123357705771923,0.06364426761865616,0.08106153458356857,0.13330167531967163,-0.9877548813819885,-0.017752796411514282,-0.10128869116306305,-0.056007325649261475,0.9830112710349387,-0.0726929587249158,0.028953353713191823,0.1660311578362049
1729789169406408400,3.299408447265625,-0.47742411494255066,-0.04421808570623398,0.10015114396810532,0.08082759380340576,0.13657201826572418,-0.9873272180557251,-0.044969409704208374,-0.1247921884059906,-0.0638507604598999,0.9828279075431012,-0.07431203042407117,0.02853288638681816,0.1664720967623986
1729789169416439600,3.309439453125,-0.804394006729126,-0.08764012157917023,0.15023161470890045,0.08039814978837967,0.1427731066942215,-0.9864846467971802,-0.02174333482980728,-0.16624107956886292,-0.059322237968444824,0.9824867525861297,-0.07738129817706342,0.02774539845236265,0.1672185440365033
1729789169426470400,3.319470458984375,-1.1661323308944702,-0.1809946745634079,0.1875062882900238,0.07933938503265381,0.15238602459430695,-0.9851313233375549,-0.006615974009037018,-0.20997266471385956,-0.05554854869842529,0.9819692758087893,-0.08210329210616651,0.026332095058335364,0.1682318071676082
1729789169436500500,3.32950048828125,-1.67768132686615,-0.3487836718559265,0.2638940215110779,0.07720081508159637,0.1661146879196167,-0.9830798506736755,-0.016058824956417084,-0.2807996869087219,-0.14539915323257446,0.9812088856229427,-0.08879500350908648,0.023990303875677004,0.1696143778747868
1729789169446531600,3.339531494140625,-1.9784302711486816,-0.5701716542243958,0.10230697691440582,0.07290269434452057,0.18417227268218994,-0.9801865816116333,-0.06666182726621628,-0.39613208174705505,-0.21671277284622192,0.9802129853594561,-0.09746648816239097,0.02017383123536033,0.17110182816111696
1729789169456562400,3.3495625,-1.8625448942184448,-0.5800018906593323,-0.46717166900634766,0.06683508306741714,0.20350363850593567,-0.9767903089523315,-0.26260530948638916,-0.3646821975708008,-0.17884927988052368,0.9794136527568662,-0.10659910473978321,0.015539192037829514,0.17071668819310384
1729789169466593500,3.359593505859375,-1.0452306270599365,-0.37793517112731934,-0.8678717017173767,0.0604582317173481,0.2183648943901062,-0.9739925861358643,-0.4769468605518341,-0.09417356550693512,0.019585847854614258,0.9792235090413638,-0.11345830895759389,0.011441803495671268,0.16768302743015387
1729789169476623600,3.36962353515625,-0.1591729074716568,0.06604519486427307,-0.7571907043457031,0.056869909167289734,0.22461582720279694,-0.9727864861488342,-0.48797646164894104,0.18767671287059784,0.29062706232070923,0.9795943572400538,-0.11625197816315162,0.009603838638922807,0.16367109958169881
1729789169486654500,3.379654541015625,0.4738728404045105,0.7371379733085632,-0.24637378752231598,0.05963839963078499,0.2232748121023178,-0.9729294180870056,-0.320334792137146,0.39684242010116577,0.4837784171104431,0.9800940456767804,-0.11577939004469757,0.011420638158649358,0.16087405378735642
1729789169496685600,3.389685546875,0.8156957030296326,1.0657204389572144,0.19374686479568481,0.06871925294399261,0.21671679615974426,-0.9738128781318665,0.03574244678020477,0.4161720275878906,0.38586121797561646,0.9804145516250928,-0.11322628333858255,0.01653408538697188,0.16029289138917632
1729789169506716400,3.39971630859375,0.6976028084754944,0.9079124927520752,0.1783308982849121,0.0791909396648407,0.20892904698848724,-0.9747191667556763,0.4086630940437317,0.26465803384780884,0.28750908374786377,0.9805849385244613,-0.11019074042756065,0.02232530320123451,0.16066335594872488
1729789169516748000,3.409748046875,0.24488914012908936,0.28266724944114685,0.013786961324512959,0.08532558381557465,0.2040639966726303,-0.9752320051193237,0.5637680888175964,0.09613747894763947,0.37257087230682373,0.980706402005975,-0.10826090337468709,0.02576008618271551,0.16072015199002196
1729789169526777900,3.41977783203125,-0.40405455231666565,-0.21280710399150848,0.0601736381649971,0.08536944538354874,0.20477694272994995,-0.9750787019729614,0.5658451914787292,-0.00548185408115387,0.20446407794952393,0.9806491246912951,-0.10862574164785045,0.02571187395697234,0.16083107553396178
1729789169536809000,3.42980908203125,-0.9302281141281128,-0.32608890533447266,0.18341965973377228,0.08286222815513611,0.21126331388950348,-0.9739105105400085,0.4071585536003113,-0.0611625611782074,-0.15173035860061646,0.9802087907936188,-0.11169743922894841,0.023841817968062267,0.16169711230261408
1729789169546840000,3.439840087890625,-1.3165459632873535,-0.33152931928634644,0.11916851252317429,0.0800585076212883,0.22224865853786469,-0.9716975688934326,0.1075788363814354,-0.1591230034828186,-0.2495242953300476,0.9794560287179229,-0.1170153958903404,0.021415247289452773,0.16283294972346635
1729789169556871000,3.449870849609375,-1.4898388385772705,-0.38258984684944153,-0.1077466607093811,0.07663676887750626,0.23603616654872894,-0.9687175750732422,-0.16603797674179077,-0.26312047243118286,-0.1644458770751953,0.9786297366236344,-0.12368513713236112,0.018525671044710774,0.1632258389059656
1729789169566901000,3.45990087890625,-1.2769356966018677,-0.3680422306060791,-0.28800591826438904,0.07227350026369095,0.24967361986637115,-0.9656291604042053,-0.29619622230529785,-0.2646577060222626,-0.11953014135360718,0.9779390748952986,-0.13019734713911763,0.015299822490604374,0.16263354539159283
1729789169576931800,3.469931884765625,-1.227382779121399,-0.021402250975370407,-0.3175283670425415,0.06948154419660568,0.2619714140892029,-0.9625712037086487,-0.3063284456729889,-0.1128166913986206,-0.0008534789085388184,0.9773785849434806,-0.13617462626386959,0.013071912141277835,0.16129705430164754
1729789169586963000,3.479962890625,-0.9415488243103027,0.3364059031009674,-0.14248093962669373,0.07045727223157883,0.2728314995765686,-0.9594783782958984,-0.25554636120796204,0.09507319331169128,0.2030544877052307,0.9767913470417484,-0.14176044923547884,0.012836903548797844,0.1600563503817286
1729789169596994000,3.489994140625,-0.4674541652202606,0.3929069936275482,0.10254879295825958,0.07410340011119843,0.2796410322189331,-0.9572405815124512,-0.09096433967351913,0.20001906156539917,0.18152958154678345,0.9762688679169242,-0.14553279618623752,0.014138678233653694,0.15974783983057456
1729789169607025000,3.50002490234375,-0.008672086521983147,0.29770198464393616,0.13150613009929657,0.07783333212137222,0.28171342611312866,-0.956336498260498,0.09576593339443207,0.20565232634544373,0.09560352563858032,0.9759670905682367,-0.1469124057502944,0.015763614411115068,0.16017638063685707
1729789169617055000,3.510054931640625,0.28427669405937195,0.18711313605308533,-0.0680578351020813,0.08026189357042313,0.2803076207637787,-0.956548810005188,0.16296322643756866,0.1695215404033661,0.09627360105514526,0.9760247455519514,-0.14640147804669315,0.01709362960423421,0.16015646255644927
1729789169627085800,3.5200859375,0.4618869721889496,0.025650903582572937,-0.14514917135238647,0.08097822219133377,0.2767542898654938,-0.9575226306915283,0.16194172203540802,0.1303960382938385,0.10426640510559082,0.9763936864455438,-0.14463749701066642,0.017851515827633162,0.15942618580541168
1729789169637117000,3.530116943359375,0.44641003012657166,-0.17767585813999176,0.039431072771549225,0.08007626235485077,0.27229323983192444,-0.9588765501976013,0.18231388926506042,0.07350149750709534,0.02601522207260132,0.9767885639830615,-0.14228332091558457,0.017809982464779172,0.159130004981333
1729789169647147800,3.540147705078125,0.16575343906879425,-0.32266488671302795,0.1966574341058731,0.07794501632452011,0.2691490650177002,-0.9599392414093018,0.15809321403503418,-0.0035545527935028076,-0.03615444898605347,0.9769311737145034,-0.140517237331321,0.01689028258894997,0.15992248580665042
1729789169657177900,3.550177734375,-0.18284928798675537,-0.3558409512042999,0.15026916563510895,0.07514406740665436,0.269166499376297,-0.9601576924324036,0.04111266881227493,-0.09079119563102722,-0.08645790815353394,0.9767982743904602,-0.14030754147827632,0.015328080219490902,0.16107183057815855
1729789169667209000,3.560208984375,-0.3540710210800171,-0.3175719678401947,-0.07146721333265305,0.07199469208717346,0.2718077600002289,-0.9596548080444336,-0.08645999431610107,-0.1821165382862091,-0.1512155532836914,0.976585857495782,-0.14139040167328734,0.013467106458117295,0.1615778669983648
1729789169677239800,3.57023974609375,-0.4670625627040863,-0.18209350109100342,-0.23766419291496277,0.06911466270685196,0.27585569024086,-0.9587110280990601,-0.18029016256332397,-0.2035594880580902,-0.02006399631500244,0.9764481772376074,-0.14319758370104396,0.011787492692105503,0.16094863290560932
1729789169687271000,3.58027099609375,-0.5221354961395264,-0.10465022176504135,-0.1464487910270691,0.06722940504550934,0.28089773654937744,-0.9573801159858704,-0.14999304711818695,-0.14253097772598267,0.08051854372024536,0.9762499094428276,-0.1455969566366409,0.010558018446255228,0.16008189435560063
1729789169697301800,3.5903017578125,-0.37772423028945923,-0.0894390419125557,-0.013893135823309422,0.06610769778490067,0.2853476405143738,-0.956141471862793,-0.015051767230033875,-0.068886399269104,0.06597423553466797,0.9759772925552075,-0.14776918552757878,0.0096712220096234,0.15980975251923482
1729789169707331800,3.600331787109375,-0.24583031237125397,-0.1289176344871521,0.020216364413499832,0.06512263417243958,0.28820934891700745,-0.955350399017334,0.06654547899961472,-0.01892220973968506,0.18438488245010376,0.9757524640018402,-0.14914820605875048,0.00892211027812778,0.15994525299943635
1729789169717363000,3.610363037109375,-0.11252818256616592,-0.21851623058319092,0.035007294267416,0.06356152147054672,0.29007962346076965,-0.9548894166946411,0.10587210208177567,0.030492335557937622,0.2347813844680786,0.9755887347168062,-0.1499739046480738,0.00794540277554146,0.16022330909959573
1729789169727393800,3.620393798828125,0.11075098067522049,-0.349899023771286,0.007779935374855995,0.06091715767979622,0.2898772358894348,-0.9551231861114502,0.14042258262634277,0.018563956022262573,0.1273338794708252,0.9755911475900405,-0.14964953733722478,0.006589806996763546,0.1605726359590664
1729789169737425000,3.6304248046875,-0.07999607175588608,-0.33806392550468445,-0.011247284710407257,0.057504117488861084,0.28969407081604004,-0.9553903341293335,0.1030031144618988,0.0025423169136047363,0.046485304832458496,0.9756188379477988,-0.1492688064061394,0.004865221746097975,0.16082031329063165
1729789169747455000,3.640455078125,-0.08253579586744308,-0.3174843490123749,-0.0253995880484581,0.05435959994792938,0.2905900478363037,-0.9553022980690002,0.04097733646631241,-0.0011307597160339355,-0.10593122243881226,0.9755669893500791,-0.14946118247685744,0.003194928632949049,0.1609978794525535
1729789169757485800,3.65048583984375,-0.07840443402528763,-0.2556585371494293,-0.09695713222026825,0.05146629735827446,0.29141685366630554,-0.9552106857299805,-0.04606465622782707,-0.039784133434295654,-0.22691822052001953,0.9755577155366293,-0.14963885182013625,0.001695983872641857,0.1609115436458159
1729789169767517000,3.660516845703125,-0.1661437302827835,-0.19969843327999115,-0.18265420198440552,0.04888476803898811,0.2927111089229584,-0.9549505114555359,-0.13213670253753662,-0.0510576069355011,-0.1925562024116516,0.9755742259192786,-0.15008197095312703,0.000377499985066182,0.1604063777107147
1729789169777547800,3.6705478515625,-0.14683687686920166,-0.08292175084352493,-0.20130404829978943,0.046881355345249176,0.2942807078361511,-0.9545685052871704,-0.15993370115756989,-0.03758203983306885,-0.11318051815032959,0.9756189595232251,-0.15071618057590613,-0.0006192203842650519,0.1595369554756991
1729789169787577900,3.680577880859375,-0.1460850089788437,0.041148532181978226,-0.11857986450195312,0.04627040773630142,0.29579877853393555,-0.9541289806365967,-0.11487389355897903,0.01136067509651184,-0.01556706428527832,0.9756356295582089,-0.15144188335971165,-0.0009278811716349504,0.15874391930624085
1729789169797609000,3.69060888671875,-0.029272103682160378,0.043376531451940536,-0.012383123859763145,0.04655763506889343,0.2968038022518158,-0.9538028836250305,-0.025500480085611343,0.08463543653488159,0.03580361604690552,0.9756067551344009,-0.15197995479786086,-0.0008158402179167289,0.15840745170688497
1729789169807639800,3.700639892578125,0.3166481554508209,0.05369286984205246,0.021992426365613937,0.04695985093712807,0.29580745100975037,-0.9540926218032837,0.03699403628706932,0.1286616027355194,-0.02750527858734131,0.9756799453590278,-0.15150381189015577,-0.0005333506731975287,0.15841386393903137
1729789169817671000,3.7106708984375,0.7539109587669373,0.002170559484511614,-0.1769060343503952,0.0470120944082737,0.2899799644947052,-0.9558773636817932,0.03030421957373619,0.11654472351074219,-0.1300906538963318,0.9761940242624834,-0.14853056585741947,0.00002949892498955093,0.15806342789608185
1729789169827702000,3.720701904296875,0.3636011481285095,0.17192906141281128,-0.11402266472578049,0.04732073098421097,0.28465792536735535,-0.9574605226516724,-0.05223403126001358,0.18619781732559204,-0.08624064922332764,0.9767494571877109,-0.14583953021628965,0.0007618627262893387,0.15713308832335293
1729789169837731800,3.73073193359375,0.4482475817203522,0.042142048478126526,0.12385860830545425,0.04853663593530655,0.2809484302997589,-0.9584947228431702,-0.01008446142077446,0.16105294227600098,-0.06378304958343506,0.9770086228972082,-0.14404807710543255,0.001666968362798091,0.1571674990617657
1729789169847763000,3.740762939453125,0.13106703758239746,0.11730220913887024,0.03881002217531204,0.04935743287205696,0.27773621678352356,-0.9593885540962219,0.013661392033100128,-0.028483837842941284,-0.1560746431350708,0.9771749074399594,-0.14247982735835774,0.002282444886670342,0.15755472020150227
1729789169857794000,3.7507939453125,-0.06452110409736633,0.13708895444869995,0.017894886434078217,0.050881367176771164,0.27786511182785034,-0.9592716097831726,-0.06452269852161407,-0.07536569237709045,-0.011385679244995117,0.9771432151073604,-0.14267097083067243,0.0030299050962319754,0.1575655637791375
1729789169867825200,3.7608251953125,-0.045422911643981934,0.07495395839214325,-0.02059471420943737,0.05173558369278908,0.2782011926174164,-0.9591284990310669,-0.016640346497297287,-0.1019010841846466,-0.06252366304397583,0.9771200390596715,-0.1429122119894061,0.00344032334687579,0.15748257538796706
1729789169877854700,3.770854736328125,-0.16754135489463806,0.06324829161167145,0.01815854012966156,0.05248446390032768,0.27928781509399414,-0.9587719440460205,-0.006433412432670593,-0.029623478651046753,0.03193789720535278,0.9770425513300737,-0.143527173987058,0.0037373232570443097,0.1573967338999777
1729789169887886000,3.780885986328125,-0.17196932435035706,0.006966379936784506,0.09533827751874924,0.052959129214286804,0.28097495436668396,-0.9582527875900269,0.011341433972120285,0.056686848402023315,0.07261741161346436,0.9768693015068586,-0.1444270530862316,0.003798841148116487,0.15764770064835512
1729789169897917000,3.7909169921875,-0.18542228639125824,0.010038070380687714,0.19345338642597198,0.05341736227273941,0.282518208026886,-0.9577735066413879,0.010913718491792679,0.0857832133769989,0.03066474199295044,0.9766317281188825,-0.1452544505846969,0.003795158836624753,0.1583580275928724
1729789169907948000,3.800947998046875,-0.22752927243709564,0.012613240629434586,0.26122739911079407,0.054194290190935135,0.2844812273979187,-0.9571486115455627,-0.011713795363903046,0.08760440349578857,0.06353288888931274,0.9762915067695732,-0.14632446183603906,0.003854891956361492,0.15946511481982653
1729789169917979000,3.810978759765625,-0.1581973284482956,0.021225104108452797,0.29881206154823303,0.05516531318426132,0.2861868143081665,-0.9565845131874084,-0.028828617185354233,0.08380836248397827,0.006328165531158447,0.9759218086141592,-0.14728146002385942,0.003990275704068522,0.16083802995560245
1729789169928009000,3.821009033203125,-0.15550093352794647,0.085452139377594,0.32624927163124084,0.056530728936195374,0.2874143719673157,-0.9561366438865662,-0.047161806374788284,0.11860677599906921,-0.03775984048843384,0.9755599138762967,-0.14802985146371722,0.004341743994710119,0.1623303225816569
1729789169938040000,3.8310400390625,-0.06325090676546097,0.0960504561662674,0.381155401468277,0.058571238070726395,0.2885186970233917,-0.9556810855865479,-0.048042651265859604,0.13817808032035828,-0.05939453840255737,0.9751628723746221,-0.14877617581394387,0.005009890868309973,0.164005829693962
1729789169948071000,3.84107080078125,0.19965174794197083,-0.024674369022250175,0.2028125375509262,0.05974459648132324,0.2874245047569275,-0.9559381604194641,-0.0035922229290008545,0.026540398597717285,-0.2676793932914734,0.9749776780008346,-0.14832765773285517,0.005461925000957549,0.16549201762886548
1729789169958102000,3.85110205078125,-0.07143140584230423,-0.01128665916621685,0.018444564193487167,0.059898700565099716,0.286592572927475,-0.9561782479286194,-0.004753414541482925,-0.06578260660171509,-0.28394925594329834,0.9749553318622641,-0.1479196815908615,0.005535381387775052,0.16598603161313066
1729789169968132000,3.861132080078125,-0.3518317639827728,-0.2071307897567749,-0.009369490668177605,0.05892311781644821,0.2886744737625122,-0.9556124210357666,0.03894677758216858,-0.09339249134063721,-0.10827606916427612,0.9747985736610266,-0.14889652146197296,0.004859085421316208,0.1660544440710656
1729789169978163000,3.871162841796875,-0.713192343711853,-0.33551621437072754,0.034251756966114044,0.05626601725816727,0.2937508225440979,-0.9542245864868164,0.08992846310138702,-0.10902789235115051,-0.011732995510101318,0.9743972677848398,-0.15125597556994738,0.003054330349576049,0.16631989197447022
1729789169988194000,3.881194091796875,-0.7885884642601013,-0.3623642921447754,0.026722468435764313,0.05301260948181152,0.3011569380760193,-0.9520998597145081,0.06333567202091217,-0.0830325186252594,0.08160126209259033,0.9737736274542886,-0.1547564355791114,0.0007151326818892154,0.16677773447897468
1729789169998225000,3.891224853515625,-0.5471766591072083,-0.21013057231903076,-0.03785919025540352,0.050153445452451706,0.3076668381690979,-0.9501714110374451,-0.014295268803834915,-0.052783966064453125,0.09703731536865234,0.9732414706917935,-0.15783710725199634,-0.0013162349427959634,0.16699329098090424
1729789170008256000,3.901256103515625,-0.1198558658361435,-0.04415278509259224,-0.05092279240489006,0.048851847648620605,0.31099626421928406,-0.949154794216156,-0.07593617588281631,0.00971299409866333,0.13526630401611328,0.9730099535099604,-0.15942906922201316,-0.002230313431399314,0.16682052546141052
1729789170018286000,3.9112861328125,0.20296187698841095,0.034343622624874115,0.07208089530467987,0.048834990710020065,0.3103901445865631,-0.9493540525436401,-0.07849805057048798,0.05681264400482178,0.15894877910614014,0.9730574602768772,-0.15911689721049885,-0.0021888492157537613,0.16684193737802056
1729789170028317000,3.92131689453125,0.49432772397994995,0.02593868598341942,0.16402572393417358,0.04961491748690605,0.30713242292404175,-0.950372576713562,-0.01392458751797676,0.06605181097984314,0.04578584432601929,0.9732149169829839,-0.15751542217110495,-0.0016115091460374416,0.1674490176337924
1729789170038348000,3.93134814453125,0.6252111792564392,0.028434336185455322,0.06961560994386673,0.050220880657434464,0.3014349341392517,-0.9521632790565491,0.028209328651428223,0.013567566871643066,-0.06250041723251343,0.9735738646947456,-0.1546530451979493,-0.0009004023570390756,0.16803450311526832
1729789170048379000,3.94137890625,0.3667752146720886,-0.013937197625637054,0.020893074572086334,0.05051414296030998,0.29662975668907166,-0.9536556601524353,0.02652750536799431,-0.014128506183624268,-0.025149822235107422,0.9739261333999861,-0.1522236594476611,-0.0003583501840621934,0.1682135205117523
1729789170058409000,3.951408935546875,0.2548833191394806,-0.14799779653549194,0.005900808610022068,0.04968405142426491,0.2936713397502899,-0.9546144008636475,0.06065227836370468,-0.02853456139564514,-0.12694382667541504,0.9741479947331461,-0.15064035252962737,-0.0005326280228611119,0.16835384992539748
1729789170068440000,3.961440185546875,-0.02208656258881092,-0.13103856146335602,0.036879763007164,0.0483248308300972,0.29244881868362427,-0.9550593495368958,0.02856423333287239,-0.04855227470397949,-0.17535746097564697,0.9742285424457859,-0.149896737723213,-0.0011316012483569581,0.1685483945651199
1729789170078471000,3.971470947265625,-0.22060684859752655,-0.015548995696008205,0.06999164819717407,0.04780677706003189,0.29382625222206116,-0.954662561416626,-0.0195169560611248,-0.02196037769317627,-0.16246384382247925,0.9740689017260757,-0.1505531983039447,-0.001562889586001432,0.16888217426855656
1729789170088502000,3.981501953125,-0.16400715708732605,0.06301569938659668,0.025887299329042435,0.04818861559033394,0.2957232594490051,-0.9540574550628662,-0.06471385806798935,-0.03124260902404785,-0.12090897560119629,0.9738735030216787,-0.15155457642639192,-0.0015767077742959784,0.16911281668521677
1729789170098531800,3.99153173828125,-0.05338636413216591,0.17089182138442993,-0.033985089510679245,0.04928212612867355,0.296775758266449,-0.9536746740341187,-0.10264208912849426,-0.04775229096412659,0.09028661251068115,0.9737978521872745,-0.15218881354032054,-0.001105115393151633,0.1689823443935796
1729789170108563000,4.00156298828125,0.2156134843826294,0.10060152411460876,0.02248351275920868,0.05076749995350838,0.29621368646621704,-0.9537715315818787,-0.09132533520460129,-0.0011849403381347656,0.25253862142562866,0.9738502538773702,-0.15203340362862774,-0.0002906666533079729,0.1688235337396898
1729789170118594000,4.011593994140625,0.46734052896499634,-0.13031317293643951,0.015080192126333714,0.0506756566464901,0.2927004396915436,-0.9548604488372803,-0.0030224286019802094,0.03826272487640381,0.22050070762634277,0.9741104122107553,-0.1502324479208258,-0.000042812453066743135,0.16893508789174932
1729789170128625000,4.021625,0.4425777792930603,-0.1565907597541809,0.013305994682013988,0.04917566478252411,0.28818854689598083,-0.9563101530075073,0.08635292202234268,0.09453240036964417,0.0409507155418396,0.9744522375008398,-0.1477996849203313,-0.00041714293702731155,0.16910941847970876
1729789170138656000,4.031656005859375,0.37764832377433777,-0.08526277542114258,0.07151683419942856,0.04817653447389603,0.2844107151031494,-0.9574912786483765,0.14132238924503326,0.09008580446243286,-0.12251049280166626,0.974701500571693,-0.14578737255349683,-0.0006267507937110123,0.16941907479981622
1729789170148685800,4.041685791015625,0.3388168513774872,0.0005979631096124649,-0.07220464199781418,0.04772161319851875,0.2807110846042633,-0.9586052298545837,0.06743649393320084,-0.05163082480430603,-0.12936168909072876,0.9749672419497772,-0.14386488598296662,-0.0005426273698489351,0.16953303604672176
1729789170158717000,4.051717041015625,-0.051670219749212265,0.15897028148174286,-0.22689782083034515,0.04804718866944313,0.27932700514793396,-0.958993136882782,-0.10293301939964294,-0.11569169163703918,-0.04831576347351074,0.9752190955460819,-0.14319008516624698,-0.00012925080161574107,0.16865442626805413
1729789170168747800,4.061747802734375,-0.34785786271095276,0.1813519150018692,-0.11037413775920868,0.04924767464399338,0.2815115451812744,-0.9582932591438293,-0.1375807821750641,-0.09266871213912964,0.046855270862579346,0.9752155943503851,-0.1444063732884079,0.0004269953178327879,0.16763405227925757
1729789170178779000,4.07177880859375,-0.4257822334766388,0.09726900607347488,-0.05138272047042847,0.05044406279921532,0.28540217876434326,-0.9570794105529785,-0.030073553323745728,-0.12429982423782349,0.043764591217041016,0.9749759675348337,-0.14649143001638068,0.0007447374436731261,0.1672174975724875
1729789170188809000,4.08180908203125,-0.38151079416275024,0.0032975561916828156,-0.23543964326381683,0.050576310604810715,0.2893253564834595,-0.9558937549591064,0.0006169527769088745,-0.1167789101600647,0.057914018630981445,0.9747926325203257,-0.14850181709431515,0.0005753356974648176,0.16651192282443755
1729789170198839800,4.09183984375,-0.3616337478160858,-0.12777045369148254,-0.3294260501861572,0.049141258001327515,0.2930772602558136,-0.9548250436782837,-0.025230705738067627,-0.017656058073043823,0.11527121067047119,0.9747607180515289,-0.15029111346193563,-0.0002468815417887283,0.1650881283763802
1729789170208871000,4.101870849609375,-0.10417510569095612,-0.21001355350017548,-0.2174912691116333,0.04660792648792267,0.29562386870384216,-0.9541667699813843,0.029518194496631622,0.07572931051254272,0.06888234615325928,0.9747948808021861,-0.15137447270012439,-0.0015430046791723823,0.16388547391221545
1729789170218901800,4.11190185546875,0.12208519876003265,-0.09891019761562347,-0.1904338300228119,0.04447019100189209,0.2954718768596649,-0.9543158411979675,0.0579315684735775,0.08087092638015747,-0.1067192554473877,0.9749718717270259,-0.15111579004293904,-0.002467225975671938,0.16305755939808464
1729789170228931800,4.121931884765625,0.1385139673948288,-0.01942805014550686,-0.2502979338169098,0.04335140064358711,0.29429253935813904,-0.9547316431999207,-0.013703543692827225,0.05649179220199585,-0.10007786750793457,0.9752496826989553,-0.15042113558485054,-0.0027655854067384672,0.1620306599529194
