time,seconds_elapsed,rotationRateX,rotationRateY,rotationRateZ,gravityX,gravityY,gravityZ,accelerationX,accelerationY,accelerationZ,quaternionW,quaternionX,quaternionY,quaternionZ
1728063783068022300,0.083022216796875,-0.07963526248931885,-0.1376570165157318,0.04760747030377388,-0.002452945103868842,-0.39384597539901733,-0.9191731810569763,0.026470275595784187,0.02246221899986267,-0.035218238830566406,0.9795850691656381,0.20102693332139282,-0.001252032725907346,1.281195566237253e-17
1728063783078053000,0.09305322265625,-0.07422984391450882,-0.15037205815315247,0.05814160406589508,-0.00279535842128098,-0.39279332756996155,-0.919622540473938,0.027300968766212463,0.017839014530181885,-0.03547084331512451,0.9796996285094842,0.2004661825351568,-0.0014292499543878889,-0.000012752583558580084
1728063783088083200,0.103083251953125,-0.0709376409649849,-0.13166680932044983,0.0628732442855835,-0.002790772821754217,-0.3923560082912445,-0.9198092222213745,0.003355344058945775,0.006308555603027344,-0.028677046298980713,0.9797473858067774,0.20023323272238172,-0.0014259847109755397,-0.000008582162086034592
1728063783098114300,0.1131142578125,-0.04640966281294823,-0.12617547810077667,0.06555850803852081,-0.003133036894723773,-0.3921080529689789,-0.9199138283729553,-0.011362813413143158,0.006838798522949219,-0.019920706748962402,0.979773921564948,0.2001013968508241,-0.0015846156050582263,0.00006973174494586354
1728063783108144400,0.123144287109375,-0.025647392496466637,-0.16139765083789825,0.0584995299577713,-0.004822237882763147,-0.3922751545906067,-0.9198352694511414,-0.006911773234605789,0.008989542722702026,-0.013666868209838867,0.9797538963897794,0.20019124886291345,-0.0024115625991007446,0.0002416737868463193
1728063783118175200,0.13317529296875,-0.021987611427903175,-0.19931547343730927,0.02154417894780636,-0.008085710927844048,-0.3927728831768036,-0.9195999503135681,0.006926044821739197,0.004970669746398926,-0.006532192230224609,0.9796938076733707,0.20045862740629347,-0.004043982770508102,0.00040402738401505733
1728063783128205300,0.143205322265625,-0.03055713139474392,-0.18566064536571503,-0.022780409082770348,-0.011692166328430176,-0.3926068842411041,-0.919632077217102,-0.010265234857797623,-0.01094236969947815,0.003036677837371826,0.9797020064101651,0.20037285588681986,-0.0058892687709571805,0.0003810635748407832
1728063783138236200,0.153236083984375,-0.06051955744624138,-0.15687555074691772,-0.029327258467674255,-0.012922452762722969,-0.39122211933135986,-0.9202055931091309,-0.03973563015460968,-0.0208263099193573,0.000009059906005859375,0.97984844526563,0.1996343117862145,-0.00658428169259492,0.00004822944259883932
1728063783148267300,0.163267333984375,-0.06606186181306839,-0.1096489205956459,-0.04188672825694084,-0.01272499281913042,-0.3896375000476837,-0.9208803772926331,-0.048874739557504654,-0.01026490330696106,-0.002200007438659668,0.9800205603290415,0.1987878476840269,-0.0065718022848690934,-0.0003924035286891798
1728063783158297300,0.17329736328125,-0.05476659536361694,-0.07927493005990982,-0.05721322074532509,-0.01232475321739912,-0.388399600982666,-0.9214086532592773,-0.053852614015340805,-0.0048805177211761475,-0.013817787170410156,0.9801549142246175,0.19812620082872928,-0.0064572508400451735,-0.0008415324871015353
1728063783168328200,0.183328125,-0.03195848688483238,-0.08375862240791321,-0.038780417293310165,-0.012490909546613693,-0.38768139481544495,-0.9217088222503662,-0.039251647889614105,-0.001707702875137329,-0.015592813491821289,0.9802311730630414,0.19774185620547505,-0.006614496593397232,-0.0012050112635666338
1728063783178358000,0.19335791015625,-0.023845499381422997,-0.10793747007846832,-0.015412773936986923,-0.013325650244951248,-0.38719406723976135,-0.9219019412994385,-0.00582413375377655,0.004350990056991577,-0.011066138744354248,0.9802800803932246,0.19748125231255698,-0.0070838225553645105,-0.001424464091893103
1728063783188389400,0.203389404296875,-0.02879178710281849,-0.1123868077993393,0.006816897075623274,-0.014284651726484299,-0.3867446482181549,-0.9220762252807617,0.006182231940329075,-0.0007066130638122559,-0.004849433898925781,0.9803243259758316,0.19724134957028547,-0.007598986800421936,-0.001557206592047565
1728063783198419200,0.213419189453125,-0.07350759953260422,-0.09093478322029114,0.02113511599600315,-0.014884866774082184,-0.3862840533256531,-0.9222597479820251,-0.00891884509474039,-0.012412935495376587,0.003375530242919922,0.9803709367830792,0.1969958440916213,-0.007921968450862444,-0.0016448779862393143
1728063783208450000,0.223449951171875,-0.10341037064790726,-0.06023864820599556,0.03899054601788521,-0.015886425971984863,-0.3859441578388214,-0.9223853349685669,-0.027326470240950584,-0.018810570240020752,0.01200026273727417,0.9804031171215964,0.19681593011665563,-0.00841512866778317,-0.0015598584019928252
1728063783218480000,0.233480224609375,-0.09294867515563965,-0.04947218298912048,0.053957775235176086,-0.01756630279123783,-0.38566628098487854,-0.9224711060523987,-0.026745224371552467,-0.014846473932266235,0.006043553352355957,0.9804254359908077,0.1966710556665001,-0.009216264200124594,-0.0012849280732011694
1728063783228511000,0.243510986328125,-0.10479121655225754,-0.07507555186748505,0.04319727420806885,-0.019805939868092537,-0.38516131043434143,-0.9226366877555847,-0.01756284013390541,-0.014298617839813232,-0.002198457717895508,0.9804680406175225,0.1964070100121506,-0.010292165307460688,-0.0009580569225015187
1728063783238542000,0.2535419921875,-0.09905017167329788,-0.06623081117868423,0.037830471992492676,-0.022731732577085495,-0.38430988788604736,-0.922924280166626,-0.019077355042099953,-0.012754380702972412,0.0056726932525634766,0.9805416748063549,0.1959605185332484,-0.01171920114867062,-0.0006394103634473194
1728063783248572200,0.263572265625,-0.08962950855493546,-0.038737937808036804,0.02978373132646084,-0.024648580700159073,-0.38340696692466736,-0.9232505559921265,-0.021570296958088875,-0.010208815336227417,-0.010785698890686035,0.9806249835221478,0.19548596759751993,-0.012647625172447803,-0.00040047105979481196
1728063783258603000,0.27360302734375,-0.07713162899017334,0.0007813470438122749,0.020262932404875755,-0.024644695222377777,-0.38248124718666077,-0.9236345291137695,-0.028272785246372223,-0.011744886636734009,-0.013010919094085693,0.9807228302452775,0.19499547959535338,-0.012629163632880571,-0.00032494030613415065
1728063783268633000,0.283633056640625,-0.06609069555997849,0.02257372811436653,0.017116406932473183,-0.023857444524765015,-0.381977379322052,-0.9238637089729309,-0.034873634576797485,-0.012309819459915161,-0.006800353527069092,0.9807812596168991,0.1947274579732811,-0.012221614812299896,-0.0002978952805377116
1728063783278664200,0.293664306640625,-0.0584251806139946,0.013436795212328434,0.011374099180102348,-0.023716533556580544,-0.3820767402648926,-0.9238262176513672,-0.020579734817147255,-0.001636117696762085,-0.004899919033050537,0.980771826783631,0.19478108143731698,-0.012132903931624401,-0.000212258292634653
1728063783288694000,0.303694091796875,-0.0701950192451477,0.003441951470449567,0.009692313149571419,-0.02450299635529518,-0.38251760601997375,-0.923623263835907,-0.003237485885620117,0.0058695971965789795,-0.0028293728828430176,0.9807200938034123,0.19501765984492897,-0.012509357725167836,-0.00008553120929884017
1728063783298725000,0.31372509765625,-0.10069546848535538,-0.0020969444885849953,0.01084652729332447,-0.025341760367155075,-0.38245517015457153,-0.9236264824867249,0.004757653921842575,0.01073572039604187,-0.0034365057945251465,0.9807209019170938,0.19498705921974524,-0.012915302448565081,0.00002345321268096261
1728063783308755200,0.323755126953125,-0.1435433328151703,0.00012679491192102432,0.0018807281740009785,-0.025827741250395775,-0.38191282749176025,-0.923837423324585,0.0017798859626054764,0.0065770745277404785,0.001153707504272461,0.9807746713961853,0.1947006783598569,-0.013150758730328617,0.00008186737523035218
1728063783318786000,0.3337861328125,-0.19203804433345795,-0.004830519203096628,-0.009928260929882526,-0.026458704844117165,-0.3809783458709717,-0.9242053031921387,-0.005126995965838432,-0.0037110745906829834,0.004619181156158447,0.980868437839003,0.1942059708601158,-0.013467729047046895,0.00009928445122650491
1728063783328816000,0.343816162109375,-0.19395045936107635,-0.012841839343309402,-0.003552386537194252,-0.02727842703461647,-0.3794499635696411,-0.9248100519180298,0.0006518382579088211,-0.00633808970451355,0.0042778849601745605,0.9810225828610553,0.19339666541281314,-0.013881555942760193,0.00010906902834068278
1728063783338847200,0.35384716796875,-0.19331595301628113,-0.021021578460931778,-0.008029692806303501,-0.028339391574263573,-0.3780120611190796,-0.9253668189048767,0.007556915283203125,-0.00005504488945007324,0.0010504722595214844,0.9811644349336153,0.19263647141018134,-0.014414173531074386,0.00014027362169817775
1728063783348878000,0.363878173828125,-0.20943394303321838,-0.03843013197183609,-0.019053848460316658,-0.029637949541211128,-0.37659314274787903,-0.9259045720100403,0.00865710899233818,0.009573400020599365,0.011781036853790283,0.981301421931861,0.19188653747222814,-0.015075863106701745,0.00013032928414522093
1728063783358908200,0.373908203125,-0.17380917072296143,-0.07649410516023636,0.0004910905845463276,-0.030640309676527977,-0.37497222423553467,-0.926529586315155,0.02060001902282238,0.019060879945755005,0.01744145154953003,0.9814606303561372,0.1910283545320362,-0.015600878158201442,0.00004453091238766813
1728063783368939300,0.383939208984375,-0.12780411541461945,-0.07235715538263321,0.023434489965438843,-0.031271591782569885,-0.3736577033996582,-0.927039384841919,0.024710308760404587,0.018555104732513428,0.01233607530593872,0.9815904739449909,0.19033304713234417,-0.015925866940985276,0.000016372889857482037
1728063783378969000,0.393968994140625,-0.10916539281606674,-0.0651198998093605,0.016944367438554764,-0.031601279973983765,-0.37252289056777954,-0.9274848103523254,0.018814411014318466,0.018549412488937378,0.012003302574157715,0.9817039585626663,0.18973285144748206,-0.01609453389420802,0.000003017007185610677
1728063783389000200,0.404000244140625,-0.10869907587766647,-0.06918548047542572,0.03558462858200073,-0.03204109147191048,-0.3716675639152527,-0.9278128147125244,0.015485301613807678,0.02085268497467041,0.013674020767211914,0.9817874324186228,0.1892815220920189,-0.016312604304560344,0.00002660722684569605
1728063783399030300,0.4140302734375,-0.1164003312587738,-0.07725651562213898,0.05362062156200409,-0.032871589064598083,-0.3711234927177429,-0.9280015230178833,0.031788211315870285,0.026732593774795532,0.017112910747528076,0.9818354753952141,0.18899748925896634,-0.016708889138608712,0.0001609219087086052
1728063783409061000,0.42406103515625,-0.1530856341123581,-0.07240530103445053,0.051425110548734665,-0.03353524208068848,-0.3704131245613098,-0.9282615780830383,0.03588509187102318,0.02916550636291504,0.017922282218933105,0.9819017022509015,0.18862591179269478,-0.017014113617520553,0.0003256881865444348
1728063783419091200,0.43409130859375,-0.18666385114192963,-0.08674253523349762,0.06334435194730759,-0.03407001867890358,-0.36909377574920654,-0.9287675023078918,0.03184223175048828,0.02603033185005188,0.020564377307891846,0.9820303673927205,0.18793180707530963,-0.01725959543043755,0.0004552872685957505
1728063783429122300,0.444122314453125,-0.2467237263917923,-0.16217151284217834,0.06617210060358047,-0.03527440130710602,-0.3672228455543518,-0.9294638633728027,0.05364597961306572,0.02400684356689453,0.01942974328994751,0.982207536495078,0.18695023392170113,-0.01782320182393094,0.0007013512325151544
1728063783439153200,0.454153076171875,-0.31021848320961,-0.13663995265960693,-0.0016732602380216122,-0.036292921751737595,-0.36453506350517273,-0.9304821491241455,0.0657576397061348,0.023836761713027954,0.029694795608520508,0.9824667495199341,0.18553166343206495,-0.018355564993728007,0.0006076014864794301
1728063783449183200,0.464183349609375,-0.29941803216934204,-0.07976068556308746,-0.006763093639165163,-0.03673683851957321,-0.36167123913764954,-0.9315816164016724,0.023339617997407913,0.04482239484786987,0.012209117412567139,0.9827465956749317,0.1840179098518671,-0.01861691050134862,0.0003951461547071773
1728063783459214300,0.47421435546875,-0.3362814784049988,-0.025137227028608322,-0.018473278731107712,-0.036719128489494324,-0.3587469160556793,-0.9327123761177063,0.033240124583244324,0.048871368169784546,-0.013378262519836426,0.9830341958001189,0.1824731881240168,-0.01863728477795053,0.00021085689806031626
1728063783469244200,0.484244140625,-0.4242803156375885,-0.005787233356386423,-0.057857170701026917,-0.03638758882880211,-0.355262815952301,-0.9340579509735107,0.04181971028447151,0.04067230224609375,0.0026767849922180176,0.9833764713889833,0.1806334935095822,-0.018508142562631728,-0.00003696810957651561
1728063783479275300,0.494275146484375,-0.5070738792419434,-0.06878382712602615,-0.095339834690094,-0.03585664927959442,-0.3509069085121155,-0.935723602771759,0.05947725102305412,0.02970936894416809,0.01593911647796631,0.9837995474213206,0.1783321959677725,-0.018325709989758084,-0.0005635528962583363
1728063783489305300,0.504305419921875,-0.54124915599823,-0.14538060128688812,-0.04505801945924759,-0.036154188215732574,-0.34603482484817505,-0.9375247955322266,0.08861389756202698,0.014308691024780273,0.020837843418121338,0.9842567404052817,0.17576403085054623,-0.01856331254135811,-0.0011035942567416412
1728063783499336200,0.514336181640625,-0.6551110148429871,-0.16956119239330292,-0.06980517506599426,-0.03747107833623886,-0.3404087424278259,-0.939530611038208,0.09681250900030136,-0.010802865028381348,0.017640411853790283,0.9847654304268556,0.17280690961262382,-0.01929912273116885,-0.0015599441343691846
1728063783509366300,0.5243662109375,-0.6246420741081238,-0.048856087028980255,-0.2168193906545639,-0.038280144333839417,-0.334327757358551,-0.9416791200637817,0.06063426285982132,-0.028984099626541138,0.040846049785614014,0.9853092536292134,0.1696093772585126,-0.01982643787966721,-0.0023294765177430256
1728063783519397400,0.5343974609375,-0.2539345324039459,-0.17160890996456146,-0.8148700594902039,-0.036090947687625885,-0.331084668636322,-0.9429106116294861,0.006244756281375885,-0.06401121616363525,0.002572476863861084,0.98560946184655,0.1678535014287585,-0.019232830118306402,-0.00542488107797742
1728063783529428200,0.54442822265625,-0.5736571550369263,-0.3846096098423004,-0.44882866740226746,-0.03691477328538895,-0.3273167908191681,-0.9441933035850525,0.03792184591293335,-0.10655167698860168,0.014795780181884766,0.9859082089335071,0.16581184007034433,-0.020242817016358317,-0.00904744376263604
1728063783539458300,0.554458251953125,-0.6291518807411194,-0.3915383517742157,0.16065093874931335,-0.04025433957576752,-0.32151269912719727,-0.9460492730140686,0.20424054563045502,0.04838031530380249,0.1088300347328186,0.9863685366255883,0.16275198855848974,-0.02207174025953317,-0.010099418274736387
1728063783549489200,0.5644892578125,-0.6860811710357666,0.06829210370779037,0.9459500312805176,-0.04394755885004997,-0.31528663635253906,-0.9479783773422241,0.17798075079917908,0.0929202139377594,-0.005970597267150879,0.9868771688694435,0.1595504169532116,-0.02354746018002105,-0.00792646890869773
1728063783559519200,0.574519287109375,-0.7151376008987427,-0.06002889946103096,1.5734142065048218,-0.04779724404215813,-0.30781450867652893,-0.9502450823783875,0.25022032856941223,0.11471444368362427,-0.02024441957473755,0.9874819679945995,0.15582208551430257,-0.024432485996607252,-0.0014633130449540248
1728063783569550300,0.58455029296875,-0.6813120245933533,-0.21339619159698486,1.1360728740692139,-0.05330776423215866,-0.30048373341560364,-0.9522960782051086,0.31687283515930176,0.09987640380859375,-0.007969975471496582,0.9879877075085786,0.1522101484691128,-0.026153959959398246,0.005348467023854141
1728063783579580400,0.594580322265625,-0.7113133072853088,-0.35473036766052246,0.40204915404319763,-0.05831971392035484,-0.2934075891971588,-0.9542068839073181,0.033630989491939545,0.011669278144836426,-0.02252340316772461,0.9884466507083773,0.1486683275397989,-0.02818299211274349,0.008760929404672572
1728063783589611300,0.604611328125,-0.760458767414093,-0.36519044637680054,0.24187496304512024,-0.06267087161540985,-0.28620368242263794,-0.9561170339584351,-0.04038700461387634,-0.032537221908569336,-0.055601656436920166,0.9889200105540632,0.1450046477410022,-0.030251055914552724,0.009789756045419963
1728063783599641000,0.61464111328125,-0.8198654055595398,-0.33457961678504944,0.5430041551589966,-0.06712830811738968,-0.2783348262310028,-0.9581354260444641,0.10112488269805908,-0.0034645795822143555,-0.09775745868682861,0.9894138312578801,0.14102592237175005,-0.032310506414156,0.011314888482633314
1728063783609672200,0.624672119140625,-0.8215186595916748,-0.34349799156188965,0.7720003128051758,-0.07221323251724243,-0.2698816657066345,-0.9601818323135376,0.20638374984264374,0.061263442039489746,-0.1188739538192749,0.989892189102758,0.13681701675915858,-0.034499166019037394,0.014297635401929305
1728063783619703300,0.634703369140625,-0.7260463833808899,-0.403494656085968,0.6761736869812012,-0.07778226584196091,-0.2618075907230377,-0.9619806408882141,0.17855128645896912,0.10136133432388306,-0.1334783434867859,0.9902929404047699,0.13284343382185795,-0.03690950662913654,0.01761403761581291
1728063783629733000,0.644733154296875,-0.6329132318496704,-0.41395556926727295,0.44729095697402954,-0.0832480639219284,-0.2548365294933319,-0.963394045829773,0.09170142561197281,0.09176582098007202,-0.15499883890151978,0.9906050632491236,0.12942112009835213,-0.039409974364074105,0.01996822487699464
1728063783639764200,0.65476416015625,-0.6769788861274719,-0.24210692942142487,1.1586180925369263,-0.08744196593761444,-0.24795123934745789,-0.9648181796073914,0.08304741978645325,0.06678356230258942,-0.16688042879104614,0.990882853169358,0.12609843398159193,-0.04111084827377136,0.023671573051006985
1728063783649794000,0.6647939453125,-0.6960409879684448,-0.37222951650619507,1.4083770513534546,-0.09448394179344177,-0.24016010761260986,-0.9661241769790649,0.3733993172645569,0.09314161539077759,-0.14521920680999756,0.9910522982225322,0.12247962796307582,-0.0440074270901355,0.029623762307679168
1728063783659825200,0.6748251953125,-0.8513655662536621,-0.5117507576942444,1.7437859773635864,-0.10207861661911011,-0.23116198182106018,-0.9675453901290894,0.2907230257987976,0.0185764878988266,-0.11501985788345337,0.9911571031019293,0.11837617850713608,-0.04705719573621735,0.0371547378733056
1728063783669855200,0.684855224609375,-0.9995228052139282,-1.166377067565918,1.2068750858306885,-0.11369321495294571,-0.22038549184799194,-0.9687642455101013,0.4692229628562927,0.001879572868347168,-0.12535196542739868,0.9911882712637552,0.11349041889866711,-0.05232415140952303,0.04391139822406581
1728063783679886000,0.694885986328125,-1.0904755592346191,-1.3391660451889038,0.8638684749603271,-0.12825672328472137,-0.20903439819812775,-0.9694611430168152,0.2863682806491852,-0.04691658914089203,-0.060369789600372314,0.9911787441727878,0.10832172948041183,-0.05946297474293184,0.04791216399521919
1728063783689917200,0.704917236328125,-1.1520816087722778,-1.2694872617721558,0.8457586765289307,-0.14270780980587006,-0.1968812495470047,-0.9699857234954834,0.12287136912345886,-0.05986317992210388,-0.1112978458404541,0.9911559870652294,0.10275238473689327,-0.06670153718954351,0.051018550663012086
1728063783699947000,0.714947021484375,-1.1045647859573364,-1.1232924461364746,1.0976141691207886,-0.1561558097600937,-0.18438661098480225,-0.9703695178031921,0.1327335387468338,-0.04499882459640503,-0.12820225954055786,0.9910509814739944,0.09708518655811216,-0.07341470387521651,0.05479919610143392
1728063783709978000,0.72497802734375,-0.9759569764137268,-1.0405964851379395,1.3428093194961548,-0.16885943710803986,-0.17219595611095428,-0.9704818725585938,0.15564529597759247,-0.009429454803466797,-0.12831878662109375,0.9907770044158106,0.09172481898331449,-0.0796594347135436,0.06001624225603083
1728063783720008200,0.73500830078125,-0.8182872533798218,-0.9807932376861572,1.403188943862915,-0.18096403777599335,-0.16100579500198364,-0.970221221446991,0.14052821695804596,0.03664661943912506,-0.12300997972488403,0.9903257906773427,0.08699783459398075,-0.08556156068754116,0.0660728828420903
1728063783730039000,0.7450390625,-0.624683678150177,-0.9564194679260254,1.3895496129989624,-0.19257448613643646,-0.15133492648601532,-0.9695425629615784,0.12381835281848907,0.057111844420433044,-0.11940085887908936,0.9897196810331371,0.08311632960856408,-0.09121614040564158,0.07229429913038131
1728063783740069000,0.755069091796875,-0.5052469372749329,-0.9175267815589905,1.3745826482772827,-0.20370663702487946,-0.14316149055957794,-0.9685083627700806,0.14062675833702087,0.04159894585609436,-0.12655389308929443,0.9889842996352087,0.0800495726222562,-0.09663277989827927,0.07851401100391876
1728063783750100200,0.765100341796875,-0.44779449701309204,-0.9456316232681274,1.3851457834243774,-0.21461018919944763,-0.13562989234924316,-0.9672368168830872,0.15258316695690155,0.012857630848884583,-0.09880322217941284,0.9881479655110892,0.07737253288177011,-0.10195634039732338,0.08474767902384765
1728063783760130000,0.775130126953125,-0.45518413186073303,-0.9857737421989441,1.383089542388916,-0.2258264124393463,-0.12825579941272736,-0.9656878113746643,0.15349970757961273,-0.021692365407943726,-0.0709485411643982,0.9871990524382338,0.07486718877637018,-0.10747563998079492,0.09100588704598646
1728063783770161200,0.7851611328125,-0.528150737285614,-1.0054004192352295,1.391010046005249,-0.23717232048511505,-0.12025299668312073,-0.9639961123466492,0.13492313027381897,-0.039643898606300354,-0.05304795503616333,0.9861784044962623,0.07212188674502058,-0.11313873695055157,0.09721293517717922
1728063783780192300,0.795192138671875,-0.5378424525260925,-1.0315512418746948,1.4271355867385864,-0.24865293502807617,-0.11163566261529922,-0.9621378183364868,0.11745783686637878,-0.05650096386671066,-0.03496295213699341,0.985066263332198,0.06916217609951754,-0.11894400404404902,0.10350663523546345
1728063783790222000,0.80522216796875,-0.5740785002708435,-1.0369012355804443,1.4512670040130615,-0.2601676285266876,-0.10260698199272156,-0.9600961804389954,0.10742709040641785,-0.07645495235919952,-0.05856531858444214,0.9838514447035946,0.06609374770567861,-0.12483405457974145,0.1099294529988548
1728063783800253200,0.815253173828125,-0.5873144268989563,-1.0433038473129272,1.4744317531585693,-0.27155447006225586,-0.09305642545223236,-0.9579136967658997,0.08899825811386108,-0.07060938328504562,-0.06250250339508057,0.9825485365681655,0.06284697801701973,-0.13074171653717476,0.11642798332412224
1728063783810283300,0.825283203125,-0.5448910593986511,-1.04767644405365,1.495750069618225,-0.28288355469703674,-0.0834835097193718,-0.9555141925811768,0.08274921774864197,-0.04661296308040619,-0.06809109449386597,0.9811293070555475,0.059686812220636015,-0.13667617250254382,0.12305528038474164
1728063783820314000,0.835314208984375,-0.4762922525405884,-1.0579169988632202,1.4928935766220093,-0.2941133975982666,-0.07420653849840164,-0.9528854489326477,0.07989519834518433,-0.013256877660751343,-0.06841576099395752,0.9795971604157604,0.056762526168328414,-0.14260182046573036,0.1297398663445648
1728063783830344200,0.84534423828125,-0.36555615067481995,-1.0503240823745728,1.4862858057022095,-0.3051910698413849,-0.06566905975341797,-0.9500241875648499,0.07017514109611511,0.023508988320827484,-0.05250871181488037,0.9779540595293646,0.05428862986241888,-0.14846089304290352,0.13644843000246276
1728063783840375300,0.855375244140625,-0.24826495349407196,-1.044251799583435,1.479692816734314,-0.31607216596603394,-0.05810460448265076,-0.9469541907310486,0.05880892276763916,0.04661470279097557,-0.049246370792388916,0.9762013049009041,0.05238207978304795,-0.15420446397789553,0.1432069560520941
1728063783850405000,0.865405029296875,-0.11516629159450531,-1.0397686958312988,1.4993677139282227,-0.32671481370925903,-0.05154825747013092,-0.9437161684036255,0.042260438203811646,0.05601905286312103,-0.032693684101104736,0.9743375942734093,0.051066802852711285,-0.1597939029033216,0.15008192643127075
1728063783860436200,0.875436279296875,0.003603834891691804,-1.0374454259872437,1.5062669515609741,-0.33727359771728516,-0.046028539538383484,-0.9402807354927063,0.02526181936264038,0.0513843409717083,-0.027538418769836426,0.9723450133319237,0.05037770291556831,-0.16529279862862434,0.15711657926454944
1728063783870467000,0.885467041015625,0.05133753642439842,-0.990951657295227,1.5223723649978638,-0.34744009375572205,-0.04105779528617859,-0.936802864074707,0.007672607898712158,0.052578154951334,-0.03484624624252319,0.9702685469567707,0.05003435536392224,-0.17057292148557388,0.1642573889521654
1728063783880497200,0.8954970703125,0.14719408750534058,-0.9714024662971497,1.5420446395874023,-0.35720494389533997,-0.03652370348572731,-0.9333116412162781,-0.00569489598274231,0.05617699399590492,-0.01987433433532715,0.9681045887284532,0.04998533595630252,-0.1756292649116337,0.17154988834806226
1728063783890528300,0.9055283203125,0.24721044301986694,-0.9713630676269531,1.52913498878479,-0.3668174743652344,-0.032769825309515,-0.929715633392334,-0.0124550461769104,0.05195009335875511,-0.028078556060791016,0.9658363818701358,0.050415249029511736,-0.18055608738256115,0.17893591868408187
1728063783900558300,0.915558349609375,0.3412536382675171,-0.9606209993362427,1.4953458309173584,-0.3762391209602356,-0.02983088046312332,-0.9260422587394714,-0.02828669548034668,0.07626334577798843,-0.024900734424591064,0.9634962802466547,0.05130917016823504,-0.18532738806110632,0.1862690382705369
1728063783910589200,0.925589111328125,0.48531413078308105,-0.9475659132003784,1.4855480194091797,-0.3855108618736267,-0.02793690375983715,-0.9222803115844727,-0.031481385231018066,0.11283677816390991,-0.017004966735839844,0.9610730869923299,0.05279265868512026,-0.18992837081344843,0.19359483546186276
1728063783920619300,0.935619384765625,0.6564717292785645,-0.9276058673858643,1.4768195152282715,-0.39453551173210144,-0.0273625236004591,-0.9184731841087341,-0.029796212911605835,0.12935224175453186,-0.022337913513183594,0.9585542223744892,0.05501217782312725,-0.19426027848111146,0.2010235617971377
1728063783930650000,0.945650146484375,0.7955561280250549,-0.8702621459960938,1.432486653327942,-0.4032335579395294,-0.028253033757209778,-0.9146608710289001,-0.039881736040115356,0.1280912607908249,-0.032513201236724854,0.9559639315886929,0.058012662047099185,-0.19825263149173278,0.20847892412636226
1728063783940680200,0.95568017578125,0.8251264691352844,-0.7757395505905151,1.3873980045318604,-0.41114071011543274,-0.02992257848381996,-0.9110806584358215,-0.059425175189971924,0.12904363870620728,-0.03665792942047119,0.9534011540629849,0.06135258383979254,-0.20173129964531347,0.2157936594831877
1728063783950711300,0.965711181640625,0.8086279034614563,-0.7060422301292419,1.3918160200119019,-0.4182756543159485,-0.03161108121275902,-0.9077699184417725,-0.06402420997619629,0.13198336958885193,-0.011144816875457764,0.9508688166824267,0.06465020661725404,-0.20478131635381722,0.22301020971192914
1728063783960742100,0.9757421875,0.7773551344871521,-0.7337098717689514,1.4223190546035767,-0.425182044506073,-0.032826442271471024,-0.9045124053955078,-0.04617726802825928,0.11665819585323334,0.012804031372070312,0.9482713072162267,0.06775891570585468,-0.20773185292289656,0.23029985337187656
1728063783970772200,0.985772216796875,0.7233259677886963,-0.7784765362739563,1.4017996788024902,-0.43249914050102234,-0.03354495018720627,-0.9010101556777954,-0.030925631523132324,0.09819640964269638,0.02161562442779541,0.9455539303989731,0.07073154519485787,-0.21093122444476675,0.2375561800602859
1728063783980803300,0.99580322265625,0.6765171885490417,-0.8086791038513184,1.3491129875183105,-0.4400610625743866,-0.03374655544757843,-0.8973335027694702,-0.028475403785705566,0.10041217505931854,0.01520770788192749,0.9428012464469671,0.0734833465126061,-0.21432086420935698,0.2445254859490148
1728063783990833400,1.00583349609375,0.7227869629859924,-0.8392391204833984,1.2706348896026611,-0.4479030966758728,-0.03416236490011215,-0.8934292197227478,-0.024798989295959473,0.11355382204055786,0.004879474639892578,0.9400180298098864,0.07637364417344454,-0.21783585074249703,0.2511589362015247
1728063784000864300,1.0158642578125,0.7434503436088562,-0.8256623148918152,1.169520616531372,-0.45576751232147217,-0.0351933091878891,-0.8894028663635254,-0.020474612712860107,0.1386631429195404,-0.018830716609954834,0.9372600615827857,0.07954436085790413,-0.22129451917874446,0.25738141970708084
1728063784010893300,1.025893310546875,0.765655517578125,-0.7976818084716797,1.120966911315918,-0.46333906054496765,-0.03659609332680702,-0.8854251503944397,-0.029321521520614624,0.17429138720035553,-0.004696249961853027,0.9345650215479665,0.08283316711660299,-0.22455755871414776,0.2632506942752673
1728063784020924400,1.03592431640625,0.8173275589942932,-0.789354145526886,1.0956863164901733,-0.47077760100364685,-0.038406841456890106,-0.8814155459403992,-0.030488938093185425,0.17184492945671082,0.005469560623168945,0.9318462576350253,0.08633750067066358,-0.2276797227724543,0.2690176171771195
1728063784030954200,1.045954345703125,0.8258976340293884,-0.7668213844299316,1.0668267011642456,-0.478022962808609,-0.040486134588718414,-0.877413809299469,-0.045780837535858154,0.14516140520572662,0.007601797580718994,0.9291216414616195,0.08997055491729623,-0.23064778989727694,0.27466347066080615
1728063784040985300,1.0559853515625,0.8379247784614563,-0.7523958683013916,1.0385031700134277,-0.4851011335849762,-0.042710572481155396,-0.8734143972396851,-0.06322351098060608,0.11940121650695801,0.008561491966247559,0.9263909362580397,0.09367269697927347,-0.23349138214420362,0.28019129197213205
1728063784051016400,1.066016357421875,0.7600252032279968,-0.6731175184249878,0.9911196231842041,-0.491765558719635,-0.044725582003593445,-0.8695782423019409,-0.05835965275764465,0.10173238813877106,-0.014088749885559082,0.9237283316263061,0.09719707089056885,-0.23614321915381606,0.2855085016125746
1728063784061046300,1.07604638671875,0.6812036633491516,-0.6296707987785339,0.9662408828735352,-0.4978146255016327,-0.04608777165412903,-0.8660580515861511,-0.04429972171783447,0.11180734634399414,0.0066373348236083984,0.921199284925231,0.1002635009797665,-0.23857535745851366,0.29055297093840166
1728063784071077400,1.086077392578125,0.650172770023346,-0.6809023022651672,0.9305644035339355,-0.5038601756095886,-0.04705481976270676,-0.8625026345252991,-0.012741506099700928,0.10412266105413437,0.025710701942443848,0.9186837524150201,0.10312884500341807,-0.24106661709365082,0.29541786238242823
1728063784081107500,1.096107421875,0.5914297699928284,-0.7407791018486023,0.8480769991874695,-0.5103950500488281,-0.04784434288740158,-0.8586081266403198,-0.0005151033401489258,0.0856403335928917,0.039379000663757324,0.9161651903981725,0.10594242423534825,-0.2438691331659793,0.2999091745451506
1728063784091138300,1.10613818359375,0.550819993019104,-0.7692509293556213,0.7835032939910889,-0.5172461867332458,-0.04850803315639496,-0.8544608950614929,-0.015773892402648926,0.09016449749469757,0.051818132400512695,0.913702442845816,0.10867456342997453,-0.2468995693445482,0.3039381455171032
1728063784101168400,1.11616845703125,0.5693563222885132,-0.7891525626182556,0.7390844225883484,-0.5242781639099121,-0.04927028343081474,-0.8501205444335938,-0.01962149143218994,0.10485802590847015,0.04732513427734375,0.9112551193851486,0.11145980959266912,-0.25003289224221964,0.3076922390998176
1728063784111199500,1.126199462890625,0.5901668071746826,-0.7501559257507324,0.6904529929161072,-0.5311300754547119,-0.050365149974823,-0.8457921147346497,-0.016584277153015137,0.1330067217350006,0.021512329578399658,0.9088539009337582,0.11436410834542363,-0.2530312358751747,0.31125679265783085
1728063784121229300,1.136229248046875,0.7156805992126465,-0.7327456474304199,0.6778599619865417,-0.5377594828605652,-0.052135199308395386,-0.8414848446846008,-0.026693761348724365,0.163798987865448,0.017113566398620605,0.9064619011467416,0.11757901063551497,-0.255798265578931,0.3147530843799096
1728063784131260400,1.146260498046875,0.8545359969139099,-0.6595848798751831,0.6460034847259521,-0.5439697504043579,-0.055117879062891006,-0.8372926712036133,-0.02925729751586914,0.15741276741027832,-0.014010429382324219,0.9040376905753331,0.12138223048404667,-0.25810855484181594,0.31837445906186795
1728063784141291300,1.156291259765625,0.9192614555358887,-0.5829808712005615,0.5819914937019348,-0.5494596362113953,-0.05925938859581947,-0.8334161639213562,-0.04006373882293701,0.1288089156150818,-0.019565343856811523,0.9017198333570486,0.12561134632168675,-0.25983401145073454,0.3218845269973894
1728063784151321300,1.1663212890625,0.9141857028007507,-0.4647938013076782,0.5898110866546631,-0.5541138648986816,-0.06369993835687637,-0.830000102519989,-0.03986513614654541,0.10891170054674149,-0.004258871078491211,0.8995105235389776,0.12983814829583193,-0.2610402224861702,0.3253935729045828
1728063784161352400,1.1763525390625,0.8655734658241272,-0.44727233052253723,0.6313925981521606,-0.5582216382026672,-0.06764642149209976,-0.8269296288490295,-0.013983070850372314,0.07049978524446487,0.028544068336486816,0.8973370229599783,0.13375731214815803,-0.26200030375558186,0.3290155615317854
1728063784171382500,1.186382568359375,0.8369564414024353,-0.4976867437362671,0.6339729428291321,-0.562545657157898,-0.07111486047506332,-0.8237020373344421,0.004272282123565674,0.0023587271571159363,0.058305978775024414,0.8950787649972965,0.13752726264490664,-0.263125886627583,0.33269361233649636
1728063784181413400,1.196413330078125,0.7103460431098938,-0.5157853364944458,0.5631855726242065,-0.5671432614326477,-0.0741320550441742,-0.8202762007713318,-0.0010178685188293457,-0.0629529356956482,0.04787635803222656,0.8928594602194423,0.14107035473927085,-0.2645014987969088,0.33606604302140036
1728063784191443500,1.206443359375,0.564629316329956,-0.5484215617179871,0.5220085978507996,-0.571846604347229,-0.07620326429605484,-0.8168137073516846,-0.015296399593353271,-0.08474646508693695,0.07403111457824707,0.8907979944728676,0.14404786481289505,-0.266164183436669,0.3389483660619802
1728063784201474300,1.216474365234375,0.4892536401748657,-0.5979153513908386,0.513762354850769,-0.57692551612854,-0.07750009000301361,-0.8131117820739746,0.0005399584770202637,-0.08822563290596008,0.07591396570205688,0.8887649987879683,0.14666784735007493,-0.2682026453099285,0.3415447430412032
1728063784211504400,1.22650439453125,0.40608710050582886,-0.5964593887329102,0.5292915105819702,-0.5821868777275085,-0.07808778434991837,-0.8092964887619019,0.01126396656036377,-0.06371216475963593,0.04477018117904663,0.8867342915290235,0.14896824360724295,-0.27048147452380034,0.3440211932038339
1728063784221535500,1.236535400390625,0.4267670810222626,-0.5988448262214661,0.5947922468185425,-0.5874430537223816,-0.07809280604124069,-0.8054887652397156,0.020792603492736816,-0.0270860493183136,0.025352776050567627,0.8846435458747833,0.15104378847789812,-0.2728394737353897,0.346626934435028
1728063784231566300,1.24656640625,0.44402116537094116,-0.533182680606842,0.6807830333709717,-0.5925467014312744,-0.07789575308561325,-0.8017610311508179,0.03703510761260986,-0.02690163254737854,-0.024532854557037354,0.8824197739019753,0.15312106222834107,-0.27508803311518193,0.3495941796506147
1728063784241596400,1.256596435546875,0.40556833148002625,-0.574347198009491,0.6666866540908813,-0.5976141095161438,-0.07725746184587479,-0.7980530858039856,0.05456894636154175,-0.025159552693367004,-0.03529036045074463,0.8801172663830962,0.15505303815401433,-0.2773661846832754,0.3527327030680567
1728063784251627500,1.26662744140625,0.34194621443748474,-0.48706236481666565,0.6510246396064758,-0.6022723913192749,-0.07626436650753021,-0.7946394085884094,0.04187804460525513,-0.02407745271921158,-0.021171748638153076,0.8779271485328931,0.1566987537852044,-0.27950994282682673,0.35575802738049017
1728063784261657600,1.27665771484375,0.2868501842021942,-0.46427226066589355,0.6965268850326538,-0.6065300703048706,-0.07464984804391861,-0.7915482521057129,0.027504801750183105,-0.03878401219844818,-0.009568572044372559,0.875816266926654,0.15795711786951666,-0.2815589121465572,0.3587756804799598
1728063784271688400,1.2866884765625,0.24496053159236908,-0.44621413946151733,0.7701172232627869,-0.6106400489807129,-0.0722617357969284,-0.7886044979095459,0.051496922969818115,-0.06097804009914398,0.0010983943939208984,0.8736421075920074,0.15888880381482906,-0.2836408016654512,0.3620109681376164
1728063784281718500,1.296718505859375,0.17529736459255219,-0.4286850094795227,0.7977754473686218,-0.6146263480186462,-0.06906621903181076,-0.7857890725135803,0.07402259111404419,-0.08088193088769913,-0.018074393272399902,0.8714137020912898,0.15947176287360004,-0.2857870388630888,0.3654216491836172
1728063784291749400,1.306749267578125,0.06835280358791351,-0.4072763919830322,0.7589108943939209,-0.618431031703949,-0.06521172821521759,-0.7831287384033203,0.07720166444778442,-0.0869489386677742,-0.03266710042953491,0.8692765435736846,0.15965668565602215,-0.2880023678131169,0.36867733788001095
1728063784301779500,1.316779541015625,-0.03531673178076744,-0.38554394245147705,0.746271550655365,-0.6219670176506042,-0.0606255829334259,-0.7806930541992188,0.07243692874908447,-0.07566593587398529,-0.018302857875823975,0.8673064122789982,0.15934079276717228,-0.29028260876530676,0.3716533361790834
1728063784311810600,1.326810546875,-0.13627396523952484,-0.3716803193092346,0.7824127674102783,-0.6253501176834106,-0.055189620703458786,-0.7783902883529663,0.0818319320678711,-0.0731215626001358,-0.012091279029846191,0.8653996912309766,0.1585582100642085,-0.29268440833882786,0.3745379393014857
1728063784321841400,1.33684130859375,-0.24997995793819427,-0.34248843789100647,0.8276656866073608,-0.6285424828529358,-0.048597682267427444,-0.7762556076049805,0.09001392126083374,-0.08264318108558655,-0.0031023025512695312,0.8635062449989837,0.15719664157901253,-0.2952311340790532,0.37747184099455366
1728063784331871500,1.34687158203125,-0.33700913190841675,-0.27529582381248474,0.8600755929946899,-0.6313005089759827,-0.04094623029232025,-0.7744567394256592,0.08445590734481812,-0.09256820380687714,0.01482844352722168,0.8616773786610394,0.15523588413346504,-0.2977809016807194,0.3804479556780078
1728063784341902600,1.356902587890625,-0.3928391635417938,-0.19187086820602417,0.914021909236908,-0.6334139108657837,-0.03246433660387993,-0.7731319069862366,0.06764841079711914,-0.11408109217882156,0.015838265419006348,0.8599182597435369,0.1527575967270613,-0.30016520242406697,0.38354505223831914
1728063784351932200,1.36693212890625,-0.40910229086875916,-0.10842018574476242,1.0059980154037476,-0.6347894072532654,-0.02324112504720688,-0.7723356485366821,0.06411057710647583,-0.1544322371482849,0.021664321422576904,0.8581547313149632,0.14984909223779366,-0.30228698150705924,0.38696057759300195
1728063784361963500,1.376963623046875,-0.43915021419525146,-0.03370269760489464,1.0693426132202148,-0.6355211138725281,-0.013337826356291771,-0.7719683051109314,0.0684739351272583,-0.20356588065624237,0.029963970184326172,0.8563271072709634,0.14659040107268884,-0.30418267528138576,0.3907534209312106
1728063784371993300,1.386993408203125,-0.5609709620475769,0.07089907675981522,1.0687077045440674,-0.6354276537895203,-0.0026748476084321737,-0.7721558213233948,0.06075108051300049,-0.23107455670833588,0.03068554401397705,0.8546150601196961,0.14277934623009078,-0.30583682245889865,0.39460243797064964
1728063784382024200,1.397024169921875,-0.6848588585853577,0.10277855396270752,1.0675079822540283,-0.6346509456634521,0.008976579643785954,-0.7727468013763428,0.05304688215255737,-0.21773208677768707,0.06347262859344482,0.8530774192596832,0.13826872573287638,-0.30742209991027014,0.3982869722928617
1728063784392055600,1.4070556640625,-0.8124162554740906,0.12787191569805145,1.0876169204711914,-0.6335604786872864,0.021643556654453278,-0.7733904123306274,0.06326311826705933,-0.17772571742534637,0.07250851392745972,0.851616082523452,0.13315414270871187,-0.3091516951772552,0.4018027055627704
1728063784402085400,1.41708544921875,-0.855098307132721,0.1314569115638733,1.1518810987472534,-0.6322160363197327,0.035275571048259735,-0.7739887237548828,0.07670444250106812,-0.11089813709259033,0.07090955972671509,0.8501124634268089,0.12755231221006824,-0.3110241872036085,0.40534338069457965
1728063784412116200,1.4271162109375,-0.7719928026199341,0.17103786766529083,1.2450257539749146,-0.6305177807807922,0.049246929585933685,-0.7746109962463379,0.08553475141525269,-0.05103221908211708,0.05402994155883789,0.8484189952045764,0.12186414544902599,-0.31279967603772285,0.40925656681582373
1728063784422146300,1.437146240234375,-0.7692083716392517,0.34567001461982727,1.4967708587646484,-0.6277347207069397,0.06374436616897583,-0.7758129835128784,0.08133268356323242,-0.00997241586446762,0.03211498260498047,0.8464800134791222,0.1159527016215784,-0.31408353916743736,0.4139784901158098
1728063784432177400,1.447177490234375,-0.5431922674179077,0.34412166476249695,1.6087168455123901,-0.6239632368087769,0.07879357784986496,-0.7774712443351746,0.10946732759475708,0.02621740847826004,0.07710814476013184,0.8441149902026364,0.10993673970496803,-0.31492583877962005,0.41976878660442385
1728063784442207200,1.457207275390625,-0.2893677055835724,0.40754297375679016,1.6085916757583618,-0.6195812225341797,0.09209159016609192,-0.779511570930481,0.04934489727020264,0.020075753331184387,0.05943411588668823,0.8415195075746814,0.10482393539712744,-0.31504944651034855,0.42614638659203946
1728063784452238300,1.46723828125,-0.07799901068210602,0.44847655296325684,1.6109787225723267,-0.6146789193153381,0.10343926399946213,-0.7819656133651733,-0.01106882095336914,-0.04220573604106903,0.07842868566513062,0.8388228768659782,0.10061731217170145,-0.3144731307363845,0.43285012417621666
1728063784462268400,1.477268310546875,0.06367209553718567,0.5056407451629639,1.7260440587997437,-0.6090525388717651,0.11367378383874893,-0.7849416136741638,-0.03170984983444214,-0.13001593947410583,0.1445455551147461,0.835946869488721,0.09692306424451952,-0.31326525085871715,0.44007250534306647
1728063784472299300,1.48729931640625,0.0847129374742508,0.5692279934883118,1.8442572355270386,-0.6026882529258728,0.1238292008638382,-0.7883104085922241,-0.016528785228729248,-0.2397959977388382,0.18098008632659912,0.8327620574742906,0.0933038429119382,-0.3116716252849166,0.44795383474852235
1728063784482329300,1.497329345703125,-0.12965822219848633,0.6975553631782532,1.872391939163208,-0.5952346324920654,0.13512064516544342,-0.7921099662780762,-0.01778733730316162,-0.3023264408111572,0.19849735498428345,0.8295273374152133,0.08891361404949438,-0.3099022111005972,0.45600383433570185
1728063784492360400,1.5073603515625,-0.46788114309310913,0.7687942981719971,1.8320623636245728,-0.5866777300834656,0.14847418665885925,-0.7960933446884155,-0.0290602445602417,-0.30277109146118164,0.24224519729614258,0.8265262652812799,0.08309747751558061,-0.30829875808361906,0.46357417930410255
1728063784502391300,1.517391357421875,-0.827141523361206,0.7708158493041992,1.7886778116226196,-0.5776113867759705,0.1642456203699112,-0.7996177077293396,-0.016749024391174316,-0.2513885498046875,0.24586105346679688,0.8237547280880569,0.07578628937429563,-0.3073232413412951,0.4703585876617456
1728063784512421400,1.52742138671875,-1.0889276266098022,0.7036248445510864,1.7945362329483032,-0.5685399770736694,0.18228855729103088,-0.8022052049636841,0.014218628406524658,-0.15454807877540588,0.21851080656051636,0.8209923723148616,0.06728691869916398,-0.30719679925733867,0.47652295542033246
1728063784522452500,1.537452392578125,-1.1629539728164673,0.6627544164657593,1.8361865282058716,-0.5595622062683105,0.20173117518424988,-0.8038623929023743,0.04447120428085327,-0.040888264775276184,0.17967116832733154,0.8180455138362274,0.0581646092918274,-0.307710393898494,0.4824240122560136
1728063784532482300,1.547482421875,-0.9103275537490845,0.6686170697212219,1.963684320449829,-0.5501915216445923,0.22079701721668243,-0.8053185343742371,0.05672222375869751,0.05459362268447876,0.12116026878356934,0.814739756194926,0.04930090490821792,-0.30807489529685333,0.4887315402846539
1728063784542513400,1.557513427734375,-0.4485577642917633,0.7447201013565063,2.1030492782592773,-0.5398030281066895,0.23746097087860107,-0.8076045513153076,0.0654071569442749,0.07279600203037262,0.03563189506530762,0.8109573281478287,0.04162684540050355,-0.3073514823112096,0.49613581436899556
1728063784552543500,1.56754345703125,-0.014226561412215233,0.9008092880249023,2.2203454971313477,-0.5278325080871582,0.25084856152534485,-0.8114603757858276,0.03956645727157593,0.02437421679496765,0.018506884574890137,0.8068433167477788,0.03533501078527907,-0.3049938588485776,0.504712135696837
1728063784562574300,1.57757421875,0.2570227384567261,1.0750617980957031,2.2240467071533203,-0.5140382051467896,0.261295348405838,-0.8170002698898315,-0.006820619106292725,-0.060855865478515625,0.08457845449447632,0.8026054177468549,0.030029125080611455,-0.3009952062452646,0.5141251784980418
1728063784572605400,1.58760546875,0.05384083837270737,1.2657572031021118,2.075100898742676,-0.4985816180706024,0.27079954743385315,-0.8234585523605347,-0.06130918860435486,-0.12994566559791565,0.17709630727767944,0.7987257564457312,0.024446280146269407,-0.2960964414041236,0.5232269859994789
1728063784582635500,1.597635498046875,-0.3699628710746765,1.3622469902038574,1.8332325220108032,-0.48223453760147095,0.2816163897514343,-0.8295433521270752,-0.09418156743049622,-0.11552447080612183,0.3085625171661377,0.795503327609265,0.017508800064158007,-0.291413411251054,0.5309862326236474
1728063784592666400,1.607666259765625,-0.9422996640205383,1.4291300773620605,1.594018578529358,-0.4655786156654358,0.29527053236961365,-0.834297239780426,-0.06825020909309387,-0.01215893030166626,0.2597428560256958,0.7930105375712608,0.008627712623480499,-0.2877098234470972,0.5369199150313798
1728063784602696400,1.617696533203125,-1.2211267948150635,1.4191962480545044,1.5795727968215942,-0.4488184452056885,0.3117706775665283,-0.8374730348587036,-0.005374729633331299,0.16816401481628418,0.1933538317680359,0.7908363857373369,-0.0018972845747723668,-0.2850611989449748,0.5415851107592777
1728063784612727300,1.627727294921875,-1.10283362865448,1.3403562307357788,1.7017428874969482,-0.4319581985473633,0.32893362641334534,-0.8397707343101501,0.07673349976539612,0.33226028084754944,0.10094016790390015,0.7882950101261079,-0.012667343171533547,-0.2827617061584926,0.5463300121620366
1728063784622757400,1.63775732421875,-0.6650387644767761,1.3388004302978516,1.8299064636230469,-0.41473326086997986,0.344053715467453,-0.8423914909362793,0.09623649716377258,0.422639399766922,-0.008224904537200928,0.7852229811144564,-0.022393383669770502,-0.27982635356901137,0.551924652447003
1728063784632788500,1.64778857421875,-0.18185783922672272,1.4394201040267944,1.8517417907714844,-0.39650198817253113,0.35504284501075745,-0.8465995192527771,0.039263129234313965,0.38961660861968994,-0.052768707275390625,0.7819486990178609,-0.030435634318402054,-0.275270601220851,0.5584407422898159
1728063784642818600,1.657818603515625,-0.06418965756893158,1.6053245067596436,1.7835839986801147,-0.37697315216064453,0.36290186643600464,-0.8521698713302612,-0.05155476927757263,0.23141276836395264,0.003704965114593506,0.778888263762105,-0.03758064939566227,-0.26926335223172854,0.5651708586325327
1728063784652849400,1.667849365234375,-0.2993782162666321,1.6826131343841553,1.6610844135284424,-0.3564073145389557,0.3706819713115692,-0.857653021812439,-0.10285180807113647,0.01953110098838806,0.16600269079208374,0.7761355587492788,-0.04525404510797242,-0.26291738252800334,0.5713494891456589
1728063784662880500,1.677880615234375,-0.922825038433075,1.563960075378418,1.2644516229629517,-0.3364924192428589,0.3806961476802826,-0.8613032698631287,-0.10726377367973328,-0.15060880780220032,0.32204246520996094,0.7738744840212556,-0.05415190289355554,-0.2577128818632157,0.5759948774154438
1728063784672910300,1.687910400390625,-2.5077178478240967,0.8103201389312744,0.9997450709342957,-0.32215094566345215,0.3989848792552948,-0.8585044741630554,-0.14357790350914001,-0.11068528890609741,0.4889060854911804,0.7717232410025922,-0.06554241718642052,-0.2577827835329297,0.5776640088180282
1728063784682941400,1.69794140625,-2.8711822032928467,0.45890480279922485,0.9838699698448181,-0.312450110912323,0.4262295067310333,-0.8489425182342529,0.055965036153793335,0.06522563099861145,0.3307235836982727,0.7686056658930103,-0.07956194758394067,-0.2630563257077181,0.5776823149823073
1728063784692971500,1.707971435546875,-2.640641689300537,0.10792607069015503,0.66417396068573,-0.3066911995410919,0.4518693685531616,-0.8377079963684082,0.14404770731925964,0.15218037366867065,-0.012282848358154297,0.7653907102750039,-0.09189086131656438,-0.26963323766834263,0.5770886409429024
1728063784703002400,1.71800244140625,-2.3665103912353516,0.13911116123199463,0.5101473927497864,-0.30276307463645935,0.4748217463493347,-0.8263648748397827,-0.07838627696037292,0.40272656083106995,-0.005895256996154785,0.7626885006804572,-0.10284090655205211,-0.27611831130156433,0.5757506311065619
1728063784713032400,1.728032470703125,-1.679348111152649,-0.12777860462665558,0.5670202970504761,-0.3004129230976105,0.4930461049079895,-0.8164910078048706,-0.1393606960773468,0.6091878414154053,0.0008782744407653809,0.7600473357462694,-0.11121131979174415,-0.28175614299999663,0.5749552991055169
1728063784723063600,1.7380634765625,-0.8955094218254089,0.16611716151237488,0.590798556804657,-0.2972271740436554,0.5054979920387268,-0.8100171685218811,-0.24732854962348938,0.5673017501831055,-0.004145979881286621,0.7576248142371375,-0.1171103896126284,-0.2850904608361886,0.5753376398047079
1728063784733093400,1.74809326171875,-0.08739131689071655,0.08124726265668869,0.23960940539836884,-0.2938925325870514,0.5106032490730286,-0.8080294728279114,-0.29178565740585327,0.3420274257659912,-0.09948700666427612,0.7562856776835127,-0.11991544381613461,-0.28566686300449023,0.5762351774767001
1728063784743124500,1.75812451171875,0.33672788739204407,0.23357433080673218,-0.02213459275662899,-0.29234394431114197,0.5096737742424011,-0.8091771602630615,-0.3093101680278778,0.11465489864349365,-0.0374261736869812,0.7563252236578146,-0.11988318895719595,-0.28467426071143054,0.5766809125389125
1728063784753155600,1.768155517578125,0.27410390973091125,0.3068261742591858,0.010397251695394516,-0.29031437635421753,0.5068327784538269,-0.8116884231567383,-0.24916017055511475,0.06155717372894287,0.05177026987075806,0.7569960885852456,-0.11933131715216674,-0.28269386126752066,0.5768892826423307
1728063784763185400,1.778185302734375,0.21209405362606049,0.3919440507888794,0.15629880130290985,-0.2869047522544861,0.5053236484527588,-0.8138388991355896,-0.1952425241470337,0.09332448244094849,0.19172286987304688,0.7573514774719878,-0.11966981104412124,-0.28064156581080324,0.5773546755829512
1728063784773220400,1.788220458984375,0.4688155949115753,0.3540691137313843,0.03327007591724396,-0.2831965982913971,0.5030307173728943,-0.8165536522865295,-0.16184130311012268,0.10329258441925049,0.20806366205215454,0.7577383845952508,-0.11971666831331891,-0.2781925601999529,0.5780220817014557
1728063784783251200,1.798251220703125,0.7175670862197876,0.3171217441558838,-0.2083960771560669,-0.2808845341205597,0.4978600740432739,-0.8205115795135498,-0.18441706895828247,0.10214608907699585,0.14120560884475708,0.7588160612682231,-0.1182870869458779,-0.2752314731190573,0.5783201225582458
1728063784793282600,1.808282470703125,0.9640805125236511,0.28770169615745544,-0.313999742269516,-0.2797021269798279,0.49017709493637085,-0.8255259990692139,-0.1504431664943695,0.14416131377220154,0.12125664949417114,0.7605133156203572,-0.11560840349933492,-0.2717934974606898,0.5782582182187596
1728063784803312400,1.8183125,1.274532675743103,0.31123989820480347,-0.28044843673706055,-0.27873286604881287,0.4800584018230438,-0.8317763805389404,-0.06115671992301941,0.16656339168548584,0.1260421872138977,0.762422544593421,-0.11179054438566227,-0.2676091845046106,0.5784463775982458
1728063784813343200,1.82834326171875,1.564971923828125,0.41259047389030457,-0.2696024477481842,-0.27694857120513916,0.4673542082309723,-0.8395710587501526,-0.031568944454193115,0.11740842461585999,0.14282429218292236,0.7644612303982091,-0.10702851538595871,-0.26222007317731577,0.5791240785268321
1728063784823373300,1.838373291015625,1.601901650428772,0.5355308651924133,-0.33048737049102783,-0.2742445170879364,0.4529454708099365,-0.8483102917671204,-0.08123955130577087,0.011669456958770752,0.17574870586395264,0.7667838691900047,-0.10187534833721973,-0.25586375655952026,0.5798256344308761
1728063784833404400,1.848404296875,1.2527716159820557,0.4748578667640686,-0.3632147014141083,-0.27135854959487915,0.439574658870697,-0.856235146522522,-0.10867691040039062,-0.09170472621917725,0.26179856061935425,0.7691855909224831,-0.09735289912565848,-0.24980958433109465,0.580061355202031
1728063784843434200,1.858434326171875,0.6164665818214417,0.20447933673858643,-0.30599135160446167,-0.2698598802089691,0.43048402667045593,-0.8613125085830688,-0.03867289423942566,-0.15640562772750854,0.38877832889556885,0.7710674210727376,-0.09427786943431872,-0.24587688479888842,0.5797512322659215
1728063784853465300,1.86846533203125,-0.24306920170783997,0.044443342834711075,-0.12258130311965942,-0.26971936225891113,0.4282294809818268,-0.862479567527771,0.08263128995895386,-0.1985388696193695,0.413657546043396,0.7719502989041577,-0.09362946604523557,-0.24493618381308072,0.5790791908362682
1728063784863495400,1.878495361328125,-1.3299862146377563,-0.15725649893283844,-0.024080565199255943,-0.2704443037509918,0.4346925914287567,-0.8590123653411865,0.12365469336509705,-0.30520644783973694,0.2999456524848938,0.7716932776737297,-0.09637005501711411,-0.2473997081858951,0.5779237660151648
1728063784873526300,1.8885263671875,-2.3639914989471436,-0.5672370791435242,-0.02609551139175892,-0.27342718839645386,0.4506422281265259,-0.8497995138168335,0.14529907703399658,-0.3956190049648285,0.08841651678085327,0.7704188651893018,-0.10259986956110462,-0.2541131735655178,0.5756341969720229
1728063784883557400,1.898557373046875,-2.9137368202209473,-1.2181670665740967,-0.06275978684425354,-0.28128480911254883,0.47320646047592163,-0.8348380327224731,0.25494810938835144,-0.35504236817359924,-0.24261552095413208,0.7678913882874214,-0.1102735970317978,-0.2653690198224558,0.572504953806028
1728063784893587500,1.90858740234375,-2.462838888168335,-1.1508055925369263,-0.40220949053764343,-0.2923842966556549,0.4953415095806122,-0.8180148005485535,0.47315508127212524,-0.10361781716346741,-0.6977779865264893,0.7652789511690776,-0.11705731785431076,-0.2780111047015523,0.5686436863611696
1728063784903618300,1.918618408203125,-1.5214325189590454,-1.0259203910827637,-0.1300024688243866,-0.30231955647468567,0.5107797384262085,-0.804802417755127,0.4335145652294159,0.3701254725456238,-0.7146677374839783,0.7634875059826294,-0.12139445101101135,-0.28785789485490665,0.5652328428348836
1728063784913648400,1.9286484375,-0.23815985023975372,-1.3171740770339966,0.34817102551460266,-0.31102117896080017,0.5183629393577576,-0.796596348285675,0.3834545910358429,0.7106868028640747,-0.2626382112503052,0.7608662074602504,-0.12169393711649723,-0.29477517108473167,0.5651380440948339
1728063784923679200,1.93867919921875,0.7332525849342346,-1.3877650499343872,0.31381916999816895,-0.32001617550849915,0.5172228217124939,-0.7937696576118469,0.18695944547653198,0.6011397242546082,-0.0361863374710083,0.7579111395979438,-0.11723195967105857,-0.29895122941582253,0.5678517833261553
1728063784933709300,1.948709228515625,0.8046072125434875,-1.11228609085083,-0.2886371314525604,-0.33001765608787537,0.5107123255729675,-0.7938899993896484,-0.2079310119152069,0.29049617052078247,-0.012048661708831787,0.7564077474501846,-0.11050167522554089,-0.3014040367876385,0.5699056068223464
1728063784943740400,1.958740478515625,0.2789153754711151,-0.6244766712188721,-0.3501889109611511,-0.3387153446674347,0.5050410032272339,-0.793854832649231,-0.4653313457965851,0.05024164915084839,0.07142752408981323,0.7564941928473128,-0.10539809347023808,-0.30325535984406543,0.5697754332055396
1728063784953770500,1.9687705078125,-0.21307355165481567,-0.6411358118057251,-0.024203602224588394,-0.3443543612957001,0.5042533278465271,-0.7919272184371948,-0.2709411382675171,-0.08126437664031982,0.0263785719871521,0.7560987842524886,-0.10333631455564365,-0.30554540391064144,0.5694544621392554
1728063784963801300,1.97880126953125,-0.5561477541923523,-0.9205490350723267,-0.07739119231700897,-0.35063299536705017,0.5072947144508362,-0.7872157692909241,0.044221192598342896,-0.14949136972427368,-0.007599234580993652,0.7547773911534763,-0.1025817273162603,-0.30962738036944154,0.5691388891703059
1728063784973831400,1.98883154296875,-0.7887463569641113,-1.1192359924316406,-0.21170665323734283,-0.3594920337200165,0.5121015310287476,-0.7800753116607666,0.08112585544586182,-0.17443972826004028,0.010467827320098877,0.7532488063210332,-0.10198383812674275,-0.3155338858963567,0.56802637863551
1728063784983862500,1.998862548828125,-0.8556252121925354,-1.1995426416397095,-0.18188802897930145,-0.3696126639842987,0.5178009271621704,-0.771536648273468,0.05715838074684143,-0.16433101892471313,0.015753567218780518,0.7515542840961401,-0.10147452775169857,-0.32238890430810674,0.5665109409669765
1728063784993893400,2.008893310546875,-0.9040393233299255,-1.1006975173950195,-0.10198282450437546,-0.37930968403816223,0.5240342020988464,-0.7625695466995239,0.021948814392089844,-0.12548989057540894,-0.04414725303649902,0.7495931856550974,-0.10124164358999563,-0.32934077634855374,0.5651503913809218
1728063785003923500,2.01892333984375,-0.9629219770431519,-0.8734580874443054,-0.08525896817445755,-0.38729116320610046,0.5307925939559937,-0.7538334727287292,-0.0639418363571167,-0.07130461931228638,-0.10349678993225098,0.7477373856907779,-0.10181176372809252,-0.3357344762599028,0.5637426484771368
1728063785013954800,2.028954833984375,-0.9610843658447266,-0.7259791493415833,-0.01990925520658493,-0.3935143053531647,0.5378612279891968,-0.7455547451972961,-0.1383766531944275,0.0032918453216552734,-0.07817566394805908,0.7460484251149719,-0.10311599333015008,-0.3414523701035347,0.5623070678523511
1728063785023984600,2.038984619140625,-0.9465792179107666,-0.6861696839332581,0.043119244277477264,-0.39866113662719727,0.5449968576431274,-0.7375959157943726,-0.1014305055141449,0.06747573614120483,-0.07710129022598267,0.7442948735715015,-0.10471545744405432,-0.3467516447625556,0.5610910894847607
1728063785034016000,2.04901611328125,-1.0056800842285156,-0.6818231344223022,0.06877826899290085,-0.4033547639846802,0.5524049997329712,-0.7294886708259583,-0.0431327223777771,0.08684676885604858,-0.0475803017616272,0.7424292155735074,-0.10654207190564934,-0.3520006337719995,0.5599493876724332
1728063785044045600,2.059045654296875,-1.0404930114746094,-0.6821748614311218,0.09038662165403366,-0.40788888931274414,0.5602094531059265,-0.7209660410881042,-0.012689203023910522,0.06154048442840576,-0.020168542861938477,0.7404257261409144,-0.1085825597764307,-0.3573888817961781,0.5587958063501554
1728063785054076700,2.06907666015625,-1.081252932548523,-0.5674520134925842,0.10560126602649689,-0.41184985637664795,0.5682916045188904,-0.7123373746871948,-0.002975672483444214,0.00453871488571167,-0.041263699531555176,0.7384221578209186,-0.11095800223023088,-0.36265637448744903,0.5575855385558048
1728063785064107800,2.079107666015625,-1.046990156173706,-0.43904390931129456,0.1390947848558426,-0.41472387313842773,0.5763623118400574,-0.7041382193565369,-0.01606231927871704,-0.0431438684463501,-0.053658902645111084,0.7365621310973834,-0.11371583277010121,-0.36742290133212546,0.5563680654045408
1728063785074137600,2.0891376953125,-1.0608038902282715,-0.2842452824115753,0.15407240390777588,-0.41640424728393555,0.5843775868415833,-0.6964987516403198,-0.029808610677719116,-0.04119515419006348,-0.08046352863311768,0.7348591703086952,-0.11686030263653627,-0.37161042213638235,0.555186052183034
1728063785084168700,2.099168701171875,-1.0338047742843628,-0.16122427582740784,0.17505544424057007,-0.41695335507392883,0.5924068093299866,-0.6893506050109863,-0.03369981050491333,0.009827136993408203,-0.06924009323120117,0.7333709279361353,-0.12045416536460272,-0.375253914304858,0.5539337925664127
1728063785094198800,2.10919873046875,-0.9237731099128723,-0.08556786924600601,0.19893653690814972,-0.4166572093963623,0.59993976354599,-0.6829854249954224,-0.006484329700469971,0.048665642738342285,-0.07266020774841309,0.7320129548120201,-0.12407248973383271,-0.37830318078765746,0.5528560510951351
1728063785104229600,2.119229736328125,-0.8384624719619751,0.0055447835475206375,0.200239896774292,-0.41570642590522766,0.606779932975769,-0.6775000691413879,0.018825262784957886,0.04826468229293823,-0.10063701868057251,0.7308289663931185,-0.12757481156869527,-0.38075532649095944,0.5519413015843938
1728063785114259700,2.129259765625,-0.8014897704124451,0.0969386100769043,0.23295895755290985,-0.4140715003013611,0.6132219433784485,-0.6726840734481812,0.002023071050643921,0.02694535255432129,-0.09524500370025635,0.7297955659991293,-0.13111899760582657,-0.3827084756262337,0.5511268455714893
1728063785124290800,2.139290771484375,-0.804663360118866,0.24182336032390594,0.2950979471206665,-0.4113085865974426,0.6197234988212585,-0.6684072017669678,-0.027839452028274536,0.0077637434005737305,-0.09013766050338745,0.7288483714319617,-0.13502928723053528,-0.3841399410621451,0.5504397063394475
1728063785134320600,2.149320556640625,-0.7724351286888123,0.39822787046432495,0.3421061933040619,-0.4071608781814575,0.6263216733932495,-0.664786696434021,-0.055729836225509644,0.003317117691040039,-0.090096116065979,0.7280441041336893,-0.13942238550300193,-0.3849260450661846,0.5498593343016894
1728063785144351700,2.159351806640625,-0.7056857943534851,0.5169563889503479,0.3872222900390625,-0.40176820755004883,0.632733941078186,-0.6619895100593567,-0.06783637404441833,0.01187366247177124,-0.08619463443756104,0.7274021969993371,-0.14410785521732553,-0.3850170920999903,0.5494369245964975
1728063785154382600,2.169382568359375,-0.6374063491821289,0.5611758232116699,0.41837409138679504,-0.39556974172592163,0.6388270258903503,-0.6598672270774841,-0.05265727639198303,0.02847045660018921,-0.058150291442871094,0.7268368930698892,-0.14884830219901593,-0.3845914315898858,0.5492193710983587
1728063785164412700,2.17941259765625,-0.5031633377075195,0.5825225710868835,0.4608432352542877,-0.38893982768058777,0.6443595290184021,-0.6584274172782898,-0.028205037117004395,0.044269680976867676,-0.02870631217956543,0.7262929338506102,-0.15337149331976674,-0.3837492306751302,0.5492835620489648
1728063785174443800,2.18944384765625,-0.3798797130584717,0.6542844176292419,0.48854997754096985,-0.3817221224308014,0.649105966091156,-0.6579891443252563,-0.01935523748397827,0.05519402027130127,-0.0406343936920166,0.7258281499913061,-0.15760496513149289,-0.3823167382186914,0.5496983316260593
1728063785184473900,2.199473876953125,-0.33702871203422546,0.740439772605896,0.5109173059463501,-0.3738705515861511,0.6533528566360474,-0.6582939624786377,-0.04248085618019104,0.06295585632324219,-0.049713730812072754,0.7254998150167566,-0.1617792562033165,-0.3803688773682641,0.550270042613699
1728063785194504700,2.209504638671875,-0.2695674002170563,0.8355175256729126,0.5277737975120544,-0.3652040362358093,0.6573190689086914,-0.6592098474502563,-0.07296743988990784,0.06127840280532837,-0.0435335636138916,0.7253045654820033,-0.16607296857853046,-0.3779084988511376,0.5509430316091721
1728063785204534800,2.21953466796875,-0.20553554594516754,0.8890578150749207,0.5225675702095032,-0.35595402121543884,0.6608231663703918,-0.6607643961906433,-0.07805177569389343,0.031346142292022705,-0.039934396743774414,0.725282209472014,-0.17035012176868017,-0.3749648569167647,0.551677499596828
1728063785214565600,2.229565673828125,-0.08503042906522751,0.9005607962608337,0.5097929239273071,-0.34658297896385193,0.663619875907898,-0.6629396677017212,-0.06465670466423035,-0.0005338788032531738,-0.016274750232696533,0.7254035571927379,-0.17433228007447388,-0.37166979435195024,0.5525029843329075
1728063785224595700,2.239595703125,0.03913779556751251,0.941132664680481,0.499267041683197,-0.3370807468891144,0.6655275225639343,-0.6659201979637146,-0.044175416231155396,-0.0018006563186645508,-0.012119293212890625,0.725677599996408,-0.17791205499143944,-0.36795000695107216,0.5534909047888591
1728063785234626800,2.249626708984375,0.21360467374324799,0.9481274485588074,0.48537707328796387,-0.3274121880531311,0.666329562664032,-0.669930100440979,-0.030330181121826172,0.03197371959686279,-0.005744278430938721,0.7261759769092903,-0.18101005066223175,-0.3636898682674834,0.5546473865161378
1728063785244657000,2.259656982421875,0.3899133801460266,0.9515618681907654,0.4504164457321167,-0.31787756085395813,0.6657840609550476,-0.6750448346138,-0.019921600818634033,0.05873388051986694,0.0030783414840698242,0.726847998686461,-0.1833750490655368,-0.35895846356157807,0.5560705565590609
1728063785254687700,2.269687744140625,0.428327351808548,1.0083050727844238,0.3873240053653717,-0.30842891335487366,0.6642646789550781,-0.6808995604515076,0.007235616445541382,0.06951534748077393,-0.024407386779785156,0.727801782959547,-0.185328216294379,-0.3538413255100024,0.557453631408346
1728063785264718800,2.27971875,0.46580377221107483,0.9526090621948242,0.3616687059402466,-0.2990866005420685,0.6623795628547668,-0.6868773698806763,0.03308004140853882,0.05698084831237793,0.01048588752746582,0.7289302592920269,-0.18717495404323894,-0.34860700137863676,0.5586585934470688
1728063785274749000,2.2897490234375,0.5113571286201477,0.8685977458953857,0.34052109718322754,-0.29052600264549255,0.6599932909011841,-0.6928228735923767,0.06799176335334778,0.005534112453460693,0.08723217248916626,0.729961158245942,-0.18849172112623458,-0.3435977597409571,0.5599716740036972
1728063785284779800,2.29977978515625,0.4593932628631592,0.8163971900939941,0.28108757734298706,-0.2825496196746826,0.6574974656105042,-0.6984719038009644,0.09887951612472534,-0.0193442702293396,0.07785117626190186,0.7309883466661515,-0.18962304051716794,-0.3388320440825544,0.5611526249381215
1728063785294809900,2.309809814453125,0.581948459148407,0.8279843330383301,0.21674403548240662,-0.27515289187431335,0.6547417640686035,-0.7039915919303894,0.09964624047279358,0.01771312952041626,0.10252076387405396,0.7321288722041648,-0.19054398126389277,-0.3342113093107667,0.5621238064276561
1728063785304840700,2.3198408203125,0.9717454314231873,0.7482455968856812,0.17637556791305542,-0.26818010210990906,0.6497547626495361,-0.7112652063369751,0.09358897805213928,0.07633477449417114,0.10901612043380737,0.7336465822059961,-0.19027057728584348,-0.3288837153933078,0.5633785676378287
1728063785314870800,2.329870849609375,1.206993579864502,0.7258745431900024,0.0772058442234993,-0.2620687484741211,0.6422205567359924,-0.7203283309936523,0.08042806386947632,0.13086611032485962,0.08057308197021484,0.7355054115438111,-0.18850729444088027,-0.32295641805789194,0.5649744975086965
1728063785324902000,2.33990185546875,1.3928658962249756,0.6841539740562439,0.022002775222063065,-0.2566457688808441,0.63287353515625,-0.7304821610450745,0.07184651494026184,0.16731274127960205,0.06783878803253174,0.7377425046487651,-0.18578365678193634,-0.3166123055259344,0.5665486001954017
1728063785334932000,2.349931884765625,1.5334845781326294,0.6686530709266663,0.03954475000500679,-0.2514447271823883,0.6221036911010742,-0.7414597868919373,0.08567318320274353,0.10609155893325806,0.06606006622314453,0.7400709725966836,-0.18231341924966174,-0.30989017792473567,0.5683529027517129
1728063785344962800,2.359962890625,1.4775036573410034,0.5754566788673401,0.02972700633108616,-0.24647876620292664,0.6108172535896301,-0.7524297833442688,0.12724652886390686,-0.01712822914123535,0.052051424980163574,0.7423084851581059,-0.17852839861732542,-0.30317110390213264,0.5702571629171337
1728063785354994000,2.369993896484375,1.2349144220352173,0.37284523248672485,0.014076674357056618,-0.242744579911232,0.6005295515060425,-0.7618657946586609,0.14102943241596222,-0.1085098385810852,0.12151551246643066,0.7441641646036856,-0.1748425897711034,-0.2974847542031758,0.5719727798196129
1728063785365023700,2.380023681640625,1.031874418258667,0.229329451918602,-0.03370576351881027,-0.24043820798397064,0.5919018387794495,-0.7693125009536743,0.15887992084026337,-0.1515941023826599,0.1576182246208191,0.7455969470218352,-0.17151436304694667,-0.2931323274293757,0.5733599269883253
1728063785375054800,2.390054931640625,0.9194704294204712,0.0008912291377782822,-0.11870161443948746,-0.23999206721782684,0.5841892957687378,-0.7753236889839172,0.13661371171474457,-0.15152627229690552,0.1651705503463745,0.7468157026496783,-0.16809984869782535,-0.2899665498923864,0.574393984496828
1728063785385085000,2.4000849609375,0.8765896558761597,0.00503579992800951,-0.17888718843460083,-0.24093034863471985,0.5768101215362549,-0.7805399894714355,0.08400888741016388,-0.08854407072067261,0.14105945825576782,0.7480041531411538,-0.16449678488906422,-0.28752530475862664,0.575117324489313
1728063785395115800,2.41011572265625,0.8333806395530701,0.026341620832681656,-0.1428775191307068,-0.24175570905208588,0.5697739720344543,-0.7854374051094055,0.029658466577529907,0.02762293815612793,0.08022195100784302,0.7491765073750256,-0.16112446639164413,-0.28516699756983566,0.5757199063876087
1728063785405145900,2.420145751953125,0.9755210280418396,0.07793163508176804,-0.12430250644683838,-0.24202899634838104,0.5623955130577087,-0.7906537055969238,-0.009573236107826233,0.10297930240631104,0.0886731743812561,0.7503479021719909,-0.15774822043902473,-0.2824688267272759,0.5764590681159449
1728063785415177000,2.430177001953125,1.1694036722183228,0.09135769307613373,-0.14855670928955078,-0.24209259450435638,0.5535188317298889,-0.7968739867210388,-0.02772863209247589,0.08562612533569336,0.046568870544433594,0.7516848684439068,-0.15375813604077757,-0.27914412251554094,0.5774140949105081
1728063785425206800,2.440206787109375,1.3039543628692627,0.0990712121129036,-0.20002469420433044,-0.24224266409873962,0.543106734752655,-0.8039612174034119,-0.013876169919967651,0.020079970359802246,0.032751500606536865,0.7532679102170433,-0.14910916024116863,-0.27529231067864024,0.5784187425128943
1728063785435238000,2.45023779296875,1.26133394241333,0.0342477448284626,-0.18046404421329498,-0.24277633428573608,0.5321680903434753,-0.8110837936401367,0.028741225600242615,-0.02932983636856079,0.07171916961669922,0.7548829316323755,-0.14414690526488247,-0.2714402023469243,0.5793909450203091
1728063785445269000,2.46026904296875,1.2502080202102661,-0.06649170070886612,-0.17774122953414917,-0.2437315732240677,0.5215990543365479,-0.8176364302635193,0.1087827980518341,-0.040916621685028076,0.12165260314941406,0.7562530322331219,-0.1391871089229564,-0.2679714911788282,0.5804306393612756
1728063785455298600,2.470298583984375,1.313725471496582,-0.10342948138713837,-0.22129295766353607,-0.24542610347270966,0.5105078816413879,-0.8241042494773865,0.16514955461025238,-0.055887460708618164,0.11664581298828125,0.7575976977826697,-0.1337936438877822,-0.2646641901786071,0.5814620456161929
1728063785465330000,2.480329833984375,1.287710428237915,-0.08868041634559631,-0.11696603149175644,-0.24715013802051544,0.4992295503616333,-0.830473780632019,0.16942180693149567,-0.03894808888435364,0.12171834707260132,0.7588506904225701,-0.1283052732792852,-0.26134431843671435,0.5825656595416406
1728063785475359700,2.49035986328125,1.3359190225601196,-0.044923342764377594,-0.013876130804419518,-0.2479037195444107,0.48820531368255615,-0.8367791771888733,0.20922262966632843,0.002761542797088623,0.1568475365638733,0.7597607575282139,-0.12310833123081305,-0.25778821511545613,0.5840832313511517
1728063785485390600,2.500390625,1.3600541353225708,0.017808107659220695,-0.02616049349308014,-0.2481386363506317,0.47673460841178894,-0.8432978987693787,0.20985427498817444,0.007258981466293335,0.14145469665527344,0.7605996859366533,-0.11785927142049053,-0.25389021309158044,0.585779095378113
1728063785495420700,2.510420654296875,1.4060639142990112,0.15582403540611267,0.004993963520973921,-0.24744102358818054,0.4651598334312439,-0.8499407768249512,0.16019120812416077,0.002964586019515991,0.14371830224990845,0.7615354554310099,-0.11291700978958755,-0.24955834142448177,0.5873961523454353
1728063785505451800,2.52045166015625,1.5710899829864502,0.28080129623413086,0.23864427208900452,-0.2450665682554245,0.45257049798965454,-0.8573927879333496,0.13434873521327972,-0.017084598541259766,0.2128157615661621,0.7623291144784293,-0.10796448637930416,-0.2442279394483616,0.589534445587974
1728063785515481600,2.530481689453125,1.5553048849105835,0.4023282527923584,0.46734508872032166,-0.2405538409948349,0.440061092376709,-0.8651474714279175,0.15766802430152893,-0.05062621831893921,0.18832862377166748,0.7624634726925376,-0.10346011400642752,-0.23816437083232792,0.5926411046213672
1728063785525512700,2.5405126953125,1.6504571437835693,0.34113600850105286,0.3407602310180664,-0.2349933534860611,0.42711111903190613,-0.8731290102005005,0.15680725872516632,-0.10521164536476135,0.2451993227005005,0.7624755486867226,-0.0990907529789756,-0.2315524327653585,0.5959828894073901
1728063785535543800,2.550543701171875,1.3813447952270508,0.16371940076351166,0.12669004499912262,-0.23181742429733276,0.41413256525993347,-0.8802016377449036,0.04044163227081299,-0.22345870733261108,0.34023886919021606,0.7628352126589552,-0.09423235604640143,-0.22587484715234166,0.598484195385917
1728063785545573600,2.56057373046875,1.070340871810913,-0.0897647961974144,0.02155190147459507,-0.23130695521831512,0.4035254418849945,-0.8852481842041016,0.009245738387107849,-0.24169066548347473,0.30103498697280884,0.7632034423481203,-0.08972815956254011,-0.22209177363830532,0.6001207130057747
1728063785555604700,2.570604736328125,0.9260372519493103,0.16011987626552582,-0.07618105411529541,-0.23129995167255402,0.39462411403656006,-0.8892537355422974,0.00830794870853424,-0.21473819017410278,0.12471210956573486,0.7637334114636395,-0.0859333313416443,-0.2190629924958895,0.6011142863051483
1728063785565634800,2.580634765625,0.8945652842521667,0.5916286110877991,-0.133279487490654,-0.2282705456018448,0.38651081919670105,-0.8935893774032593,-0.1474619358778,-0.14987748861312866,0.015247702598571777,0.7648455187668065,-0.08360604943678292,-0.2149775179788671,0.6015033685208554
1728063785575665700,2.590665771484375,1.1798704862594604,0.6871852278709412,-0.09154696017503738,-0.2227822244167328,0.3768962323665619,-0.8990647196769714,-0.3325614631175995,-0.07271221280097961,-0.13044577836990356,0.7663723194692051,-0.08149514815330478,-0.20934705277456375,0.6018355187642968
1728063785585695700,2.60069580078125,1.490945816040039,0.6586788892745972,-0.005605417303740978,-0.2174306958913803,0.36470478773117065,-0.9053807854652405,-0.44301554560661316,0.01987779140472412,-0.4653162360191345,0.7677047181497423,-0.07816126964526746,-0.20297889582994008,0.6027603145892219
1728063785595726800,2.610726806640625,1.7652071714401245,1.2581921815872192,-0.029385847970843315,-0.2085753232240677,0.3496108055114746,-0.9133830666542053,-0.4731111228466034,0.11858990788459778,-0.4757465124130249,0.7693386371347491,-0.07473185865943001,-0.19422567360309062,0.6039948074076809
1728063785605756700,2.620756591796875,1.827952265739441,1.1352707147598267,-0.014446846209466457,-0.19742053747177124,0.33293503522872925,-0.922051727771759,-0.46262896060943604,0.17127639055252075,-0.4929262399673462,0.7712641773844163,-0.07144269335300367,-0.1840382386286572,0.605126052801977
1728063785615787800,2.630787841796875,1.53923499584198,0.8810461759567261,0.13702364265918732,-0.18781137466430664,0.3173106610774994,-0.9295379519462585,-0.30230098962783813,0.158641517162323,-0.4531219005584717,0.7725572023567226,-0.06800606254685616,-0.17494623537794088,0.6065678324714857
1728063785625818600,2.640818603515625,1.2490342855453491,0.7207545042037964,0.1341911107301712,-0.17986254394054413,0.3045820891857147,-0.9353498220443726,-0.10219623148441315,0.16392379999160767,-0.43018972873687744,0.7732689428971832,-0.06518596461909769,-0.16755862803113092,0.6080544108170477
1728063785635848700,2.6508486328125,0.9198701977729797,0.6512665152549744,0.14524322748184204,-0.17312349379062653,0.2946563959121704,-0.9397903084754944,-0.0046414583921432495,0.08261719346046448,-0.30871427059173584,0.773765640688661,-0.0631614614519929,-0.1616027874352277,0.6092471340905654
1728063785645879800,2.6608798828125,0.8980219960212708,0.6057677268981934,0.13220012187957764,-0.16661114990711212,0.28645944595336914,-0.943494439125061,0.052658453583717346,-0.023916691541671753,-0.23312604427337646,0.7740913359159701,-0.061772390327196204,-0.15632326715604694,0.6103522009648903
1728063785655910000,2.670909912109375,0.9415425658226013,0.5686643123626709,0.04326438531279564,-0.16101214289665222,0.27783405780792236,-0.9470392465591431,0.049012601375579834,-0.04156696796417236,-0.22109729051589966,0.774559442187895,-0.05998171258822871,-0.15126985080629252,0.6112098925188283
1728063785665940700,2.680940673828125,0.8716585040092468,0.6967968940734863,0.13661697506904602,-0.15467144548892975,0.26930949091911316,-0.9505520462989807,-0.001548081636428833,0.06172996759414673,-0.017267167568206787,0.7750567850338982,-0.05848025696283243,-0.14595905596535344,0.612015638506591
1728063785675970800,2.690970703125,0.9245203733444214,0.7261254787445068,0.18059028685092926,-0.14739060401916504,0.26111742854118347,-0.9539883136749268,0.04064007103443146,0.17572647333145142,0.08733487129211426,0.7753179526529645,-0.057362515775249666,-0.14041148376722973,0.6130875140440235
1728063785686001700,2.701001708984375,0.8288578987121582,0.8064945936203003,0.16982579231262207,-0.1396806687116623,0.2526300847530365,-0.9574275016784668,0.05923628807067871,0.1277105212211609,0.030959606170654297,0.7755663624210578,-0.056269276405525,-0.13461066968894858,0.6141747909416723
1728063785696031700,2.71103173828125,0.6696088314056396,0.7219730615615845,0.08347225934267044,-0.1316559910774231,0.2460198551416397,-0.9602817296981812,0.054888978600502014,0.04760505259037018,-0.05310022830963135,0.775859339096971,-0.05606990597575094,-0.1292877231372096,0.6149661095407594
1728063785706062800,2.721062744140625,0.7000520825386047,0.4165033996105194,-0.06318322569131851,-0.12633123993873596,0.23904180526733398,-0.9627561569213867,0.07533632218837738,-0.0412573516368866,-0.23554706573486328,0.7764115876320127,-0.05495658221582783,-0.1249067255884148,0.6152749316014917
1728063785716093000,2.731093017578125,0.15969377756118774,0.5251086950302124,0.12157384306192398,-0.12176260352134705,0.23499339818954468,-0.9643401503562927,0.053265854716300964,-0.08631172776222229,-0.2885589599609375,0.7767838086117778,-0.054776880917454904,-0.12177604525443513,0.6154486909472221
1728063785726123800,2.741123779296875,0.21383005380630493,0.3383484184741974,0.2173219472169876,-0.11694741994142532,0.23363550007343292,-0.9652656316757202,0.053364016115665436,0.06319373846054077,-0.155644953250885,0.7765164006798377,-0.05564806957285056,-0.11945906397343214,0.6161617681532048
1728063785736155000,2.75115478515625,0.23179173469543457,0.287275105714798,0.21469606459140778,-0.1136527881026268,0.2316722422838211,-0.9661319851875305,-0.012140698730945587,0.1474171280860901,-0.2106410264968872,0.7761166952374908,-0.0557841796039317,-0.11756755173699025,0.617016234991293
1728063785746184700,2.761184814453125,0.4634678363800049,0.32114988565444946,0.250823438167572,-0.11003568768501282,0.22869807481765747,-0.9672586917877197,-0.10758519917726517,0.21260139346122742,-0.025722265243530273,0.7756639930224637,-0.05560340824051164,-0.11523421947539307,0.6180410620302752
1728063785756215800,2.7712158203125,0.7915855050086975,0.25294631719589233,0.2789730429649353,-0.1065986379981041,0.2228410392999649,-0.9690091013908386,-0.10279776901006699,0.23722673952579498,0.03652924299240112,0.7751794701697067,-0.05419949698453886,-0.11206190125557947,0.6193557128061675
1728063785766246000,2.781245849609375,1.0773104429244995,0.2105342000722885,0.25134727358818054,-0.10379139333963394,0.21400344371795654,-0.9713031649589539,-0.06960953027009964,0.17515674233436584,0.11879467964172363,0.7747242102111997,-0.051415118736052444,-0.1081891474635512,0.6208495848995056
1728063785776276700,2.79127685546875,1.2083555459976196,0.2053181380033493,0.2800271213054657,-0.10117410123348236,0.20295771956443787,-0.9739465713500977,-0.027228645980358124,0.11585943400859833,0.25348764657974243,0.7743061664373408,-0.04771013092518241,-0.10368435279956366,0.6224334992833906
1728063785786306800,2.801306884765625,1.697051763534546,0.13190709054470062,0.3865993618965149,-0.09867484122514725,0.18997448682785034,-0.976817786693573,0.06484606862068176,0.09817251563072205,0.2277790904045105,0.7736567145467375,-0.04318217916512536,-0.0986225490862255,0.6243912798959564
1728063785796338000,2.811337890625,2.180290460586548,0.012995881959795952,0.009076856076717377,-0.09774643182754517,0.17024610936641693,-0.9805416464805603,0.19302226603031158,-0.016941040754318237,-0.0012241005897521973,0.7733569889954363,-0.03556968590170115,-0.09199988594020618,0.6262506924161546
1728063785806368000,2.821367919921875,2.0825068950653076,0.08738793432712555,-0.3224579393863678,-0.0974268987774849,0.14935772120952606,-0.9839717149734497,0.1751398742198944,0.015635579824447632,-0.2240360975265503,0.7743229369300124,-0.02753078897803736,-0.08518340675487407,0.6264264713658566
1728063785816398800,2.83139892578125,2.291943311691284,-0.028855852782726288,-0.09157118946313858,-0.09739065915346146,0.12746091187000275,-0.9870505332946777,0.22532030940055847,0.21767762303352356,-0.09554523229598999,0.7753276537571795,-0.019031862398045874,-0.07818258463250577,0.6264122622986634
1728063785826430000,2.841429931640625,2.1613168716430664,-0.22621935606002808,0.1285926103591919,-0.09855981916189194,0.10510565340518951,-0.9895649552345276,0.41185325384140015,0.17695307731628418,-0.05936998128890991,0.7753257253573814,-0.009878028677177795,-0.07155387067637582,0.6274173339139796
1728063785836459800,2.851459716796875,1.6941498517990112,-0.3616810441017151,0.05150473862886429,-0.10134708136320114,0.08606778830289841,-0.9911211133003235,0.37676817178726196,0.07033480703830719,0.1317461133003235,0.7749374807157019,-0.0015061176911500046,-0.06661203149240251,0.628516293720296
1728063785846491000,2.861490966796875,1.2540721893310547,-0.4614424705505371,-0.22596867382526398,-0.10558483004570007,0.07139089703559875,-0.9918443560600281,0.183419868350029,-0.03347279876470566,0.3081895709037781,0.775049665772698,0.005545644582127912,-0.06361664210644424,0.6286656525264145
1728063785856521000,2.87152099609375,1.0842725038528442,-0.4626920223236084,-0.3626823425292969,-0.11048537492752075,0.0595848523080349,-0.9920900464057922,0.01986338198184967,-0.0647423192858696,0.27997761964797974,0.77585036580366,0.011611431095914528,-0.061807437019881194,0.6277749226390503
1728063785866551800,2.8815517578125,1.0378632545471191,-0.3666273355484009,-0.20916172862052917,-0.11476754397153854,0.04868726432323456,-0.9921985268592834,-0.050363101065158844,-0.011638928204774857,0.20075571537017822,0.7765803283394087,0.017136807446688253,-0.06005875938543197,0.6269150424819494
1728063785876581600,2.89158154296875,0.9332923293113708,-0.3298991620540619,-0.049417879432439804,-0.11823298037052155,0.03872616961598396,-0.9922304153442383,-0.05467965453863144,0.043839141726493835,0.10134607553482056,0.7767637556920508,0.02209361830311699,-0.058280794639564454,0.6267005551334096
1728063785886613000,2.901613037109375,0.8925365209579468,-0.3201580345630646,0.03087642602622509,-0.12139289081096649,0.029790693894028664,-0.9921573996543884,-0.05975949764251709,0.04673213139176369,0.10137981176376343,0.7765643937189751,0.026588774168204005,-0.05669517602074095,0.6269182832767289
1728063785896642600,2.911642578125,0.7753182649612427,-0.32943782210350037,0.005866681691259146,-0.12459198385477066,0.021321553736925125,-0.9919789433479309,-0.059978365898132324,-0.045750878751277924,0.059850096702575684,0.7762680750406319,0.030921307559345107,-0.05526661795514258,0.6272140800421964
1728063785906673700,2.921673583984375,0.4924592077732086,-0.3068046569824219,-0.14218749105930328,-0.1278305947780609,0.014835580252110958,-0.9916850328445435,-0.09114831686019897,-0.16843055188655853,0.14859122037887573,0.7762667153268741,0.03446629769334778,-0.054493542819734106,0.6270987002320232
1728063785916704800,2.931704833984375,0.12095969170331955,-0.14677929878234863,-0.1631886512041092,-0.1301208883523941,0.011701293289661407,-0.9914290904998779,-0.16947020590305328,-0.189801886677742,0.3633773922920227,0.7766816131880332,0.03637100504398499,-0.05442981733188228,0.6264826766519055
1728063785926734600,2.941734619140625,0.0017866271082311869,0.04378676414489746,-0.07007601857185364,-0.13062362372875214,0.010979518294334412,-0.991371214389801,-0.21068499982357025,-0.1307304948568344,0.4580613374710083,0.7770163147082542,0.03678113581429272,-0.05441995788422719,0.6260442490575584
1728063785936765700,2.951765625,-0.2681598961353302,0.23526832461357117,-0.04237355291843414,-0.12927362322807312,0.01221183966845274,-0.9915337562561035,-0.18794138729572296,-0.10516838729381561,0.389925479888916,0.777250905045887,0.03585682658943286,-0.05429001655360587,0.6258180195701509
1728063785946795800,2.961795654296875,-0.46221694350242615,0.4575680196285248,0.0931674987077713,-0.1257459670305252,0.015893662348389626,-0.991935133934021,-0.16514761745929718,-0.09427806735038757,0.5609506964683533,0.7773510489830935,0.03330612674401684,-0.05406593914510328,0.6258539897799184
1728063785956826600,2.97182666015625,-1.0392405986785889,0.41025108098983765,0.10058227181434631,-0.12122755497694016,0.023127859458327293,-0.9923552870750427,-0.10313772410154343,-0.15511639416217804,0.3705901503562927,0.7772153915413571,0.029079229893500657,-0.05455971520501909,0.6261901248602895
1728063785966856700,2.981856689453125,-1.8097983598709106,0.19209203124046326,-0.05347813665866852,-0.11812485754489899,0.03750716522336006,-0.9922901391983032,-0.051888607442379,-0.23367416858673096,-0.0412638783454895,0.7774222468877762,0.022474784096714367,-0.0578775567255672,0.6259072116833632
1728063785976887800,2.9918876953125,-2.3129634857177734,-0.014516275376081467,-0.11594737321138382,-0.11738376319408417,0.058010101318359375,-0.9913908839225769,-0.028078310191631317,-0.2930412292480469,-0.08575749397277832,0.7779189927770012,0.01417576311034337,-0.06405939468523948,0.6249301351268265
1728063785986917600,3.001917724609375,-2.895164966583252,-0.028484610840678215,-0.05766116455197334,-0.11774947494268417,0.0836755558848381,-0.9895117282867432,0.004712328314781189,-0.2831537127494812,-0.19869017601013184,0.7783244126176864,0.004177084917428142,-0.07229582587063402,0.6236723032070794
1728063785996948700,3.01194873046875,-3.359510660171509,-0.024984417483210564,0.057801246643066406,-0.11791765689849854,0.11493232846260071,-0.9863498210906982,0.02403029054403305,-0.1766846477985382,-0.12409323453903198,0.7782716868747172,-0.008079366507766859,-0.08221805640329136,0.6224693858685549
1728063786006979600,3.0219794921875,-3.53867769241333,-0.1397639364004135,-0.014144310727715492,-0.11865027248859406,0.14922259747982025,-0.9816591739654541,0.07412508130073547,-0.14899368584156036,-0.0776975154876709,0.7778782266419694,-0.021389237059471218,-0.09334298341890788,0.6210758727713434
1728063786017010400,3.032010498046875,-3.3078339099884033,-0.3963390290737152,-0.04994918033480644,-0.12120883911848068,0.1830991506576538,-0.9755937457084656,0.0979238823056221,-0.12638220191001892,-0.050407230854034424,0.7773982668976689,-0.03405784539983397,-0.10508661252079267,0.6192326789503668
1728063786027041500,3.04204150390625,-2.9594616889953613,-0.6761106848716736,0.09482797980308533,-0.12637126445770264,0.21344615519046783,-0.9687471389770508,0.12238869071006775,-0.02857065200805664,-0.23410314321517944,0.7764409441711805,-0.04453231710637588,-0.11680450658782536,0.6176676285252397
1728063786037071400,3.0520712890625,-2.6869211196899414,-0.8360337615013123,0.15309235453605652,-0.13349616527557373,0.24112217128276825,-0.9612694382667542,0.13322146236896515,0.08210478723049164,-0.32086557149887085,0.7748602779682138,-0.053291458033218324,-0.1285508248723699,0.6166250113096431
1728063786047102500,3.0621025390625,-2.4095778465270996,-0.6447271704673767,0.09600669145584106,-0.14023993909358978,0.26574277877807617,-0.9537890553474426,0.0490075945854187,0.10673955082893372,-0.13233155012130737,0.7732234857016813,-0.060979142123056974,-0.13923728767323804,0.615646060171116
1728063786057132500,3.072132568359375,-2.022284984588623,-0.3482872247695923,0.08262590318918228,-0.1447068601846695,0.2870945334434509,-0.9469090104103088,-0.0721815973520279,0.005492806434631348,-0.021169602870941162,0.771915688547012,-0.0681549604853644,-0.14798783254903586,0.6144922622972174
1728063786067163400,3.082163330078125,-1.3463726043701172,-0.3199869692325592,0.12751589715480804,-0.14732885360717773,0.30345791578292847,-0.9413859844207764,-0.14811186492443085,-0.17943444848060608,-0.018605470657348633,0.7706903943346523,-0.07388749342859766,-0.15442687262385832,0.6137829158391002
1728063786077193500,3.092193359375,-0.8528905510902405,-0.30609193444252014,-0.22317369282245636,-0.1504846215248108,0.3135227859020233,-0.9375808238983154,-0.1833319514989853,-0.34118691086769104,-0.1655227541923523,0.7701059864094619,-0.07700520979110374,-0.1589961408802493,0.6129659483995388
1728063786087224600,3.102224609375,-0.7373616695404053,-0.11758044362068176,-0.5957313179969788,-0.15396757423877716,0.3202679455280304,-0.9347312450408936,-0.3463529050350189,-0.20669671893119812,-0.12175679206848145,0.7709522120599215,-0.0790175350430721,-0.162451890190132,0.6107360561152424
1728063786097254400,3.11225439453125,-0.44472581148147583,0.18066082894802094,-0.44632476568222046,-0.15550439059734344,0.32509803771972656,-0.932807445526123,-0.41911113262176514,0.10161402821540833,0.002692699432373047,0.7724144831891985,-0.08099561138796949,-0.16442628235379675,0.6080952231803878
1728063786107285500,3.122285400390625,-0.02911902405321598,0.6038275361061096,-0.04928339272737503,-0.1526067852973938,0.32699304819107056,-0.932623565196991,-0.23426459729671478,0.30525490641593933,-0.18235135078430176,0.7733889605672464,-0.08294117194080179,-0.16373445009538598,0.606779707004987
1728063786117316600,3.132316650390625,0.28813883662223816,0.8211050033569336,0.20362849533557892,-0.14544355869293213,0.3256484270095825,-0.9342373013496399,0.044247210025787354,0.33502665162086487,-0.2586337924003601,0.7737866601854725,-0.08463658495131028,-0.16036835029361118,0.6069374671910639
1728063786127346400,3.142346435546875,0.04528563469648361,0.608268141746521,0.2929588854312897,-0.13762527704238892,0.3241731524467468,-0.9359332919120789,0.30531930923461914,0.20552051067352295,-0.21805840730667114,0.7736704217745243,-0.08634427644089371,-0.15677382670525103,0.6077836030676678
1728063786137377500,3.15237744140625,-0.3678359091281891,0.2021171748638153,0.058458782732486725,-0.13325953483581543,0.32588717341423035,-0.9359697699546814,0.5159651637077332,-0.01646938920021057,-0.10443544387817383,0.7733027570615396,-0.08830310422215708,-0.15562025065351287,0.6082662918880241
1728063786147407600,3.16240771484375,-0.8002033829689026,0.0178294125944376,-0.32692351937294006,-0.13286873698234558,0.3313889801502228,-0.9340916872024536,0.5108899474143982,-0.223600834608078,0.05671131610870361,0.7735289958023648,-0.09082316345372084,-0.15717925510035957,0.6072056986559292
1728063786157438500,3.1724384765625,-0.8744270205497742,-0.08244525641202927,-0.38097983598709106,-0.13443151116371155,0.3388006389141083,-0.9312047958374023,0.31236422061920166,-0.2662297785282135,0.33153438568115234,0.7742788780279194,-0.09371731304680148,-0.16004587044644988,0.6050576687522589
1728063786167468500,3.182468505859375,-0.8168141841888428,0.058471061289310455,-0.10909558832645416,-0.1357211470603943,0.3466975688934326,-0.928105890750885,0.1112002432346344,-0.14006301760673523,0.5216270685195923,0.7746130081527677,-0.09681494781298045,-0.16301507023173029,0.6033470962511632
1728063786177499600,3.192499755859375,-0.05993472784757614,0.39768296480178833,0.19487975537776947,-0.13338762521743774,0.3511143624782562,-0.9267828464508057,-0.028828591108322144,0.06899061799049377,0.32900458574295044,0.7744078311124245,-0.09937013156407556,-0.16350581647711304,0.6030621858211895
1728063786187529200,3.202529296875,0.4619523584842682,0.8553587794303894,0.216209277510643,-0.12685588002204895,0.34907734394073486,-0.928467869758606,-0.13132286071777344,0.14655864238739014,-0.018156826496124268,0.7743859834890279,-0.10045617420434805,-0.16023301885658292,0.6037883171513505
1728063786197560600,3.212560546875,0.3844200372695923,1.016129493713379,0.3085186779499054,-0.11687281727790833,0.3452520966529846,-0.9312044382095337,-0.14971351623535156,0.19870847463607788,-0.15120822191238403,0.7746160746327844,-0.10189159015025617,-0.15497055902234746,0.6046257424600552
1728063786207591400,3.22259130859375,0.08634725213050842,0.6294701099395752,0.4428322911262512,-0.10754595696926117,0.343448281288147,-0.9329936504364014,0.008104391396045685,0.14066734910011292,-0.11136358976364136,0.7742121562476791,-0.10385015494846943,-0.15072596537115668,0.6058815940260582
1728063786217621200,3.232621337890625,-0.4229527413845062,0.26845040917396545,0.2251116931438446,-0.10235375165939331,0.3452226221561432,-0.9329228401184082,0.13216939568519592,-0.1058121919631958,-0.09567207098007202,0.77340021552887,-0.10599383081838783,-0.14934482153733183,0.6068885485326673
1728063786227652600,3.242652587890625,-1.2518911361694336,0.15249693393707275,0.20026946067810059,-0.09976714104413986,0.3532547652721405,-0.930192232131958,0.015706434845924377,-0.23829501867294312,0.009782135486602783,0.7725074065230544,-0.11001137011156736,-0.15100122876492403,0.6069008940208711
1728063786237682400,3.252682373046875,-1.4265196323394775,0.25210291147232056,0.2893737554550171,-0.09707570821046829,0.3665507137775421,-0.9253199100494385,-0.07949904352426529,-0.13992711901664734,0.14619088172912598,0.7711029850220683,-0.11621677332676866,-0.15438172261173497,0.6066796750076459
1728063786247713300,3.26271337890625,-1.0012401342391968,0.4544176161289215,0.278581827878952,-0.09275571256875992,0.37813374400138855,-0.9210924506187439,-0.14926397800445557,0.020669996738433838,0.027644574642181396,0.7697832877755797,-0.1222294643538395,-0.15656863943292165,0.6066136890464969
1728063786257743400,3.272743408203125,-0.7647113800048828,0.6517378687858582,0.46087387204170227,-0.0862792432308197,0.3863737881183624,-0.9182980060577393,-0.22765511274337769,0.20331743359565735,0.0005733966827392578,0.7686103569048889,-0.12751079165230622,-0.15681834633491418,0.6069492707725999
1728063786267774500,3.2827744140625,-0.2786170244216919,0.623908281326294,0.6068971157073975,-0.07808376848697662,0.3920409679412842,-0.9166280031204224,-0.13842323422431946,0.3835175633430481,0.06651508808135986,0.7670678336097144,-0.13212293145945064,-0.15565841753085619,0.6082114663722463
1728063786277804300,3.29280419921875,0.14070597290992737,0.544044017791748,0.49113935232162476,-0.07061616331338882,0.3926467001438141,-0.9169743657112122,0.01884305477142334,0.3644334375858307,-0.17703503370285034,0.7658005451350643,-0.13438717023845556,-0.1531434220371586,0.6099483579600697
1728063786287835400,3.30283544921875,0.03195744752883911,0.4904109835624695,0.4877893626689911,-0.06386877596378326,0.3921000361442566,-0.9177027940750122,0.02906344085931778,0.22655236721038818,-0.1513432264328003,0.7648054736210053,-0.13600902559741748,-0.15049970869502471,0.6114933348381483
1728063786297866200,3.3128662109375,0.16548354923725128,0.31830817461013794,0.5125746130943298,-0.058124590665102005,0.3916272222995758,-0.9182862639427185,0.06012346222996712,0.14687076210975647,0.015423715114593506,0.763598555593733,-0.1373109640367206,-0.1483326045124742,0.6132377591840206
1728063786307896300,3.322896240234375,0.1219228208065033,0.2704724073410034,0.4517008662223816,-0.05367716774344444,0.39038968086242676,-0.9190835952758789,0.059582293033599854,0.04407387971878052,-0.02874654531478882,0.762446342462926,-0.13789914519852334,-0.1464309290951299,0.6149939687688529
1728063786317927400,3.332927490234375,0.12763583660125732,0.3001405596733093,0.5624633431434631,-0.04892486706376076,0.38975727558135986,-0.9196171164512634,-0.040827371180057526,0.09242048859596252,0.0950932502746582,0.7611801343991532,-0.1388296075618692,-0.1446297869883014,0.6167768440667127
1728063786327957500,3.34295751953125,0.58296138048172,0.34064364433288574,0.5862293839454651,-0.04384797811508179,0.3870101273059845,-0.9210323095321655,-0.0387478806078434,0.1725144386291504,0.028774678707122803,0.7598120572724885,-0.13894173524040299,-0.14205292239579928,0.6190331083602943
1728063786337988400,3.35298828125,0.9624200463294983,0.5040988326072693,0.574209451675415,-0.03760339319705963,0.3798799514770508,-0.9242711663246155,-0.05626871436834335,0.1900053322315216,-0.07604920864105225,0.758882900268694,-0.13767015794729012,-0.1375184737289237,0.6214761627696119
1728063786348018400,3.363018310546875,1.2796467542648315,0.46740248799324036,0.6485516428947449,-0.030707350000739098,0.36987578868865967,-0.9285736083984375,-0.06943610310554504,0.2687808573246002,-0.010299623012542725,0.7580518980538207,-0.1354457133703017,-0.13178636966970625,0.624214901399711
1728063786358049300,3.37304931640625,1.6363694667816162,0.45071056485176086,0.7231267690658569,-0.02393248677253723,0.3562907874584198,-0.9340686202049255,-0.0007715262472629547,0.30316361784935,-0.05604368448257446,0.7571849934361271,-0.1317230058954552,-0.12495900760189163,0.6274594249263895
1728063786368079400,3.383079345703125,1.9320968389511108,0.4353591799736023,0.7042028903961182,-0.017247717827558517,0.339703768491745,-0.9403743147850037,0.04222632572054863,0.21937832236289978,-0.09325599670410156,0.756315713438323,-0.12680013579550048,-0.11719451312563409,0.6310103112418388
1728063786378110500,3.3931103515625,2.1340649127960205,0.4464682936668396,0.5848501324653625,-0.01081058755517006,0.32060858607292175,-0.9471501111984253,0.05908937007188797,0.05971679091453552,0.030402064323425293,0.7557691826551174,-0.12091950329727337,-0.10864357919714784,0.6343408078492864
1728063786388140500,3.403140625,2.261263370513916,0.3570602536201477,0.34336695075035095,-0.005507963709533215,0.2995631992816925,-0.9540605545043945,0.0750880166888237,-0.09375262260437012,0.0977678894996643,0.7557822929858556,-0.11406797388380684,-0.09979085073944258,0.6370427527139242
1728063786398171400,3.41317138671875,2.2935001850128174,0.2312179058790207,0.21120838820934296,-0.0018432069336995482,0.2778584659099579,-0.9606202840805054,0.11051627993583679,-0.10665479302406311,0.05577409267425537,0.7563273325826629,-0.10658573302877358,-0.09126526002741503,0.6389673861010245
1728063786408202500,3.423202392578125,2.466125726699829,0.08713668584823608,0.2905884087085724,0.00033881235867738724,0.2550509572029114,-0.9669275879859924,0.1768462210893631,-0.0027926266193389893,-0.006705224514007568,0.75684508252011,-0.09825025493994634,-0.08296449086555707,0.6408194375745532
1728063786418232300,3.433232421875,2.7596487998962402,0.053690582513809204,0.44413429498672485,0.0016615490894764662,0.22921010851860046,-0.9733755588531494,0.24084636569023132,0.09795361757278442,-0.12786650657653809,0.7569250585538209,-0.0884594047440832,-0.07407534295569787,0.6432358210320105
1728063786428263400,3.443263427734375,3.473592758178711,0.04087577015161514,0.6821399331092834,0.003821175778284669,0.19928011298179626,-0.9799351096153259,0.2287074774503708,0.14544647932052612,-0.13644367456436157,0.7562915204309447,-0.07736835776200117,-0.06361271629105601,0.6465220048148203
1728063786438293500,3.45329345703125,3.2749311923980713,0.17822138965129852,0.1176464781165123,0.005403570830821991,0.16498877108097076,-0.986280620098114,0.19103805720806122,0.08128808438777924,-0.1763932704925537,0.7562088726179383,-0.0645796078502815,-0.05185702647807868,0.6490675673203368
1728063786448324400,3.463324462890625,2.962003469467163,0.1851751059293747,-0.0061316583305597305,0.007513563148677349,0.13457633554935455,-0.9908747673034668,-0.10321670770645142,0.23314523696899414,-0.009033679962158203,0.7571380521054837,-0.053632111584395646,-0.041063667860566075,0.6497534019477371
1728063786458354400,3.4733544921875,2.409970998764038,0.034973353147506714,0.46218839287757874,0.00885888934135437,0.10730098932981491,-0.9941871166229248,-0.09629177302122116,0.15130499005317688,0.1239936351776123,0.7571190879770874,-0.04363039531744884,-0.03166750207910977,0.6510487607094194
1728063786468385500,3.483385498046875,1.4159852266311646,-0.03222065046429634,0.6451273560523987,0.009351647458970547,0.08810673654079437,-0.9960671663284302,0.06874281167984009,-0.14039859175682068,0.11278164386749268,0.7555592473582272,-0.03641254399404698,-0.02530920710065691,0.6535777642734425
1728063786478415600,3.49341552734375,0.7381694316864014,0.05719498172402382,0.29133090376853943,0.009992356412112713,0.07754047960042953,-0.9969391226768494,0.014223319478332996,-0.32030779123306274,0.21567386388778687,0.7541430388283402,-0.03256335560069609,-0.021680944732569797,0.6555439827675813
1728063786488446500,3.503446533203125,0.35881513357162476,0.07414461672306061,-0.06452172994613647,0.010739154182374477,0.07212324440479279,-0.9973379373550415,-0.09577640891075134,-0.3392893671989441,0.207985520362854,0.7539061680280722,-0.030750281018901336,-0.019633258556419057,0.6559683801842013
1728063786498477600,3.5134775390625,0.15757149457931519,0.158787339925766,-0.05589522048830986,0.011853435076773167,0.06973014771938324,-0.9974954724311829,-0.07633709907531738,-0.16096244752407074,0.21551305055618286,0.7542403381147808,-0.030220302161026405,-0.018411971981656707,0.6556443163071933
1728063786508507400,3.52350732421875,-0.0002032201737165451,0.28337764739990234,0.18444734811782837,0.014117755927145481,0.06876412034034729,-0.9975330233573914,-0.015048566274344921,0.01355704665184021,0.24603772163391113,0.7540674270143104,-0.03059374081820434,-0.017248132099258403,0.6558574469146404
1728063786518538500,3.53353857421875,-0.6381075382232666,0.3724931478500366,0.35190051794052124,0.017680881544947624,0.07162710279226303,-0.9972747564315796,-0.022502681240439415,-0.027895405888557434,0.2451232671737671,0.7531391044967293,-0.03282392659135121,-0.01688816313050392,0.6568250332298899
1728063786528568600,3.543568603515625,-1.624640703201294,0.3550048768520355,0.3322809934616089,0.021597523242235184,0.08268052339553833,-0.9963420629501343,-0.10660426318645477,-0.21436387300491333,0.2554210424423218,0.7518211652480754,-0.03825580071869226,-0.01911724125349242,0.6579788696438745
1728063786538599400,3.553599365234375,-2.800163745880127,0.33434274792671204,0.2935783565044403,0.025353413075208664,0.10473117977380753,-0.9941773414611816,-0.17444705963134766,-0.41454562544822693,0.21260690689086914,0.7503765304334525,-0.04778449181984419,-0.025059356351250582,0.658804950423975
1728063786548629500,3.56362939453125,-3.5237066745758057,0.19046345353126526,0.2543574571609497,0.0284152589738369,0.13639460504055023,-0.9902470111846924,-0.1615176945924759,-0.5315361618995667,0.18858075141906738,0.748605785864003,-0.060716446773626066,-0.03449667462543744,0.6593277715979398
1728063786558660600,3.57366064453125,-3.9034812450408936,0.02444811351597309,0.09589750319719315,0.029786594212055206,0.17358073592185974,-0.9843690991401672,-0.1042952835559845,-0.5412564873695374,0.14838582277297974,0.7467541658532276,-0.07521655364207477,-0.046453512789439995,0.6591986567584647
1728063786568690400,3.5836904296875,-3.5027482509613037,-0.2778611481189728,-0.006559628061950207,0.02866799384355545,0.21034424006938934,-0.9772069454193115,-0.11521586775779724,-0.32032957673072815,0.1161230206489563,0.7450666993869752,-0.08880974130839353,-0.059239751269897264,0.6583913174579715
1728063786578721500,3.593721435546875,-2.749873399734497,-0.41908538341522217,0.05252339690923691,0.025125285610556602,0.2410205900669098,-0.9701946973800659,-0.09208087623119354,-0.024589911103248596,-0.2162676453590393,0.7434071599264471,-0.09932972323530662,-0.0709664967062935,0.6576042177342369
1728063786588751600,3.603751708984375,-2.0219030380249023,-0.2970115840435028,0.09544982761144638,0.02173689380288124,0.2642323672771454,-0.9642140865325928,-0.04189377278089523,0.2294963002204895,-0.3818705081939697,0.7417195543507523,-0.10705175446766238,-0.08020528367842868,0.6572360647749198
1728063786598782500,3.613782470703125,-1.1510459184646606,-0.04231376573443413,-0.032390691339969635,0.02014153264462948,0.2795870900154114,-0.9599090814590454,-0.06050105392932892,0.3103024959564209,-0.1840881109237671,0.7406553564596716,-0.11240652276392292,-0.08608278361429765,0.656798545613969
1728063786608813600,3.6238134765625,-0.4521690011024475,0.21722283959388733,0.017178725451231003,0.02102731540799141,0.28691333532333374,-0.9577257633209229,-0.1122749000787735,0.25085222721099854,0.07086968421936035,0.7403572197560954,-0.11555173745734201,-0.08823220356882887,0.6563034715083085
1728063786618843600,3.63384375,-0.46577882766723633,0.2495376467704773,0.17742858827114105,0.023686710745096207,0.29100149869918823,-0.9564293622970581,-0.049565639346838,0.14225661754608154,0.046410441398620605,0.7398741898890782,-0.11799624565591788,-0.08866912295407386,0.6563543682353105
1728063786628874500,3.64387451171875,-0.614155113697052,0.060769420117139816,0.09303700178861618,0.02576875500380993,0.29623377323150635,-0.9547677636146545,0.04556605964899063,0.00231972336769104,-0.010426878929138184,0.7390987963167469,-0.12066170637030435,-0.0897599949657192,0.6565950733105982
1728063786638904300,3.653904296875,-0.7830895185470581,-0.048037752509117126,-0.2144092172384262,0.025601472705602646,0.3028930127620697,-0.9526806473731995,0.06358612328767776,-0.14829090237617493,-0.04525941610336304,0.7388761395733932,-0.12321330761190719,-0.09207692228163245,0.656050705650916
1728063786648935700,3.663935791015625,-0.8110670447349548,-0.059314318001270294,-0.343135267496109,0.02415659837424755,0.31068500876426697,-0.95020592212677,0.045713379979133606,-0.14373856782913208,-0.04167640209197998,0.7393194745361641,-0.12588850443862623,-0.09512687527252521,0.6546066361941824
1728063786658965200,3.67396533203125,-0.632402777671814,-0.01994321309030056,-0.25732260942459106,0.022763974964618683,0.31771472096443176,-0.9479130506515503,0.07159635424613953,-0.001140594482421875,-0.0036707520484924316,0.7398341623607064,-0.12830367660284112,-0.09788582361873996,0.6531477991865601
1728063786668996400,3.683996337890625,-0.4008443355560303,0.053771115839481354,-0.1566694974899292,0.022311929613351822,0.32265499234199524,-0.9462536573410034,0.10586187243461609,0.13292673230171204,-0.001317143440246582,0.7401733604414416,-0.13018384497497443,-0.09962601220051927,0.6521276536737517
1728063786679026400,3.6940263671875,-0.2587878406047821,0.05171142518520355,-0.09162285923957825,0.02244720607995987,0.32578471302986145,-0.9451774954795837,0.10447537899017334,0.19374659657478333,-0.0016456246376037598,0.7403914312244645,-0.13152106072843667,-0.10056577485722654,0.6514670762319337
1728063786689057300,3.704057373046875,-0.21169722080230713,0.04564964771270752,-0.08285706490278244,0.022685738280415535,0.3279196321964264,-0.9444332122802734,0.11267495155334473,0.146567702293396,-0.014657914638519287,0.740527097508653,-0.1324819908459044,-0.10115294555058782,0.651027096956885
1728063786699088400,3.71408837890625,-0.37146851420402527,-0.0031107026152312756,-0.15656936168670654,0.02251577191054821,0.3306213617324829,-0.9434948563575745,0.10698554664850235,0.028067052364349365,0.008329510688781738,0.7407388537899089,-0.1335474791995524,-0.10206678680597248,0.6504257598513772
1728063786709118500,3.724118408203125,-0.5972390174865723,-0.07155048102140427,-0.21148081123828888,0.021569671109318733,0.33523160219192505,-0.9418888092041016,0.08110669255256653,-0.07557275891304016,0.05361372232437134,0.7409992428327278,-0.13513442534766051,-0.10389550076285672,0.6495111994398689
1728063786719149300,3.7341494140625,-0.7037615180015564,-0.15955837070941925,-0.27350717782974243,0.01963757909834385,0.34159860014915466,-0.9396407604217529,0.06021164730191231,-0.13020330667495728,0.1021164059638977,0.7412569445351384,-0.13711007508948134,-0.10667912935591521,0.6483508589194968
1728063786729179400,3.744179443359375,-0.6271732449531555,-0.16579309105873108,-0.3849407732486725,0.01695997267961502,0.34797555208206177,-0.9373502135276794,0.009422458708286285,-0.11604189872741699,0.14992040395736694,0.7417701705521811,-0.13889530662978386,-0.10969498033212391,0.6468789529143324
1728063786739210200,3.754210205078125,-0.46640968322753906,-0.12799112498760223,-0.4105302691459656,0.01413700357079506,0.3532389998435974,-0.9354262948036194,-0.04747747629880905,-0.036481767892837524,0.13212740421295166,0.7426238419489344,-0.14025035356807933,-0.1123240284478953,0.6451534789629145
1728063786749240300,3.764240234375,-0.24890051782131195,-0.09784813225269318,-0.32042834162712097,0.011805184185504913,0.35663720965385437,-0.9341683983802795,-0.0412394180893898,0.03884011507034302,0.06965118646621704,0.743498742925402,-0.14102068914669263,-0.11414454544756618,0.6436567491575959
1728063786759271400,3.774271484375,-0.09973340481519699,-0.09186108410358429,-0.25744378566741943,0.00994025357067585,0.3582439124584198,-0.9335750937461853,0.0033959010615944862,0.03979688882827759,0.03846406936645508,0.744236803751794,-0.1411921467367894,-0.1152268227215925,0.6425723454033537
1728063786769301500,3.784301513671875,-0.18679960072040558,-0.20604170858860016,-0.20965255796909332,0.007797545753419399,0.3593817949295044,-0.9331580400466919,0.026870397850871086,-0.005057424306869507,0.07007521390914917,0.7448375683774306,-0.14105664013040572,-0.11629271716642563,0.6417135517081807
1728063786779332400,3.794332275390625,-0.5599071383476257,-0.40178805589675903,-0.22072944045066833,0.004177433904260397,0.3628654181957245,-0.9318321943283081,0.07420694828033447,-0.0560569167137146,0.03868955373764038,0.7450467477163579,-0.14133172139064654,-0.1187823163943424,0.640953741087982
1728063786789363500,3.804363525390625,-0.8808475732803345,-0.4926692247390747,-0.3172280192375183,-0.0010157438227906823,0.3696691393852234,-0.9291629195213318,0.11533456295728683,-0.08570301532745361,-0.04561430215835571,0.7451121408113166,-0.14244261129860003,-0.12299855668604696,0.6398355460707383
1728063786799393500,3.8143935546875,-0.9610252380371094,-0.5482397675514221,-0.4125145971775055,-0.007278869394212961,0.3784469664096832,-0.9255943894386292,0.09039346128702164,-0.08260950446128845,-0.06055063009262085,0.745280633837598,-0.14406120454196175,-0.12825436300275245,0.6382430199949527
1728063786809424400,3.82442431640625,-0.8914227485656738,-0.5325482487678528,-0.39682164788246155,-0.01393633522093296,0.38709312677383423,-0.9219353199005127,0.05457046627998352,-0.03138020634651184,-0.031082868576049805,0.7455712181044377,-0.14554882542909747,-0.13359598501051625,0.6364678883918732
1728063786819454500,3.834454345703125,-0.7004703879356384,-0.47588685154914856,-0.2792218029499054,-0.019926032051444054,0.3944496512413025,-0.9187015295028687,0.012723850086331367,0.046559929847717285,0.07841527462005615,0.745719121330449,-0.14671125957075382,-0.13829336047221788,0.6350227509257815
1728063786829485300,3.8444853515625,-0.39837950468063354,-0.3141673803329468,-0.1664249151945114,-0.024468595162034035,0.39951589703559875,-0.9163996577262878,-0.008795589208602905,0.08311963081359863,0.10383868217468262,0.7457269406550565,-0.14736697835751564,-0.14171498559824003,0.6341066764116102
1728063786839515400,3.854515380859375,-0.12377402931451797,-0.17025096714496613,-0.1628807783126831,-0.027293473482131958,0.4017488658428192,-0.9153430461883545,-0.014546157792210579,0.03863510489463806,0.05415230989456177,0.7458630421470057,-0.1474192142891995,-0.1435132062423116,0.633529765175768
1728063786849546500,3.86454638671875,-0.12051418423652649,-0.029542842879891396,-0.2457631528377533,-0.028987038880586624,0.4027020335197449,-0.9148720502853394,-0.013707080855965614,-0.0395733118057251,0.12579429149627686,0.7463588373031366,-0.14738232140290985,-0.1443690455625424,0.6327597028572589
1728063786859576600,3.87457666015625,-0.231205016374588,-0.02728980965912342,-0.2674548923969269,-0.030221417546272278,0.4041733741760254,-0.9141830205917358,0.006478713825345039,-0.058332860469818115,0.24479520320892334,0.7470636849021974,-0.1477673375733007,-0.14516649860656716,0.6316545449594424
1728063786869607400,3.884607421875,-0.5965702533721924,-0.20594169199466705,-0.0606556199491024,-0.03194577246904373,0.4076136648654938,-0.9125955104827881,0.056085146963596344,-0.03536021709442139,0.29693394899368286,0.7472965719817493,-0.14872904448315974,-0.14690785470332718,0.6307500364734461
1728063786879637500,3.894637451171875,-1.2399095296859741,-0.4320259392261505,0.18145155906677246,-0.034512586891651154,0.41639602184295654,-0.9085280895233154,0.13038352131843567,0.0004741549491882324,0.14143824577331543,0.7460369709781213,-0.15136384823545182,-0.15107928076301982,0.6306290253351104
1728063786889668400,3.90466845703125,-1.075539469718933,-0.3920278251171112,-0.13780125975608826,-0.038257576525211334,0.42721524834632874,-0.903340220451355,0.13917917013168335,-0.00532492995262146,-0.27454668283462524,0.744660917208416,-0.15447610699870726,-0.15641940858302866,0.6301986328642916
1728063786899699500,3.914699462890625,-0.8144866228103638,-0.15568718314170837,-0.34952977299690247,-0.04192641004920006,0.43564268946647644,-0.8991427421569824,-0.09827138483524323,-0.030720144510269165,-0.4202847480773926,0.74456230279443,-0.15691613191098192,-0.16064234565273044,0.6286481098035769
1728063786909729500,3.9247294921875,-0.40256714820861816,0.09790672361850739,-0.14042501151561737,-0.04331832751631737,0.441114604473114,-0.8964047431945801,-0.21489092707633972,0.04272639751434326,-0.3221774101257324,0.7448657823818456,-0.1589333696953536,-0.1629043317613745,0.6271980393893998
1728063786919760400,3.934760498046875,-0.055985260754823685,0.3786534368991852,0.07962904870510101,-0.04130561277270317,0.443029522895813,-0.8955549597740173,-0.16529841721057892,0.1000002920627594,-0.2015824317932129,0.7449463139068132,-0.1604513479752501,-0.16272026404441564,0.6267635322538753
1728063786929790500,3.94479052734375,0.05129292607307434,0.6773815751075745,0.1413765847682953,-0.03592982143163681,0.4430619776248932,-0.8957707285881042,-0.14288796484470367,0.11426535248756409,-0.08634597063064575,0.7450188809646587,-0.16224006399628688,-0.16060138064768056,0.6267634938354913
1728063786939821600,3.954821533203125,0.2014576643705368,0.7000959515571594,0.12602585554122925,-0.028988821431994438,0.4419744908809662,-0.8965591192245483,-0.0916166678071022,0.10479375720024109,-0.05728304386138916,0.7452577350239756,-0.16409443123037032,-0.15745937733814108,0.6267940183459257
1728063786949851400,3.964851318359375,0.08079935610294342,0.5873059034347534,0.147413969039917,-0.022568974643945694,0.4405108690261841,-0.8974635601043701,0.013642558827996254,0.030909478664398193,-0.05030560493469238,0.7454744291050852,-0.1656111179652677,-0.15440585272703308,0.6268970868538656
1728063786959882500,3.974882568359375,-0.26968061923980713,0.5189167261123657,0.24224700033664703,-0.01676725037395954,0.4413957893848419,-0.8971558213233948,0.0850197896361351,0.010081321001052856,0.05696117877960205,0.7452190789734109,-0.167841883439369,-0.152483382369333,0.6270776885685155
1728063786969912600,3.98491259765625,-0.46146926283836365,0.45188504457473755,0.36401817202568054,-0.011008751578629017,0.4448663890361786,-0.8955293297767639,0.09735821187496185,0.025562137365341187,0.14797073602676392,0.7442964345007389,-0.1710362111562711,-0.15159803053376802,0.6275249961858339
1728063786979943400,3.994943359375,-0.3480801284313202,0.4598846435546875,0.36358991265296936,-0.005332611035555601,0.44870519638061523,-0.8936639428138733,0.0714641734957695,0.00011688470840454102,0.02833801507949829,0.7430957053320012,-0.17430805927051884,-0.15094611446334613,0.6282044812648119
1728063786989974500,4.004974609375,-0.2024548500776291,0.601022481918335,0.3049018383026123,0.0008961288258433342,0.451135516166687,-0.8924550414085388,-0.010081942193210125,-0.016580402851104736,-0.11317545175552368,0.7422108540013421,-0.17723067881935417,-0.14953853434773412,0.6287691749335516
1728063787000004600,4.015004638671875,-0.06943049281835556,0.7400243282318115,0.3450636565685272,0.008380698040127754,0.4523907005786896,-0.8917804956436157,-0.08696348965167999,0.0135822594165802,-0.14383351802825928,0.741574443650809,-0.1801239217837984,-0.1471907938946805,0.6292516797469114
1728063787010035500,4.025035400390625,0.1507541984319687,0.8239816427230835,0.363163024187088,0.017026744782924652,0.4520256817340851,-0.8918424248695374,-0.07600198686122894,0.04669266939163208,-0.19429337978363037,0.7410441139257821,-0.18272982686225475,-0.1438352939110765,0.6299008316735472
1728063787020065300,4.035065185546875,0.25789183378219604,0.8965011239051819,0.343740314245224,0.026331916451454163,0.44990092515945435,-0.8926902413368225,-0.045054465532302856,0.04950404167175293,-0.22994464635849,0.740752104085015,-0.18485293901993666,-0.13958608676742512,0.6305804305468573
1728063787030096400,4.045096435546875,0.18414857983589172,0.9307416677474976,0.3330914080142975,0.0361165776848793,0.44790777564048767,-0.8933500051498413,-0.029051780700683594,0.0692126452922821,-0.1875826120376587,0.7405247434014166,-0.18722381342710281,-0.13517482750915782,0.6311087801984183
1728063787040126200,4.055126220703125,0.12546662986278534,0.8865635395050049,0.34173843264579773,0.04577309638261795,0.44634103775024414,-0.8936915397644043,-0.004513353109359741,0.09046325087547302,-0.0936436653137207,0.7402181780519768,-0.18973529005120032,-0.13097615552176156,0.631603534010027
1728063787050157300,4.0651572265625,0.03130104020237923,0.8335347175598145,0.3378499448299408,0.05503223091363907,0.4454507827758789,-0.8936134576797485,0.016607768833637238,0.03027254343032837,0.02874535322189331,0.7397608527616603,-0.1923905570868119,-0.12719721601445633,0.6321081401313848
1728063787060187400,4.0751875,-0.09992329031229019,0.8206484913825989,0.2660015821456909,0.06380835920572281,0.44551751017570496,-0.8929964303970337,0.0135536789894104,-0.05608263611793518,0.11745327711105347,0.7392792900089913,-0.1953072727413555,-0.12392272670276995,0.6324274735042164
1728063787070218200,4.08521826171875,-0.07976555079221725,0.7997127175331116,0.18444815278053284,0.07207950204610825,0.4463352859020233,-0.8919581770896912,-0.0021332353353500366,-0.11285439133644104,0.16826432943344116,0.7389674644813684,-0.19842347997124626,-0.12103318822538926,0.632381514603818
1728063787080249300,4.095249267578125,0.0661330595612526,0.701442301273346,0.09752176702022552,0.07950664311647415,0.4463060200214386,-0.891341507434845,-0.008156560361385345,-0.09721538424491882,0.15043574571609497,0.7389533920923406,-0.20094716057590717,-0.11810793561235612,0.6321541419838492
