time,seconds_elapsed,rotationRateX,rotationRateY,rotationRateZ,gravityX,gravityY,gravityZ,accelerationX,accelerationY,accelerationZ,quaternionW,quaternionX,quaternionY,quaternionZ
1729788872474153500,0.043153564453125,0.03807530924677849,0.02399766817688942,-0.012277130037546158,-0.13042062520980835,0.023309610784053802,-0.9911847114562988,-0.017040401697158813,0.007116427645087242,-0.004756450653076172,0.9977938504109669,-0.011680574437809498,-0.06535449109961318,-1.715769128548522e-17
1729788872484184600,0.0531845703125,0.06867902725934982,0.03270860016345978,0.008086997084319592,-0.13035762310028076,0.023164132609963417,-0.9911963939666748,-0.021787837147712708,0.022001896053552628,0.02133256196975708,0.9977967776985637,-0.01160628944983731,-0.06532297138601474,0.00002063348323764461
1729788872494214700,0.063214599609375,0.06681661307811737,0.04505474865436554,0.01223194133490324,-0.13008412718772888,0.02255263365805149,-0.9912464618682861,-0.016888633370399475,0.031020989641547203,0.015507936477661133,0.9978092911512958,-0.011293983958125683,-0.0651860893613229,0.000108526588389327
1729788872504245500,0.07324560546875,0.014290287159383297,0.024526571854948997,-0.004222132731229067,-0.12961061298847198,0.021860521286725998,-0.9913239479064941,-0.0030799061059951782,0.003408048301935196,0.006750643253326416,0.9978287257263427,-0.010945429233993215,-0.0649477779935408,0.00013236151724838494
1729788872514275600,0.083275634765625,-0.05226403847336769,-0.005819668993353844,-0.010929037816822529,-0.12917739152908325,0.021621398627758026,-0.9913857579231262,0.002407282590866089,-0.020187057554721832,0.01352626085281372,0.997844149489452,-0.010829050797598461,-0.06472907473525993,0.00007715746945128292
1729788872524306400,0.093306396484375,-0.07944746315479279,-0.020226038992404938,-0.00922354869544506,-0.1288509964942932,0.022053223103284836,-0.991418719291687,0.010107025504112244,-0.02461668662726879,-0.0007229447364807129,0.9978524893290305,-0.011050073011742982,-0.06456419792198655,0.000004166035012723821
1729788872534336500,0.10333642578125,-0.08207013458013535,-0.020729057490825653,-0.0006039622239768505,-0.1288508027791977,0.023097136989235878,-0.9913949966430664,0.01650024950504303,-0.015086259692907333,-0.008070945739746094,0.9978464860124753,-0.011576000156702007,-0.06456398886424637,-0.00003875681089398323
1729788872544367600,0.11336767578125,-0.016062358394265175,-0.009428998455405235,-0.004792315419763327,-0.1293952465057373,0.023898974061012268,-0.9913050532341003,0.012070342898368835,0.004161950200796127,-0.014081239700317383,0.9978239419991094,-0.011979507901854479,-0.06483798602970765,-0.000060961816148500556
1729788872554397700,0.123397705078125,0.0371614471077919,0.02388102188706398,-0.007852021604776382,-0.1299377828836441,0.023971568793058395,-0.9912323355674744,-0.001165822148323059,0.0190734900534153,-0.016473352909088135,0.9978057517864724,-0.012017832570158588,-0.06511071411461275,-0.00008720369553835102
1729788872564428500,0.133428466796875,0.06319145113229752,0.033236972987651825,-0.005906049162149429,-0.1304933726787567,0.024191943928599358,-0.9911540150642395,-0.01477038860321045,0.019478725269436836,-0.000911414623260498,0.9977861350523338,-0.012129082163513695,-0.0653902908269062,-0.000095707965577888
1729788872574459600,0.143459716796875,0.05167461186647415,0.03425818681716919,-0.0019504562951624393,-0.13075298070907593,0.024563612416386604,-0.991110622882843,-0.019439369440078735,0.01066894456744194,0.005087673664093018,0.9977752747863969,-0.012313540809613598,-0.06552144079636775,-0.0000662408047792473
1729788872584489500,0.153489501953125,-0.016667429357767105,0.017160959541797638,-0.009514632634818554,-0.1305883526802063,0.024400366470217705,-0.991136372089386,-0.009685784578323364,-0.01289522647857666,0.0008257031440734863,0.9977817383402201,-0.012232943166693636,-0.06543828487006226,-0.00008593865026774787
1729788872594520600,0.1635205078125,-0.09977656602859497,-0.009937768802046776,-0.006280489731580019,-0.13050571084022522,0.024270132184028625,-0.991150438785553,-0.0003232210874557495,-0.03037363477051258,0.010285019874572754,0.9977851768067566,-0.012172990211495954,-0.06539565784270958,-0.00016764103695552352
1729788872604550400,0.17355029296875,-0.15285150706768036,-0.01725187338888645,0.010744567029178143,-0.1302848905324936,0.02471565455198288,-0.9911684989929199,0.011098399758338928,-0.021694399416446686,0.011493206024169922,0.9977897748673582,-0.012399347537205221,-0.06528405654148983,-0.00021620951867597582
1729788872614581500,0.18358154296875,-0.1702464073896408,-0.018570244312286377,0.014799228869378567,-0.12990956008434296,0.025830933824181557,-0.9911893010139465,0.017818406224250793,-0.005811387673020363,0.004372954368591309,0.9977949019718793,-0.012957826030779494,-0.06509557696007454,-0.00021178095786394401
1729788872624611300,0.193611328125,-0.17923590540885925,-0.02393225207924843,0.002791834995150566,-0.1297043263912201,0.027594391256570816,-0.9911686778068542,0.014332547783851624,-0.0026157405227422714,0.0005071163177490234,0.9977897354134923,-0.01384170717198046,-0.06499284959076461,-0.00021414685505819508
1729788872634642400,0.203642333984375,-0.1172080859541893,-0.03650818020105362,-0.004299364052712917,-0.12997391819953918,0.029557257890701294,-0.9910767674446106,0.0052637457847595215,-0.0077219158411026,0.0033143162727355957,0.9977667684898843,-0.014827682678601836,-0.06512877660156009,-0.00024474423472453064
1729788872644672500,0.213672607421875,-0.025273632258176804,-0.0016303574666380882,0.0006232224404811859,-0.13058802485466003,0.03063155710697174,-0.9909633994102478,-0.001049622893333435,-0.004630567505955696,0.013561725616455078,0.9977382304366492,-0.015367976964722113,-0.06543792472226019,-0.00026650683054423133
1729788872654703400,0.223703369140625,0.07880276441574097,0.04419875890016556,0.0286916084587574,-0.13091424107551575,0.03054506704211235,-0.9909230470657349,-0.012136995792388916,0.021899405866861343,0.025041699409484863,0.9977281445429181,-0.015319844202491217,-0.06560323998188816,-0.00019063265863251294
1729788872664734500,0.233734375,0.15900440514087677,0.07533883303403854,0.028921708464622498,-0.13049203157424927,0.028934625908732414,-0.9910270571708679,-0.019120484590530396,0.05675874650478363,0.02897566556930542,0.9977543253694489,-0.014500539483373407,-0.06539271950009591,-0.000010139269963713145
1729788872674764300,0.243764404296875,0.15039020776748657,0.06693559885025024,-0.0021030553616583347,-0.1297854781150818,0.02677919901907444,-0.991180419921875,-0.013036876916885376,0.0450744554400444,-0.0087738037109375,0.9977926659826887,-0.013413425953819523,-0.0650374936933723,0.00008888745753636831
1729788872684795400,0.25379541015625,0.08372542262077332,0.03129744529724121,-0.025158841162919998,-0.1290939301252365,0.02509976364672184,-0.9913146495819092,-0.005336090922355652,0.001694684848189354,-0.01382756233215332,0.997826305812769,-0.012574599472319257,-0.0646880877004803,0.00004043027919144951
1729788872694825500,0.263825439453125,-0.007512945681810379,0.0018955613486468792,-0.013256906531751156,-0.1286466121673584,0.024649273604154587,-0.9913840889930725,0.007552772760391235,-0.030356047675013542,-0.009073615074157715,0.9978437165763593,-0.01235429565884853,-0.0644617226364236,-0.000046842934908277297
1729788872704856300,0.273856201171875,-0.053894028067588806,-0.016304481774568558,-0.008105287328362465,-0.1285209357738495,0.024973081424832344,-0.9913923144340515,0.015849947929382324,-0.033151775598526,-0.0035112500190734863,0.997845837563875,-0.01251967776768244,-0.0643979908321585,-0.00009577624578556338
1729788872714886400,0.283886474609375,-0.08098416775465012,-0.013168022967875004,-0.014561057090759277,-0.12862029671669006,0.02558949589729309,-0.9913637042045593,0.012165144085884094,-0.020782964304089546,-0.00039649009704589844,0.9978387246160989,-0.012833649145301666,-0.06444721673178516,-0.000173229402924787
1729788872724917500,0.29391748046875,-0.09573807567358017,-0.01588258519768715,0.01163299661129713,-0.1288355588912964,0.026492608711123466,-0.9913120269775391,-0.0006505995988845825,-0.0014834403991699219,0.005746901035308838,0.9978257518054632,-0.013289001589687788,-0.0645552935936344,-0.0002138322970084966
1729788872734947300,0.303947265625,-0.09936130791902542,-0.018099132925271988,0.02700955793261528,-0.12925417721271515,0.02788093313574791,-0.9912194609642029,-0.003253236413002014,0.011166319251060486,0.014107704162597656,0.9978024465504518,-0.013979110404830141,-0.06476770519626793,-0.00012233929724382304
1729788872744976400,0.313976318359375,-0.12297176569700241,-0.02668425813317299,0.020241398364305496,-0.1298227608203888,0.029935361817479134,-0.9910852313041687,0.0034036189317703247,-0.004453172907233238,0.015300989151000977,0.9977688780297711,-0.015001737487807596,-0.06505639506187726,-0.000008998459325509659
1729788872755007200,0.32400732421875,-0.13289876282215118,-0.03972597047686577,0.023058488965034485,-0.1303601711988449,0.0319317989051342,-0.9909523725509644,0.005070164799690247,-0.011134054511785507,0.031510233879089355,0.9977356041328187,-0.015997377306163907,-0.06532917894556742,0.00007264246593811798
1729788872765037300,0.334037353515625,-0.07992076873779297,-0.03919973224401474,0.04151260107755661,-0.13080009818077087,0.03295513242483139,-0.9908608794212341,0.008928075432777405,0.004642535001039505,0.023056983947753906,0.9977126507150498,-0.01650249185330893,-0.06555322102394888,0.00019557992772324415
1729788872775068200,0.344068115234375,0.022100672125816345,-0.02741742692887783,0.03911708667874336,-0.13097897171974182,0.03264409303665161,-0.9908475279808044,0.007001221179962158,0.025659754872322083,-0.012356758117675781,0.9977092732332367,-0.01633400267223916,-0.06564619710803501,0.0003878389040179781
1729788872785098200,0.35409814453125,0.0652444139122963,-0.0006143078207969666,0.033528443425893784,-0.13083218038082123,0.031591810286045074,-0.9909010529518127,-0.003140076994895935,0.04006347805261612,-0.019017159938812256,0.9977225889024737,-0.01579516174324466,-0.06557427204391886,0.000559918839635257
1729788872795129300,0.36412939453125,0.05512859672307968,-0.0035210419446229935,0.045873526483774185,-0.13064002990722656,0.03070390224456787,-0.9909543395042419,-0.0079708993434906,0.04589523375034332,0.004992425441741943,0.997735856675409,-0.015337772622936903,-0.06547972724187744,0.0007468834267810652
1729788872805159400,0.374159423828125,0.05343722552061081,-0.021942127496004105,0.05979147553443909,-0.13074111938476562,0.03014773689210415,-0.990958034992218,0.004321962594985962,0.017841169610619545,-0.001290440559387207,0.9977364271358505,-0.015039318784098444,-0.06553464157905867,0.0010466571890318122
1729788872815190300,0.384190185546875,-0.010464860126376152,-0.03777185082435608,0.023773815482854843,-0.13106821477413177,0.03006492368876934,-0.9909173846244812,0.007304087281227112,-0.026677457615733147,-0.002948582172393799,0.9977260561110285,-0.014982980952608877,-0.06570256686032082,0.0012716667724540867
1729788872825220400,0.394220458984375,-0.09503807127475739,-0.07288829237222672,0.005552733317017555,-0.13156437873840332,0.03054768033325672,-0.9908368587493896,0.0023681223392486572,-0.03582720458507538,0.02165961265563965,0.997705745714493,-0.015221517434364356,-0.06595364022339273,0.001322814337265024
1729788872835251500,0.40425146484375,-0.17527131736278534,-0.08957933634519577,0.025403670966625214,-0.1323598027229309,0.03175479918718338,-0.9906929731369019,0.010472506284713745,-0.016511254012584686,0.036316752433776855,0.9976696966839833,-0.015824885270642925,-0.06635585092629308,0.0013471441691416928
1729788872845282300,0.4142822265625,-0.24978363513946533,-0.07644036412239075,0.06739506125450134,-0.13305965065956116,0.03400057181715965,-0.9905246496200562,0.010195806622505188,0.0012014694511890411,0.03445476293563843,0.9976272995580394,-0.016939022386592794,-0.06671387841745961,0.0015207383135813748
1729788872855312400,0.4243125,-0.36417898535728455,-0.07779788225889206,0.08512825518846512,-0.13359545171260834,0.03747176006436348,-0.9903272986412048,0.011570826172828674,-0.0035667121410369873,0.033921658992767334,0.9975772662618384,-0.018658936123430208,-0.06699405587494713,0.0018232800123866805
1729788872865343200,0.43434326171875,-0.43324407935142517,-0.1099611446261406,0.07884345948696136,-0.13444358110427856,0.0421193428337574,-0.9900256991386414,0.017194971442222595,-0.018025700002908707,0.025609254837036133,0.9975011387140321,-0.020968223365970314,-0.06743502992531589,0.0021330859063479796
1729788872875373300,0.444373291015625,-0.4919232428073883,-0.1193385049700737,0.04669031873345375,-0.135627880692482,0.04735540971159935,-0.989627480506897,0.02446751296520233,-0.042472582310438156,-0.010052084922790527,0.9974007959368675,-0.023580593976349918,-0.06804569807609229,0.0023278827232461577
1729788872885404400,0.454404296875,-0.49494513869285583,-0.14341801404953003,0.027810636907815933,-0.1367238610982895,0.05233962461352348,-0.9892255067825317,0.018147721886634827,-0.03506665676832199,-0.011308491230010986,0.9973000239042016,-0.026079060941745214,-0.06860843122466052,0.00234903281957536
1729788872895434500,0.4644345703125,-0.43834736943244934,-0.1456831991672516,0.03526588901877403,-0.13792233169078827,0.05605986341834068,-0.988855242729187,0.0135020911693573,-0.01284695789217949,-0.013784468173980713,0.9972072509702157,-0.027946426645205004,-0.06921970322824962,0.0023339134394758047
1729788872905465300,0.47446533203125,-0.412674218416214,-0.11567522585391998,0.028498798608779907,-0.13912823796272278,0.0593017153441906,-0.9884971380233765,-0.004136621952056885,0.012551940977573395,0.00671619176864624,0.9971175503098584,-0.029574961725617507,-0.06983365393330726,0.0023075367148281973
1729788872915495400,0.484495361328125,-0.3591333031654358,-0.1101560890674591,0.06858949363231659,-0.14004480838775635,0.06272857636213303,-0.9881561398506165,-0.02301068603992462,0.03649934381246567,0.03669440746307373,0.9970318133782936,-0.03128768295312241,-0.07030650841422602,0.002410472513230593
1729788872925526300,0.4945263671875,-0.306287944316864,-0.10085020214319229,0.08424248546361923,-0.14104615151882172,0.06609661877155304,-0.9877941012382507,-0.014029011130332947,0.03068990260362625,0.019913911819458008,0.9969402766077571,-0.03295698894702954,-0.07082920722882964,0.0027129994676850498
1729788872935557400,0.504557373046875,-0.368195503950119,-0.02454472705721855,0.1506934016942978,-0.14175178110599518,0.06943250447511673,-0.987464189529419,-0.010225847363471985,0.012690313160419464,0.0031960606575012207,0.9968564095847041,-0.03460375697193621,-0.07120726868602308,0.0031074961199805766
1729788872945587500,0.51458740234375,-0.39602822065353394,-0.14416886866092682,0.16164378821849823,-0.1423656940460205,0.07357568293809891,-0.9870758056640625,0.02798573672771454,-0.034665755927562714,0.019943296909332275,0.9967562011234941,-0.03662942385719398,-0.07155687608820806,0.003874350574856891
1729788872955618300,0.524618408203125,-0.6085528135299683,-0.17602500319480896,-0.0019171666353940964,-0.143888920545578,0.07861123979091644,-0.9864665269851685,0.02235257625579834,-0.08724769204854965,0.007523715496063232,0.9966025012281137,-0.03914181677557981,-0.07235083189690551,0.004102045200955177
1729788872965648400,0.5346484375,-0.595494270324707,-0.21579745411872864,-0.012087246403098106,-0.14587219059467316,0.0847264751791954,-0.9856686592102051,-0.03157234191894531,-0.03194630891084671,0.009625017642974854,0.9964034557946119,-0.04223345654174814,-0.07336210344468534,0.0038395366980273483
1729788872975679500,0.544679443359375,-0.5109608769416809,-0.14456215500831604,0.10363775491714478,-0.1477714329957962,0.09014781564474106,-0.9849045276641846,0.0065817683935165405,0.0020305514335632324,0.011729538440704346,0.9962115617325082,-0.04495715668673963,-0.07434095430134965,0.0038615037150913417
1729788872985709300,0.554709228515625,-0.39546912908554077,-0.06817711144685745,0.2741040289402008,-0.1485198736190796,0.09504946321249008,-0.984330952167511,0.02182607352733612,0.04540770500898361,0.015321612358093262,0.9960640857917518,-0.04736089166054996,-0.07477608868404505,0.004683953663038719
1729788872995740400,0.564740478515625,-0.3466021418571472,-0.11314500868320465,0.27455705404281616,-0.14916828274726868,0.09916913509368896,-0.9838263392448425,0.035795390605926514,0.029370926320552826,0.023072004318237305,0.9959303354840805,-0.04933386296123998,-0.07518636646832122,0.006004768520814243
1729788873005771500,0.574771484375,-0.3259088397026062,-0.047877851873636246,0.17106471955776215,-0.14995765686035156,0.10259030014276505,-0.9833554625511169,0.0104312002658844,0.016138359904289246,-0.03732019662857056,0.995805765361169,-0.05098125650508009,-0.07565175733000105,0.006975677667398703
1729788873015801300,0.58480126953125,-0.4406273663043976,0.03125488758087158,0.24511365592479706,-0.1495564728975296,0.10697600990533829,-0.9829491376876831,0.03401683270931244,0.0021548718214035034,-0.019538044929504395,0.9956967730232207,-0.05311941013257957,-0.07552325566946333,0.007907237277146198
1729788873025832400,0.59483251953125,-0.9746044278144836,-0.12061693519353867,0.1332896500825882,-0.14981195330619812,0.11407364904880524,-0.9821118116378784,0.07708849012851715,-0.14468276500701904,0.04830449819564819,0.9954808230406405,-0.05664189663346741,-0.07573504159865486,0.008594451058438295
1729788873035862500,0.604862548828125,-1.024410367012024,-0.3166230320930481,0.011714222840964794,-0.1517922282218933,0.12430863082408905,-0.9805643558502197,0.0034156590700149536,-0.12908461689949036,-0.027400672435760498,0.9950917782065842,-0.061794099287827094,-0.07680692046151924,0.008638753238515227
1729788873045893400,0.614893310546875,-0.9144273400306702,-0.261007696390152,-0.05797244608402252,-0.15488581359386444,0.13384567201137543,-0.9788236618041992,-0.010153338313102722,-0.04687054455280304,-0.006680488586425781,0.9946578235956518,-0.06663279422488899,-0.07841075933323814,0.008238750141664917
1729788873055923500,0.62492333984375,-0.7789287567138672,-0.08400788903236389,-0.019359806552529335,-0.15659482777118683,0.14210473001003265,-0.977386474609375,-0.028830066323280334,0.09089699387550354,0.010803282260894775,0.9943003035062236,-0.07084110785144093,-0.07929882560411908,0.007755869725940545
1729788873065954600,0.63495458984375,-0.6647869944572449,0.0686173290014267,-0.08292520046234131,-0.15676747262477875,0.14894311130046844,-0.9763400554656982,-0.022492870688438416,0.15754495561122894,0.04849886894226074,0.9940406518157668,-0.07433495290448487,-0.07939952919877746,0.007299661098093583
1729788873075984100,0.644984130859375,-0.8368977308273315,0.2055351287126541,0.015554235316812992,-0.15537221729755402,0.1563183218240738,-0.9754096865653992,-0.013557925820350647,0.1188739687204361,0.20650404691696167,0.9938114143719092,-0.07812204365079183,-0.07868991104167278,0.006615614203899224
1729788873086015500,0.655015380859375,-0.5358499884605408,-0.06986474990844727,0.21054822206497192,-0.15437214076519012,0.16350482404232025,-0.9743897914886475,0.06393320858478546,-0.014243319630622864,0.25505995750427246,0.9935521381788925,-0.08173136063801406,-0.07826302811939832,0.007002575358781987
1729788873096046300,0.66504638671875,-0.43076467514038086,-0.07568849623203278,-0.1104566901922226,-0.15517105162143707,0.16800090670585632,-0.9734976291656494,0.0896497368812561,-0.12352152168750763,-0.1816384196281433,0.9933263037979182,-0.0839941954741713,-0.07871566658603996,0.007200699824818853
1729788873106076200,0.675076171875,-0.5909820795059204,-0.09055133163928986,-0.30763179063796997,-0.1562519669532776,0.1726197898387909,-0.9725161790847778,-0.06736566126346588,-0.0224427729845047,-0.1333644986152649,0.9930881689363599,-0.08644514476093189,-0.07917792152057879,0.005838065595696928
1729788873116107500,0.685107421875,-0.4666232764720917,-0.17363785207271576,-0.11991863697767258,-0.1579853892326355,0.17766061425209045,-0.9713276028633118,-0.04416315257549286,0.08265435695648193,-0.06099045276641846,0.9927955428495395,-0.08910578299541565,-0.0799771957812688,0.004582317334928239
1729788873126137300,0.695137451171875,-0.2284644991159439,-0.08739937096834183,-0.06354723870754242,-0.159455806016922,0.1808498203754425,-0.9704984426498413,0.003785550594329834,0.06341290473937988,-0.1404634714126587,0.9925886505387266,-0.09076334865486319,-0.0807019307678423,0.004141701711837384
1729788873136168200,0.705168212890625,-0.06968191266059875,-0.013520731590688229,-0.1841205358505249,-0.1601010411977768,0.18201062083244324,-0.9701751470565796,-0.06438635289669037,0.05338674783706665,-0.07257997989654541,0.9925096559884811,-0.09140601865333865,-0.08097759747149202,0.0035066225296239055
1729788873146198300,0.7151982421875,-0.051555369049310684,-0.07012835144996643,-0.2513107359409332,-0.1608400046825409,0.18225926160812378,-0.9700062274932861,-0.06619560718536377,0.06211027503013611,0.06911206245422363,0.9924705053781656,-0.09162643201905285,-0.08124952692737182,0.002376580648012572
1729788873156229400,0.7252294921875,-0.046934254467487335,-0.13250815868377686,-0.20475657284259796,-0.16229121387004852,0.1823805421590805,-0.9697416424751282,-0.002381742000579834,0.03488938510417938,0.13023364543914795,0.9924058586575948,-0.09178574373029372,-0.08188126760225457,0.001240338596602484
1729788873166259200,0.73525927734375,-0.07109472155570984,-0.18394020199775696,-0.1588924080133438,-0.16411897540092468,0.18261411786079407,-0.9693900346755981,0.02675926685333252,-0.03028559684753418,0.06564247608184814,0.9923179797142336,-0.09197935759400049,-0.08273316528507715,0.0004144441253814295
1729788873176290300,0.745290283203125,-0.23574092984199524,-0.24398291110992432,-0.18334528803825378,-0.16648168861865997,0.18376514315605164,-0.9687694311141968,0.00974331796169281,-0.09013718366622925,-0.028804421424865723,0.9921616650717324,-0.09264186536262181,-0.08386157551875977,-0.0003951261767612986
1729788873186321200,0.755321044921875,-0.3933507800102234,-0.3565600514411926,-0.22530178725719452,-0.1697538197040558,0.18650729954242706,-0.9676769375801086,-0.014404594898223877,-0.10031037032604218,-0.05806457996368408,0.9918853771595149,-0.09413780793798653,-0.08543769103193023,-0.0014076524092834254
1729788873196351200,0.765351318359375,-0.4920204281806946,-0.39556828141212463,-0.2690199613571167,-0.1739397943019867,0.1904650628566742,-0.9661614894866943,-0.02024364471435547,-0.05759149789810181,-0.036173105239868164,0.9915007779561323,-0.09628401195233095,-0.08745653482433548,-0.002665836064116085
1729788873206382300,0.77538232421875,-0.408233642578125,-0.3687089681625366,-0.24449147284030914,-0.17816615104675293,0.1944400668144226,-0.9645982980728149,-0.014643996953964233,0.01086696982383728,-0.015488982200622559,0.9911021853931898,-0.0984511508032859,-0.0894886474489963,-0.003968310818257872
1729788873216412400,0.785412353515625,-0.2963559329509735,-0.3085927367210388,-0.23677043616771698,-0.18192361295223236,0.1973973959684372,-0.9632954001426697,0.016518235206604004,0.03957162797451019,-0.04279279708862305,0.9907681591700811,-0.10009180107036067,-0.09129028653958016,-0.005138220397224531
1729788873226443300,0.795443359375,-0.2392319291830063,-0.2823353111743927,-0.27421897649765015,-0.18523482978343964,0.19946537911891937,-0.9622378349304199,0.03704138100147247,0.048947736620903015,-0.03918123245239258,0.9904940480334077,-0.10128666889824561,-0.09285526292631745,-0.006366404204158353
1729788873236473300,0.805473388671875,-0.25501641631126404,-0.2917289137840271,-0.3101295828819275,-0.18859660625457764,0.20127174258232117,-0.9612081050872803,0.036161214113235474,0.04904872179031372,0.029247045516967773,0.9902237448090845,-0.10237419945084955,-0.09442179244788826,-0.00781060988504732
1729788873246504200,0.815504150390625,-0.22865989804267883,-0.3145138621330261,-0.31012505292892456,-0.19212298095226288,0.20305439829826355,-0.9601342082023621,0.02806037664413452,0.030771315097808838,0.05553215742111206,0.9899396106494972,-0.10346309150323657,-0.09606397698692012,-0.009316872331546145
1729788873256535300,0.825535400390625,-0.18790727853775024,-0.3253912627696991,-0.28220605850219727,-0.1957956999540329,0.2044992446899414,-0.9590850472450256,0.010492876172065735,-0.013398140668869019,-0.013037145137786865,0.9896603582326022,-0.10437780852966251,-0.09778932632276963,-0.010726732989164897
1729788873266565400,0.8355654296875,-0.1974744200706482,-0.36178362369537354,-0.27378249168395996,-0.1996675431728363,0.2057550549507141,-0.9580175876617432,-0.015283122658729553,-0.044957906007766724,-0.05916374921798706,0.9893760179478518,-0.10519110941032048,-0.09962943221797835,-0.012004792374834027
1729788873276596200,0.84559619140625,-0.2579761743545532,-0.39982131123542786,-0.30367061495780945,-0.20390160381793976,0.20735952258110046,-0.9567790627479553,-0.034822240471839905,-0.050926387310028076,-0.08580821752548218,0.9890457959675069,-0.10619987666918043,-0.10164670512674513,-0.013348010182548732
1729788873286626300,0.855626220703125,-0.3078065812587738,-0.44084039330482483,-0.3041611611843109,-0.20860391855239868,0.2094440907239914,-0.9553102254867554,-0.041655585169792175,-0.048997893929481506,-0.07618391513824463,0.9886539855662012,-0.10747709675243076,-0.10389211521731055,-0.014780842621721904
1729788873296657400,0.865657470703125,-0.34927186369895935,-0.45598524808883667,-0.29003044962882996,-0.2134796380996704,0.21198616921901703,-0.9536709785461426,-0.020407170057296753,-0.054957956075668335,-0.08171409368515015,0.9882173779325104,-0.10899687464166402,-0.1062270924074755,-0.016187229158809796
1729788873306687200,0.875687255859375,-0.3694098889827728,-0.5313758850097656,-0.30776017904281616,-0.2188253402709961,0.21474941074848175,-0.9518393874168396,0.004897013306617737,-0.06829552352428436,-0.0896950364112854,0.9877301713120785,-0.11064448820311054,-0.10880310566843247,-0.017574821510208442
1729788873316718300,0.88571826171875,-0.48359042406082153,-0.6087509989738464,-0.36711350083351135,-0.2249661684036255,0.21809425950050354,-0.9496447443962097,0.01695828139781952,-0.07107581198215485,-0.12475705146789551,0.9871453341639989,-0.11263430349644252,-0.11176381649757612,-0.019141219477084137
1729788873326748400,0.89574853515625,-0.5604478716850281,-0.6113683581352234,-0.40763482451438904,-0.23169253766536713,0.2221912145614624,-0.9470742344856262,-0.0009888261556625366,-0.050834983587265015,-0.035896897315979004,0.9864555628256656,-0.11507341351399855,-0.11498253208984015,-0.021039714975239113
1729788873336779300,0.905779296875,-0.5115166306495667,-0.5916070938110352,-0.35105279088020325,-0.23829436302185059,0.22653308510780334,-0.9444038271903992,-0.026384681463241577,-0.02687181532382965,0.14025044441223145,0.9857371566698272,-0.11764978881661388,-0.11813812415961567,-0.02289881771079316
1729788873346810400,0.915810302734375,-0.3528457581996918,-0.4915268123149872,-0.3000399172306061,-0.24418561160564423,0.22980637848377228,-0.9421052932739258,-0.04829494655132294,-0.02051679790019989,0.19511133432388306,0.985117090191411,-0.1196396558113426,-0.1209698097174392,-0.02443488973873455
1729788873356840400,0.92584033203125,-0.27707505226135254,-0.41929858922958374,-0.276914119720459,-0.24907758831977844,0.23205634951591492,-0.9402713775634766,-0.08135159313678741,-0.013855621218681335,0.15619850158691406,0.9846175130193289,-0.1210684876823476,-0.12331562429540557,-0.02577112246049662
1729788873366871300,0.935871337890625,-0.2744763195514679,-0.3870985805988312,-0.24760150909423828,-0.2534732520580292,0.23391878604888916,-0.9386337399482727,-0.07027256488800049,-0.020616143941879272,0.11429297924041748,0.9841689909522632,-0.1222802893080337,-0.12542189381067598,-0.026989518199276554
1729788873376901400,0.9459013671875,-0.4285764992237091,-0.4297894537448883,-0.17590229213237762,-0.2577660381793976,0.23661303520202637,-0.9367875456809998,-0.01973038911819458,-0.04905197024345398,0.04265308380126953,0.9836713476503075,-0.12390087692236369,-0.12749425873375667,-0.02801085884773414
1729788873386932500,0.955932373046875,-0.6584784388542175,-0.5062605142593384,-0.11777905374765396,-0.2624702751636505,0.24129821360111237,-0.9342828989028931,0.03274911642074585,-0.08977840840816498,0.010531127452850342,0.9830124646605474,-0.12653403652634937,-0.12979861705586077,-0.028778671683348172
1729788873396962300,0.96596240234375,-0.9837965369224548,-0.6546438336372375,-0.1345018446445465,-0.2681536376476288,0.24863506853580475,-0.9307385683059692,0.05663621425628662,-0.11451026797294617,-0.05305659770965576,0.9820883588941283,-0.1305715258116552,-0.13259638339222435,-0.029527536101290806
1729788873406993400,0.975993408203125,-1.2691415548324585,-0.766750693321228,-0.20496083796024323,-0.2752801179885864,0.2587796449661255,-0.9258800745010376,0.05813220143318176,-0.0649929940700531,-0.15969115495681763,0.9808159035276895,-0.13617476082692795,-0.13607493097772322,-0.030663603827310423
1729788873417023500,0.9860234375,-1.291949987411499,-0.8217182755470276,-0.18674667179584503,-0.28316792845726013,0.2702080309391022,-0.9202193021774292,0.04957100749015808,0.011286139488220215,-0.13991552591323853,0.9793293390218973,-0.14252713984049661,-0.13991554351112387,-0.031997838781136684
1729788873427054300,0.996054443359375,-1.0660878419876099,-0.8607428669929504,-0.16722065210342407,-0.29136958718299866,0.280743807554245,-0.9144871234893799,0.058795034885406494,0.05488854646682739,-0.08751177787780762,0.9778293190819425,-0.1484232994880486,-0.14396862087951112,-0.03306800225073705
1729788873437085400,1.00608544921875,-0.7554417848587036,-0.7914551496505737,-0.21163631975650787,-0.29952770471572876,0.28845617175102234,-0.9094372987747192,0.01948302984237671,0.08761197328567505,-0.017534077167510986,0.9765043456428164,-0.15285727258396542,-0.14804054760898372,-0.03402919113893304
1729788873447115500,1.016115478515625,-0.5146805644035339,-0.6822538375854492,-0.16932161152362823,-0.30680787563323975,0.2936467230319977,-0.9053400158882141,-0.037522077560424805,0.1178218424320221,0.11522471904754639,0.9754235285201742,-0.1559520274394246,-0.15168703867673736,-0.03491347726541669
1729788873457146400,1.026146484375,-0.17608137428760529,-0.5827281475067139,-0.035237837582826614,-0.3129782974720001,0.29642200469970703,-0.9023184776306152,-0.03217563033103943,0.10677626729011536,0.14124059677124023,0.9746410403689079,-0.15764982282104373,-0.15487834695609765,-0.035130717605264934
1729788873467176400,1.036176513671875,-0.1302180141210556,-0.4237235486507416,-0.0014164922758936882,-0.31745150685310364,0.29757192730903625,-0.9003751873970032,0.012107759714126587,0.03597000241279602,0.05419909954071045,0.9741512877859797,-0.15836569123061592,-0.15726635057183547,-0.034884670491234275
1729788873477207300,1.046207275390625,-0.3077239692211151,-0.34848105907440186,-0.07919198274612427,-0.32097965478897095,0.2993820309638977,-0.8985223770141602,0.015895336866378784,-0.021443158388137817,0.03148752450942993,0.9736738514255837,-0.15944747014620572,-0.15910784837264028,-0.034937411328242
1729788873487237400,1.0562373046875,-0.5577652454376221,-0.4301644563674927,-0.12119641900062561,-0.32469651103019714,0.30290859937667847,-0.8960014581680298,0.04654395580291748,-0.06438320875167847,-0.0060370564460754395,0.973006137727155,-0.16152776573391966,-0.16095981494736056,-0.03549462555463967
1729788873497268500,1.0662685546875,-0.7870316505432129,-0.5730336308479309,-0.14441972970962524,-0.3296060264110565,0.30851155519485474,-0.8922894597053528,0.08326801657676697,-0.09337785840034485,-0.04847586154937744,0.972022381967986,-0.1647968374455772,-0.1633929670066174,-0.03629555215180968
1729788873507298600,1.076298583984375,-1.0352767705917358,-0.6514043211936951,-0.17834387719631195,-0.3356245458126068,0.3161761462688446,-0.8873493075370789,0.04947638511657715,-0.09106320142745972,-0.07854723930358887,0.9707121251291545,-0.16925410484998565,-0.16636820980798714,-0.03732044493637281
1729788873517329400,1.086329345703125,-0.8321045637130737,-0.6125695705413818,-0.2662774324417114,-0.34200507402420044,0.3240510821342468,-0.8820563554763794,-0.03149968385696411,-0.06576552987098694,-0.12738877534866333,0.9692953301443925,-0.17391833858962208,-0.16948222615817332,-0.03866300458859029
1729788873527360500,1.096360595703125,-0.4411434829235077,-0.4796408414840698,-0.310838520526886,-0.3478059768676758,0.328525185585022,-0.8781242370605469,-0.12230214476585388,-0.037479013204574585,-0.14770883321762085,0.9682205377770317,-0.17679642872557363,-0.17228143849364094,-0.04013976117702702
1729788873537390300,1.106390380859375,-0.31752246618270874,-0.30102822184562683,-0.2758925259113312,-0.3521566689014435,0.3307105004787445,-0.8755662441253662,-0.15551859140396118,0.07566159963607788,-0.09644907712936401,0.967499707898696,-0.17839900791594937,-0.17432920021234627,-0.04156351359090488
1729788873547421400,1.11642138671875,-0.1382153034210205,-0.20629796385765076,-0.14433583617210388,-0.3550874888896942,0.332061231136322,-0.8738697171211243,-0.11457815766334534,0.18264830112457275,-0.013154149055480957,0.9670165172106285,-0.17943227586245103,-0.17569632847253086,-0.042592596030478866
1729788873557451300,1.126451171875,0.0928749069571495,-0.18559667468070984,-0.049869511276483536,-0.35706862807273865,0.33188143372535706,-0.8731304407119751,-0.028826266527175903,0.13860809803009033,0.00005310773849487305,0.9668135585671738,-0.17947045636080083,-0.1767063440408853,-0.04286066116701362
1729788873567482000,1.136482177734375,0.06364697962999344,-0.17806418240070343,-0.047396499663591385,-0.3587894141674042,0.33090177178382874,-0.8727967739105225,0.02279078960418701,0.029892295598983765,0.023172199726104736,0.9667287132199156,-0.17901426609066626,-0.17763873274780295,-0.04282477553931346
1729788873577512200,1.14651220703125,-0.15213218331336975,-0.210464209318161,-0.13202457129955292,-0.36074206233024597,0.33093324303627014,-0.8719795346260071,0.03769811987876892,-0.056229233741760254,0.043396830558776855,0.9665047557584151,-0.17916844687473774,-0.1786305877931173,-0.04310868779356678
1729788873587543300,1.156543212890625,-0.3774436116218567,-0.24538357555866241,-0.23094849288463593,-0.3633306622505188,0.3325945734977722,-0.8702710866928101,0.03776901960372925,-0.10989251732826233,0.03552377223968506,0.9660208193168662,-0.18034504874899798,-0.17983362996642427,-0.04403949088636004
1729788873597574100,1.16657421875,-0.608972430229187,-0.2618009150028229,-0.2189277857542038,-0.3663022220134735,0.33614498376846313,-0.8676573634147644,0.024032235145568848,-0.11834099888801575,0.03457331657409668,0.9652814397596748,-0.1826365357977034,-0.18114972265060872,-0.04539426843888472
1729788873607604200,1.176604248046875,-0.5225760340690613,-0.09197510778903961,0.089732326567173,-0.3685877025127411,0.34070345759391785,-0.8649070858955383,0.024822324514389038,-0.09326690435409546,0.0008019208908081055,0.9645248561273196,-0.1853655998575139,-0.18217036337954948,-0.04631929973071337
1729788873617635300,1.18663525390625,-0.248819500207901,-0.3067585527896881,0.06901905685663223,-0.3704143762588501,0.3442920446395874,-0.8627028465270996,0.09682419896125793,-0.030464500188827515,-0.017469823360443115,0.9639720252408777,-0.1873090059322928,-0.18320454223351024,-0.045930194561948655
1729788873627665400,1.19666552734375,-0.23275744915008545,0.14793862402439117,0.31903448700904846,-0.37075290083885193,0.346699595451355,-0.8615925312042236,-0.018346309661865234,0.06446376442909241,-0.003229796886444092,0.9637090665873815,-0.18852133586554298,-0.18347599222835062,-0.04540058119873996
1729788873637696300,1.2066962890625,-0.01346251368522644,-0.018108025193214417,0.3368811309337616,-0.3692028820514679,0.34922927618026733,-0.8612363934516907,0.06164664030075073,0.15350207686424255,-0.0028535127639770508,0.9636938760111867,-0.1894954621296312,-0.1829569982065556,-0.043731441494369874
1729788873647726300,1.216726318359375,0.16401879489421844,-0.024185363203287125,-0.027921337634325027,-0.3686254024505615,0.34916552901268005,-0.8615096211433411,0.004153847694396973,0.10250991582870483,-0.05439913272857666,0.963807127909781,-0.1892556886698799,-0.18283182366672734,-0.04278913792954568
1729788873657757200,1.226757080078125,0.16084922850131989,-0.0033432487398386,-0.2656167149543762,-0.36950361728668213,0.34705623984336853,-0.8619855642318726,-0.10205408930778503,0.00713077187538147,-0.008101046085357666,0.9639031154435013,-0.18827509436190526,-0.1831931178101823,-0.043401331124323185
1729788873667787300,1.236787353515625,-0.04321575164794922,0.03249890357255936,-0.1243077963590622,-0.37003278732299805,0.345653772354126,-0.8623219728469849,-0.065041184425354,-0.04763433337211609,0.06921595335006714,0.9639470652558465,-0.18772438583158274,-0.18329911690893158,-0.04435092532690592
1729788873677818400,1.246818359375,-0.39409780502319336,-0.007951528765261173,0.02109813690185547,-0.3700543940067291,0.34740275144577026,-0.8616096377372742,0.025266677141189575,-0.055364757776260376,0.06146925687789917,0.9637435388112248,-0.1887455211314041,-0.18322205706045108,-0.0447593255571359
1729788873687849200,1.25684912109375,-0.5346237421035767,-0.1318921148777008,-0.04418100044131279,-0.37068623304367065,0.3515883684158325,-0.8596379160881042,0.019001543521881104,-0.04867085814476013,0.07800650596618652,0.9632136443063014,-0.19110789476652326,-0.1834633625068163,-0.04515094173823881
1729788873697879300,1.26687939453125,-0.3787675201892853,-0.10884901136159897,-0.14352837204933167,-0.37211617827415466,0.3552217185497284,-0.8575237989425659,-0.0334930419921875,-0.031323373317718506,-0.006382942199707031,0.9626273161632832,-0.19329038555488962,-0.18405683466423994,-0.04594098209106553
1729788873707910400,1.276910400390625,-0.19219790399074554,-0.01618245616555214,-0.1251477599143982,-0.37319329380989075,0.35716626048088074,-0.856247067451477,-0.0646577775478363,0.02802664041519165,-0.047851383686065674,0.9622529764002201,-0.19456463466815732,-0.18444801110580497,-0.04682764454852769
1729788873717940200,1.286940185546875,0.013481419533491135,0.10785256326198578,-0.017184803262352943,-0.37303492426872253,0.35765060782432556,-0.8561139106750488,-0.06203898787498474,0.10176101326942444,-0.038371503353118896,0.9621943439874362,-0.19491327559623242,-0.1842603121447242,-0.04731970027011092
1729788873727971300,1.296971435546875,0.15907244384288788,0.15321844816207886,0.06077471375465393,-0.37172403931617737,0.35695040225982666,-0.8569759130477905,-0.022166460752487183,0.10392612218856812,-0.0578647255897522,0.9624231417246907,-0.19445075659792616,-0.18357817880197383,-0.04722082669825572
1729788873738001400,1.30700146484375,0.17772142589092255,0.13710175454616547,0.016392864286899567,-0.3703000545501709,0.35563355684280396,-0.8581390976905823,0.010055214166641235,0.04411625862121582,-0.00846850872039795,0.9627365792300894,-0.19362459855613398,-0.18286599829045197,-0.046989115290933865
1729788873748032300,1.3170322265625,0.0360867977142334,0.05627187713980675,-0.021703654900193214,-0.36946025490760803,0.3545398414134979,-0.8589532375335693,0.02592375874519348,-0.028749406337738037,0.03532963991165161,0.9629470407276426,-0.19299603621470215,-0.1824168715469457,-0.04700791743162851
1729788873758062000,1.32706201171875,-0.25464388728141785,-0.04405999928712845,-0.021600857377052307,-0.3694789707660675,0.35538411140441895,-0.8585962057113647,0.048815399408340454,-0.07207414507865906,0.06428474187850952,0.9628445140817357,-0.1934913673183799,-0.182381422413979,-0.04720896637375589
1729788873768093200,1.33709326171875,-0.3464992642402649,-0.005059336312115192,-0.07634852081537247,-0.3699384033679962,0.3579798638820648,-0.8573191165924072,0.031422048807144165,-0.08261972665786743,0.06233620643615723,0.9624896541957555,-0.19500725232385033,-0.1825174447974716,-0.04768054642576926
1729788873778124300,1.347124267578125,-0.24998392164707184,0.09453292936086655,-0.13997411727905273,-0.36994463205337524,0.36017659306526184,-0.8563958406448364,-0.03892996907234192,-0.06647539138793945,0.0208856463432312,0.9622063700000598,-0.19636118772066635,-0.1823303864183012,-0.0485475557410455
1729788873788154000,1.357154052734375,-0.15926893055438995,0.2086603045463562,-0.0791187435388565,-0.3690609931945801,0.36150625348091125,-0.8562167882919312,-0.07176551222801208,0.013341158628463745,0.030563831329345703,0.9621139423573803,-0.197207547631139,-0.1816611582258467,-0.04944924029164939
1729788873798185200,1.367185302734375,0.013863981701433659,0.2863263785839081,0.05806680768728256,-0.3669344484806061,0.36216139793395996,-0.8568536639213562,-0.02550646662712097,0.10799244046211243,0.028331995010375977,0.9622606855374022,-0.19752316679624968,-0.18043766943569836,-0.049812618596106875
1729788873808215000,1.377215087890625,0.20652663707733154,0.3038009703159332,0.11250261962413788,-0.36404260993003845,0.36151859164237976,-0.8583573698997498,0.0340101420879364,0.12361937761306763,0.005696237087249756,0.9626645500995813,-0.19698119537047692,-0.17894059771142642,-0.04955563369124375
1729788873818246100,1.38724609375,0.2593219578266144,0.27978140115737915,0.12011872977018356,-0.3610704839229584,0.35978567600250244,-0.860338568687439,0.05638289451599121,0.08325329422950745,0.024156928062438965,0.9632031289030795,-0.19580799666459428,-0.1774541026249052,-0.049083283437363665
1729788873828276200,1.397276123046875,0.11616525053977966,0.2193690687417984,0.16322171688079834,-0.35838717222213745,0.35862013697624207,-0.861945629119873,0.08237084746360779,0.03803211450576782,0.05561023950576782,0.9636513816957278,-0.1949330274276989,-0.1761484981047021,-0.04846714554223947
1729788873838307000,1.40730712890625,-0.08305517584085464,0.16234466433525085,0.17971546947956085,-0.35613909363746643,0.3591046631336212,-0.8626753687858582,0.08557012677192688,-0.009434223175048828,0.09318995475769043,0.963873718721068,-0.19496484136040043,-0.17507434027234017,-0.0478034536986238
1729788873848337200,1.417337158203125,-0.29486364126205444,0.1360398828983307,0.22176678478717804,-0.35411953926086426,0.36142659187316895,-0.8625370860099792,0.04642593860626221,-0.04102250933647156,0.08125662803649902,0.9638699131496523,-0.1960047802467804,-0.17410797152620378,-0.047153598087657594
1729788873858368300,1.4273681640625,-0.3489452600479126,0.1532529592514038,0.2453775852918625,-0.35205963253974915,0.3653232157230377,-0.861738383769989,0.021477848291397095,-0.04981720447540283,0.02541947364807129,0.9636981288033206,-0.19788266906018553,-0.17312787196756135,-0.04642552540773799
1729788873868399000,1.437399169921875,-0.11925651878118515,0.2523556351661682,0.18030136823654175,-0.34957271814346313,0.36813610792160034,-0.8615536689758301,-0.03607800602912903,-0.037447601556777954,-0.041064679622650146,0.963680090331841,-0.1991756388630127,-0.17190758643761533,-0.045800999685494836
1729788873878429200,1.44742919921875,0.024196913465857506,0.41133761405944824,0.2144809067249298,-0.3460230827331543,0.36912915110588074,-0.8625611662864685,-0.10992491245269775,0.04191213846206665,-0.07673931121826172,0.9639672550212107,-0.19944983677934097,-0.1701151876638183,-0.04525480726260516
1729788873888460000,1.4574599609375,0.18906469643115997,0.5614155530929565,0.35515016317367554,-0.34071239829063416,0.36924436688423157,-0.8646234273910522,-0.0970776379108429,0.13580632209777832,-0.06335502862930298,0.9645465451477637,-0.19909867774166892,-0.16747537065284807,-0.04429163168710147
1729788873898490000,1.467489990234375,0.33889761567115784,0.6281655430793762,0.3963969349861145,-0.3340548276901245,0.3682471215724945,-0.8676413297653198,-0.05148911476135254,0.12029358744621277,-0.0474587082862854,0.9653959838952049,-0.1980040127369947,-0.16423683563586228,-0.04279625808159465
1729788873908521200,1.477521240234375,0.3740271031856537,0.6050703525543213,0.33002668619155884,-0.32726576924324036,0.36624884605407715,-0.8710677027702332,-0.024571508169174194,0.016044914722442627,0.01434779167175293,0.9663463033946295,-0.19638597293813187,-0.16093073376418637,-0.0413372868252239
1729788873918551300,1.48755126953125,0.1633528620004654,0.534772515296936,0.29808101058006287,-0.321120023727417,0.3647947907447815,-0.8739603757858276,0.01631033420562744,-0.06933879852294922,0.06796067953109741,0.9671437094162163,-0.19515222444378247,-0.15790952046375978,-0.04016766815697281
1729788873928582100,1.49758203125,-0.08496905118227005,0.4565136730670929,0.25107115507125854,-0.31573009490966797,0.3654521405696869,-0.8756479024887085,0.06455504894256592,-0.09836223721504211,0.09352821111679077,0.9676161653627899,-0.19514310801246662,-0.15522630346783936,-0.039281737021131934
1729788873938613200,1.50761328125,-0.2112060934305191,0.38377687335014343,0.20205247402191162,-0.3112390637397766,0.36749622225761414,-0.8763998746871948,0.05196163058280945,-0.10095566511154175,0.0706900954246521,0.9678335375473703,-0.1959722953341506,-0.15295395110443102,-0.0387073769668121
1729788873948643300,1.517643310546875,-0.1889965981245041,0.4130074679851532,0.12836706638336182,-0.30714327096939087,0.3698889911174774,-0.8768381476402283,0.014967858791351318,-0.07841557264328003,-0.017799854278564453,0.9679572421142592,-0.19705724089809012,-0.15082891173818738,-0.038444127245449905
1729788873958674200,1.527674072265625,-0.010063055902719498,0.4932454824447632,0.10211655497550964,-0.30274271965026855,0.37112611532211304,-0.8778452277183533,-0.05190214514732361,-0.03244200348854065,-0.06205034255981445,0.9682179091512987,-0.1975484003162051,-0.14849917780653799,-0.03843008764862194
1729788873968704300,1.537704345703125,0.1343441903591156,0.6162384748458862,0.13184009492397308,-0.29738956689834595,0.3709251582622528,-0.8797579407691956,-0.0860791802406311,0.03103715181350708,-0.08554357290267944,0.9687142728965121,-0.1972217660608011,-0.1456867042312975,-0.038362854689324134
1729788873978735000,1.547735107421875,0.293185830116272,0.7053925395011902,0.1630518138408661,-0.2909497618675232,0.3695094585418701,-0.8825026750564575,-0.09033694863319397,0.07172897458076477,-0.056034862995147705,0.9694309165642286,-0.1961816279305352,-0.14234261831137485,-0.038146034444980007
1729788873988765200,1.55776513671875,0.37270331382751465,0.7477312088012695,0.19421717524528503,-0.28381967544555664,0.36697277426719666,-0.8858766555786133,-0.06424868106842041,0.05551260709762573,-0.03784465789794922,0.9703162941728828,-0.19449451719816047,-0.138685133281549,-0.03774599121398891
1729788873998796300,1.56779638671875,0.3116452097892761,0.7356842160224915,0.19216947257518768,-0.27645212411880493,0.364416241645813,-0.8892553448677063,-0.014517813920974731,0.0166262686252594,0.005008518695831299,0.9712044751138436,-0.19278933301428974,-0.134924440400857,-0.0372782255200228
1729788874008826400,1.577826416015625,0.21574744582176208,0.6726077795028687,0.14169751107692719,-0.26952701807022095,0.362548828125,-0.8921399116516113,0.021785229444503784,-0.025512665510177612,0.07025575637817383,0.9719586708416095,-0.1915005956567265,-0.13136809379869882,-0.036966738275083774
1729788874018857200,1.587857177734375,0.14196456968784332,0.5632994174957275,0.1080000102519989,-0.26355311274528503,0.36129751801490784,-0.8944293260574341,0.04118669033050537,-0.05674731731414795,0.10098761320114136,0.9725522507837847,-0.1906056994207612,-0.1282762256739144,-0.03683641994283187
1729788874028888300,1.597888427734375,0.10191194713115692,0.5388925671577454,0.09803899377584457,-0.25831225514411926,0.36055049300193787,-0.8962578773498535,0.0465049147605896,-0.04547172784805298,0.08838129043579102,0.9730242175053241,-0.1900194245893618,-0.12555352634718123,-0.03678311968470929
1729788874038918100,1.607918212890625,0.27725085616111755,0.6273579001426697,0.11784332245588303,-0.2527134418487549,0.3592228293418884,-0.8983846306800842,0.01739230751991272,-0.00169411301612854,0.07625633478164673,0.9735730017700926,-0.18911262387316208,-0.12265442353637386,-0.03671722109832902
1729788874048949200,1.61794921875,0.528444230556488,0.7498579621315002,0.2089708298444748,-0.24594148993492126,0.3560209274291992,-0.9015331268310547,-0.012420430779457092,0.04873374104499817,0.05969047546386719,0.9743954983837734,-0.187133864253515,-0.11922401775347168,-0.03633440136773702
1729788874058979300,1.627979248046875,0.795271635055542,0.8339542746543884,0.3208023011684418,-0.23775120079517365,0.3506138324737549,-0.9058390259742737,-0.0009268820285797119,0.09556844830513,0.04272562265396118,0.9755339193041698,-0.18388345562791164,-0.1151840386872607,-0.03540101994113283
1729788874069010200,1.63801025390625,0.9563694000244141,0.8860518336296082,0.3836904466152191,-0.22873176634311676,0.34345126152038574,-0.9108913540840149,0.029879122972488403,0.10855990648269653,-0.004086613655090332,0.9768804239685616,-0.17963830941612552,-0.1108350055031667,-0.03392000985374002
1729788874079040300,1.648040283203125,0.9935541152954102,0.772814154624939,0.30736932158470154,-0.2197481095790863,0.33516019582748413,-0.9161760210990906,0.05098581314086914,0.08723363280296326,-0.017005741596221924,0.9782827708225617,-0.17483029920038393,-0.1065193398021722,-0.032420132337082616
1729788874089071400,1.6580712890625,0.8497501015663147,0.6426830291748047,0.24308167397975922,-0.21237142384052277,0.32728418707847595,-0.9207515716552734,0.028258785605430603,0.037019431591033936,0.023183882236480713,0.9794906861100113,-0.17034984912275872,-0.10298125035401685,-0.03120953394512816
1729788874099102200,1.668102294921875,0.6794800162315369,0.5706712007522583,0.27074819803237915,-0.2060774713754654,0.320700466632843,-0.9244908690452576,-0.00548572838306427,-0.020773649215698242,-0.009209692478179932,0.9804785139301151,-0.1666143353933697,-0.09997120982090832,-0.03012414325788124
1729788874109132300,1.67813232421875,0.578905463218689,0.6601741909980774,0.2460966259241104,-0.19951672852039337,0.3155539035797119,-0.9276954531669617,-0.04381527006626129,-0.08915922045707703,-0.02742844820022583,0.9813301112505998,-0.16363664562490404,-0.09682629091050289,-0.028965458868181457
1729788874119163400,1.688163330078125,0.6188424825668335,0.843836784362793,0.16811394691467285,-0.1919189840555191,0.3104071617126465,-0.9310287237167358,-0.12042853236198425,-0.1506170928478241,0.07385104894638062,0.9821975763479995,-0.1607007361892756,-0.09306397181166126,-0.028327698567872536
1729788874129193200,1.698193115234375,0.6258516907691956,0.9701646566390991,0.2603464126586914,-0.18275947868824005,0.3048590123653412,-0.9346978068351746,-0.10485351085662842,-0.1430547833442688,0.14452147483825684,0.98314783260738,-0.1575392806868515,-0.08850126280390962,-0.02773859461868318
1729788874139224300,1.708224365234375,0.6302298903465271,1.033409595489502,0.33749738335609436,-0.1723022162914276,0.2996244728565216,-0.9383693933486938,0.021316394209861755,-0.04788494110107422,0.14529389142990112,0.9841084228577123,-0.1544967990145197,-0.08334288414080677,-0.02674922926492674
1729788874149254400,1.71825439453125,0.7581407427787781,0.9215970039367676,0.29859501123428345,-0.16208480298519135,0.2936684787273407,-0.9420654773712158,0.08728614449501038,0.02093726396560669,0.1558564305305481,0.9850768845522013,-0.15109620978027904,-0.0783402552124028,-0.02562094764672184
1729788874159285200,1.72828515625,0.8343111276626587,0.7906566262245178,0.24582578241825104,-0.15317930281162262,0.2864784002304077,-0.9457622766494751,0.11874012649059296,0.05104604363441467,0.0668407678604126,0.9860399507022743,-0.14711521142699055,-0.07399992854832221,-0.024625372345838368
1729788874169315300,1.7383154296875,0.8571119904518127,0.6742346882820129,0.2141038030385971,-0.14553077518939972,0.27877748012542725,-0.9492649435997009,0.12110137939453125,0.054978013038635254,-0.0539851188659668,0.9869501721676599,-0.1429203155582959,-0.07029446518289949,-0.023707270237763933
1729788874179346400,1.748346435546875,0.7047528028488159,0.6109197735786438,0.1290653496980667,-0.13903731107711792,0.2714724540710449,-0.9523504376411438,0.05174168944358826,0.018887072801589966,-0.09852230548858643,0.9877478644929937,-0.13898411634573654,-0.06714311139976456,-0.023011176195465558
1729788874189377300,1.758377197265625,0.5318185687065125,0.7051051259040833,0.02832702174782753,-0.13257700204849243,0.2657617926597595,-0.9548790454864502,-0.07240967452526093,-0.019194960594177246,-0.14123600721359253,0.9883905465701234,-0.13592172950567885,-0.06391988587932612,-0.022885868159264532
1729788874199407400,1.768407470703125,0.3667878806591034,0.8238843083381653,0.07574540376663208,-0.12515299022197723,0.2613883316516876,-0.9570856094360352,-0.17671172320842743,-0.06377172470092773,-0.061209678649902344,0.9889441554545682,-0.1335587105858925,-0.0601603382002675,-0.023070592569071513
1729788874209438200,1.778438232421875,0.2843529284000397,0.8680304884910583,0.2205108404159546,-0.11652165651321411,0.25855687260627747,-0.9589426517486572,-0.17084720730781555,-0.06557893753051758,-0.004604041576385498,0.989419810883352,-0.13194774184028812,-0.05584312668136172,-0.02280093539560489
1729788874219468000,1.788468017578125,0.3900705575942993,0.9701511859893799,0.24816270172595978,-0.10713942348957062,0.2557942569255829,-0.9607759714126587,-0.10044122487306595,-0.062755286693573,-0.03138101100921631,0.9898984095801391,-0.1303463196209311,-0.05120408242457951,-0.022117030767125855
1729788874229499400,1.79849951171875,0.5102928280830383,0.976932168006897,0.20724590122699738,-0.09706352651119232,0.25146663188934326,-0.9629865884780884,-0.05476151406764984,-0.030977100133895874,0.07884663343429565,0.9904699104811132,-0.12794678774639734,-0.04622029521781792,-0.021508549226552497
1729788874239529200,1.808529296875,0.4356667697429657,0.934760570526123,0.23331691324710846,-0.08729181438684464,0.24712376296520233,-0.9650440216064453,0.004879012703895569,0.040657028555870056,0.1944599747657776,0.9910008624109564,-0.12555930363275755,-0.041386507338598624,-0.02096094472024182
1729788874249560000,1.81856005859375,0.47346046566963196,0.7813164591789246,0.27047282457351685,-0.07824002206325531,0.2429707795381546,-0.9668731689453125,0.09111835062503815,0.060908034443855286,0.1805877685546875,0.9914797610851229,-0.1232790098837743,-0.036955479087080675,-0.020112099569060748
1729788874259590100,1.828590087890625,0.1148606389760971,0.6698123812675476,0.2614838480949402,-0.0706595703959465,0.24010106921195984,-0.9681728482246399,0.11591705679893494,0.0015218853950500488,0.07594573497772217,0.9918253491606204,-0.12168429295317447,-0.033264045509457274,-0.01921087966349667
1729788874269621200,1.838621337890625,-0.033243875950574875,0.5955847501754761,0.2993454933166504,-0.0638120248913765,0.24016551673412323,-0.9686323404312134,0.07708708941936493,-0.011482000350952148,-0.10888230800628662,0.9919606372991955,-0.12160442559128497,-0.029936737807246632,-0.018173245934467105
1729788874279652000,1.848652099609375,-0.08831418305635452,0.5441268682479858,0.204324409365654,-0.05775255709886551,0.24081183969974518,-0.9688520431518555,-0.002779141068458557,-0.0013403892517089844,-0.29681867361068726,0.992032483563378,-0.12184232138415442,-0.02698929440276149,-0.017251980901907302
1729788874289682200,1.85868212890625,-0.1983083337545395,0.5348668098449707,0.18594859540462494,-0.052020855247974396,0.24231240153312683,-0.9688026309013367,-0.13506723940372467,0.06481653451919556,-0.25383836030960083,0.9920297520727613,-0.12253586090338792,-0.024158841455592155,-0.016681953568866613
1729788874299713000,1.868713134765625,-0.2499212622642517,0.5256345868110657,0.2844890356063843,-0.046318214386701584,0.24465782940387726,-0.9685025215148926,-0.14978782832622528,0.06588907539844513,-0.13440275192260742,0.9919677925616115,-0.12366090059950079,-0.021370804246610565,-0.01584945243354814
1729788874309743000,1.8787431640625,-0.2032506912946701,0.5851027369499207,0.31511297821998596,-0.040194667875766754,0.24705980718135834,-0.9681662321090698,-0.09010021388530731,-0.022236764430999756,-0.021824002265930176,0.9919005859003145,-0.12481161685477256,-0.018410497874750346,-0.01470977316905847
1729788874319774200,1.888774169921875,-0.23693396151065826,0.5970132350921631,0.37323781847953796,-0.033504460006952286,0.24931612610816956,-0.9678424000740051,-0.04124842584133148,-0.06314361095428467,0.17627745866775513,0.9918372993092461,-0.12588949397262858,-0.01518651620804883,-0.013421908553569053
1729788874329804300,1.89880419921875,-0.18732433021068573,0.48319029808044434,0.44609472155570984,-0.027105001732707024,0.25162994861602783,-0.9674438834190369,0.04433209449052811,-0.04301178455352783,0.33342599868774414,0.9917581738843411,-0.12700453649151192,-0.012161339585576204,-0.01174282857654251
1729788874339835100,1.908835205078125,-0.1801789253950119,0.33959782123565674,0.40810737013816833,-0.02212045155465603,0.2534051239490509,-0.9671072959899902,0.09951294958591461,-0.026339054107666016,0.19691991806030273,0.9916941247020953,-0.1278617392806674,-0.009885445160880841,-0.009830054745173627
1729788874349865200,1.918865234375,-0.2957630455493927,0.39881640672683716,0.324819415807724,-0.017701828852295876,0.25570806860923767,-0.9665919542312622,0.05157626420259476,0.012709289789199829,-0.008887112140655518,0.9915781042139626,-0.12900565227483912,-0.007845872714565069,-0.008302883015205346
1729788874359896000,1.92889599609375,-0.4511595666408539,0.3710043728351593,0.4520444869995117,-0.012864476069808006,0.25944194197654724,-0.96567302942276,0.03785829246044159,0.09974998235702515,-0.08698499202728271,0.9913586555127641,-0.13088950713428307,-0.0056055536533492325,-0.006685975461019204
1729788874369927200,1.93892724609375,-0.3654526472091675,0.15424275398254395,0.5288305878639221,-0.008865894749760628,0.2635763883590698,-0.964597761631012,0.09454391896724701,0.15025728940963745,-0.12581050395965576,0.9911003354912218,-0.13298868524957758,-0.0038881140995855445,-0.004357035004678531
1729788874379957200,1.948957275390625,-0.4194597005844116,0.05221566930413246,0.4397449493408203,-0.006764925085008144,0.267243355512619,-0.9636053442955017,0.006871659308671951,0.09376436471939087,-0.1482263207435608,0.9908575506892345,-0.1348610569044704,-0.0031349983456749994,-0.0020474835435634214
1729788874389988000,1.958988037109375,-0.6022958159446716,0.06380441784858704,0.5979025959968567,-0.004817509558051825,0.2721892297267914,-0.9622316956520081,-0.103733591735363,0.062314003705978394,-0.10385411977767944,0.9905128716273364,-0.13739710311045733,-0.0024880462091846673,0.00040529948218824075
1729788874400018200,1.96901806640625,-0.8366585969924927,0.03325002267956734,0.764491856098175,-0.002374695846810937,0.2792035937309265,-0.9602289795875549,-0.020147353410720825,0.07318291068077087,-0.03708541393280029,0.9900000418819679,-0.14100519729563785,-0.001742433521329515,0.0038130607367632507
1729788874410049300,1.97904931640625,-0.7236705422401428,-0.04152248427271843,0.6953585743904114,-0.00030604054336436093,0.28700876235961914,-0.957927942276001,0.051819633692502975,0.07990413904190063,-0.030963659286499023,0.9893976834036764,-0.1450326516999711,-0.001253994441889426,0.007499545213339621
1729788874420079000,1.9890791015625,-0.1686442494392395,0.05200948566198349,0.5609241127967834,0.0014921582769602537,0.2914957106113434,-0.9565709829330444,0.03027656488120556,0.068215012550354,-0.027575135231018066,0.9890262852865063,-0.14735613832439845,-0.0008261580353401598,0.010608116988711445
1729788874430110200,1.999110107421875,0.3169131577014923,0.16934411227703094,0.5550827383995056,0.004136218223720789,0.2905362844467163,-0.956855058670044,-0.02880975604057312,0.11716333031654358,0.033118486404418945,0.9890665985286636,-0.1468756769401066,0.00012690887187915127,0.0132260692970434
1729788874440140300,2.009140380859375,0.4777403771877289,0.29709959030151367,0.7237138152122498,0.008341660723090172,0.2866748869419098,-0.9579916000366211,-0.04792303591966629,0.1965709924697876,0.1426076889038086,0.9893094703016738,-0.1449165296837518,0.0018416711604893731,0.01620827860890226
1729788874450171100,2.019171142578125,0.7318568229675293,0.2508535385131836,0.757546603679657,0.013160848058760166,0.28085386753082275,-0.9596602916717529,-0.0028764987364411354,0.15417423844337463,0.0988357663154602,0.9896663637615827,-0.14196936740954863,0.0038139552940905774,0.019763987642484555
1729788874460202200,2.0292021484375,0.6570689678192139,0.19000549614429474,0.6129031181335449,0.017287300899624825,0.2736630141735077,-0.9616702795028687,0.00015342049300670624,0.005237191915512085,0.04054296016693115,0.990104446588757,-0.13832717939990535,0.005518790343595155,0.02298515770392687
1729788874470232300,2.039232421875,0.4228660464286804,0.10418272763490677,0.6142110228538513,0.020348891615867615,0.2686876654624939,-0.9630123972892761,0.0010896343737840652,-0.06051194667816162,0.08772248029708862,0.9903719703175471,-0.13582556927509318,0.006724349000713086,0.025877592301021397
1729788874480263200,2.04926318359375,0.295268714427948,0.03717456012964249,0.5310290455818176,0.02244061790406704,0.2647557854652405,-0.9640543460845947,0.04010508209466934,-0.0860600471496582,-0.09959006309509277,0.9905573563828675,-0.133855610247837,0.007449560884967223,0.028695784120181426
1729788874490293200,2.059293212890625,0.08589603006839752,0.18752917647361755,0.5392526388168335,0.024957366287708282,0.2632824182510376,-0.9643959403038025,-0.02092912048101425,0.00193062424659729,-0.15964275598526,0.9905662151680935,-0.13315981310569802,0.008396440279813287,0.03125157098760336
1729788874500324400,2.069324462890625,0.44443392753601074,0.27988937497138977,0.5213138461112976,0.028608860448002815,0.2607789635658264,-0.9649745225906372,-0.034575119614601135,0.08348989486694336,-0.09386330842971802,0.990630196082302,-0.13196155208899973,0.009943568582011317,0.03375248894905696
1729788874510354200,2.079354248046875,1.0988656282424927,0.39389291405677795,0.4366585910320282,0.03313698619604111,0.2531629204750061,-0.9668560028076172,-0.03684494271874428,0.11082026362419128,-0.03169441223144531,0.9910299179410312,-0.1281645206675503,0.012077527590863257,0.03588591836517471
1729788874520385300,2.08938525390625,1.5672264099121094,0.48553040623664856,0.37212273478507996,0.038481537252664566,0.2398565709590912,-0.9700453877449036,-0.029539961367845535,0.1401025801897049,0.08991843461990356,0.9917744429182329,-0.12148280909806028,0.014806951134787995,0.03750006880466942
1729788874530415400,2.099415283203125,1.6187713146209717,0.41500991582870483,0.3664014935493469,0.043756164610385895,0.22401782870292664,-0.973602294921875,0.011053331196308136,0.09939225018024445,0.2684478759765625,0.9926154136463371,-0.11353207126872568,0.01758759682056353,0.038934930902276746
1729788874540446200,2.1094462890625,1.5843290090560913,0.3651595115661621,0.3143337368965149,0.04825123772025108,0.20811711251735687,-0.9769130349159241,0.06699831783771515,-0.048708513379096985,0.30496180057525635,0.9933945617163857,-0.10556195636063515,0.020003776972778883,0.040298377727416596
1729788874550477300,2.119477294921875,1.1539841890335083,0.35223281383514404,0.12042046338319778,0.052234355360269547,0.19431066513061523,-0.9795483350753784,0.04868720844388008,-0.19681306183338165,0.06292235851287842,0.9940258897992339,-0.09865641456562316,0.0221978031580253,0.04107169513347324
1729788874560507400,2.12950732421875,0.613791823387146,0.31074875593185425,0.04167212173342705,0.05575213581323624,0.18570494651794434,-0.9810225963592529,0.0013461783528327942,-0.17804501950740814,-0.2206985354423523,0.9943930227594128,-0.09437462318539958,0.02412722500164994,0.041156446283506225
1729788874570538200,2.139538330078125,0.3390406668186188,0.21909046173095703,0.04212672635912895,0.05841781944036484,0.1811985820531845,-0.9817099571228027,0.03624763712286949,-0.09556621313095093,-0.41195154190063477,0.9945642409532562,-0.09215279272327812,0.025551623468132577,0.04119440216396918
1729788874580568300,2.149568359375,0.29390886425971985,0.21674369275569916,-0.02029750496149063,0.06052101403474808,0.17818184196949005,-0.9821346402168274,0.05926040932536125,-0.00023379921913146973,-0.3229801058769226,0.9946741113531982,-0.09067064076291341,0.026674282741330647,0.04111903213243378
1729788874590599400,2.159599365234375,0.4444810748100281,0.24860574305057526,-0.05918125435709953,0.0627647340297699,0.1747247874736786,-0.9826148152351379,0.06601937860250473,0.0784948468208313,-0.07558220624923706,0.9948098167489957,-0.08896125221744923,0.027901549612087177,0.040755178121899174
1729788874600629200,2.169629150390625,0.5267256498336792,0.3674836754798889,-0.05620117858052254,0.06573560833930969,0.1698799431324005,-0.9832698702812195,0.09773173183202744,0.09170150756835938,0.11385458707809448,0.9949950973676274,-0.08656179956832052,0.029531659993288835,0.040248084376906426
1729788874610660400,2.179660400390625,0.6446133852005005,0.42620185017585754,-0.10250715911388397,0.06954313069581985,0.1642766147851944,-0.9839598536491394,0.11020533740520477,0.07963515818119049,0.2192351222038269,0.9951929620693424,-0.08379372016663604,0.03160215550119929,0.03963689284921249
1729788874620690200,2.189690185546875,0.8352592587471008,0.4612932503223419,-0.22528980672359467,0.07369489967823029,0.15698975324630737,-0.984846830368042,0.07370493561029434,0.02582584321498871,0.05660891532897949,0.9954600609181926,-0.0801648043199125,0.0339144071863628,0.03850831194831809
1729788874630721300,2.19972119140625,0.9396610260009766,0.46571436524391174,-0.2961525022983551,0.07783818989992142,0.14830282330513,-0.9858739972114563,-0.01384289562702179,0.017224550247192383,-0.00031679868698120117,0.995781342413218,-0.07580752319280602,0.03627991361315945,0.03683319842048382
1729788874640752400,2.20975244140625,1.0047968626022339,0.47150230407714844,-0.23404361307621002,0.08214541524648666,0.1390671283006668,-0.9868700504302979,-0.07982614636421204,0.026445001363754272,-0.06410956382751465,0.9960941223655546,-0.07117063636038728,0.038726243907238875,0.035094856406062774
1729788874650782200,2.2197822265625,0.7560871243476868,0.46640074253082275,-0.10566326975822449,0.08654653280973434,0.13012655079364777,-0.9877129197120667,-0.12658566236495972,-0.07495073974132538,-0.11458200216293335,0.9963459957449405,-0.06670359173180414,0.04116040226574663,0.033930155619580585
1729788874660813300,2.229813232421875,0.42559492588043213,0.41175079345703125,-0.10906439274549484,0.09077990055084229,0.12455713748931885,-0.9880508780479431,-0.16653984785079956,-0.17309531569480896,-0.08870083093643188,0.9964562369787734,-0.06394565419568754,0.04342252760493791,0.03317349613979562
1729788874670843100,2.239843017578125,-0.009369036182761192,0.4659082889556885,-0.23842132091522217,0.09468027949333191,0.1223677545785904,-0.9879583716392517,-0.16210892796516418,-0.205741748213768,0.04377502202987671,0.9964701357551905,-0.06286312332619692,0.045486624899572434,0.03203905216118726
1729788874680874000,2.2498740234375,-0.39383774995803833,0.3153243660926819,-0.15153515338897705,0.098358154296875,0.12485798448324203,-0.9872872829437256,-0.07370001077651978,-0.14701372385025024,0.2930428981781006,0.9963355844244483,-0.0641309679985399,0.04736646512178159,0.030970697867833026
1729788874690904000,2.259904052734375,-0.5461990833282471,0.2539542317390442,-0.14207054674625397,0.10101495683193207,0.12946859002113342,-0.9864248037338257,0.06277281790971756,-0.12432634830474854,0.10506188869476318,0.9961404699868599,-0.0664648417307806,0.048682951673254746,0.030277967239706317
1729788874700935200,2.26993505859375,-0.622967541217804,0.16641777753829956,-0.15124966204166412,0.10289060324430466,0.1356758177280426,-0.985396146774292,0.042525582015514374,-0.06693495810031891,0.11202889680862427,0.9959013473871289,-0.06959296256703125,0.049585665537552864,0.029641945711855217
1729788874710965200,2.27996533203125,-0.5645513534545898,0.10534722357988358,-0.17363592982292175,0.10399290174245834,0.14165562391281128,-0.9844384789466858,-0.010242961347103119,-0.03327241539955139,0.1333490014076233,0.9956822774762077,-0.07259028639187727,0.05011387234608943,0.028915100946613835
1729788874720996000,2.28999609375,-0.6061875224113464,0.09114713966846466,-0.10977545380592346,0.10473839938640594,0.14753781259059906,-0.9834949970245361,-0.08064484596252441,-0.017029374837875366,0.08569842576980591,0.9954638960077572,-0.07553809050857532,0.050462708892132155,0.028269116383184016
1729788874731027200,2.300027099609375,-0.7768878936767578,0.040339887142181396,-0.012980204075574875,0.10532191395759583,0.15433765947818756,-0.9823884963989258,-0.1053372323513031,-0.05051682889461517,-0.02977275848388672,0.9951902142354446,-0.07897388536040821,0.05068402903200369,0.02811949257242745
1729788874741057300,2.310057373046875,-1.039950966835022,-0.06613824516534805,0.0055743055418133736,0.10528770089149475,0.16329596936702728,-0.9809429049491882,-0.10052702575922012,-0.1583978682756424,-0.06858712434768677,0.9948203684758281,-0.08351358538463834,0.05053752167494584,0.028355804404392636
1729788874751090200,2.320090087890625,-1.268527865409851,-0.23999686539173126,-0.005769695620983839,0.10373115539550781,0.17463620007038116,-0.9791537523269653,-0.08511549979448318,-0.26330500841140747,-0.05655181407928467,0.994359592115149,-0.08924647470184147,0.04958019635902126,0.028741014640657682
1729788874761120000,2.3301201171875,-1.6315042972564697,-0.32796773314476013,-0.038967594504356384,0.10090161859989166,0.18882809579372406,-0.9768126010894775,-0.07421406358480453,-0.288574755191803,-0.07709670066833496,0.9937604871137585,-0.09641064212491825,0.04794471161150079,0.029096886590241473
1729788874771151000,2.340151123046875,-1.822221279144287,-0.3968717157840729,-0.0738358274102211,0.09727362543344498,0.2059655636548996,-0.9737125039100647,-0.11245618760585785,-0.23210382461547852,0.0665317177772522,0.9929696416631335,-0.10507243441900752,0.045864287920626974,0.02945555379349464
1729788874781181200,2.35018115234375,-1.613532543182373,-0.4087665379047394,-0.2301977425813675,0.09294053167104721,0.22320063412189484,-0.9703316688537598,-0.15371635556221008,-0.16111259162425995,0.16619348526000977,0.9921206961462745,-0.11377339557069635,0.04347163900632709,0.029366749944268255
1729788874791212000,2.3602119140625,-0.9216302037239075,-0.2813177704811096,-0.42680826783180237,0.08872698992490768,0.23600465059280396,-0.9676927924156189,-0.21627527475357056,0.022418245673179626,0.2789873480796814,0.99148942108652,-0.12019056828154874,0.04132594474417746,0.028199037040523782
1729788874801242000,2.3702421875,-0.10035280138254166,-0.05988604575395584,-0.46201685070991516,0.085997574031353,0.24146069586277008,-0.96659255027771,-0.23475557565689087,0.238199383020401,0.33976149559020996,0.9912686563745537,-0.12285198389006328,0.040138658631653175,0.026133814408347587
1729788874811273200,2.380273193359375,0.35683152079582214,0.14013519883155823,-0.2839975953102112,0.08555804938077927,0.24013523757457733,-0.966961681842804,-0.17206019163131714,0.29088592529296875,0.40646058320999146,0.9914112652015816,-0.12208758520150607,0.040171874240417106,0.024180791294467277
1729788874821304000,2.390303955078125,0.3269135057926178,0.09563041478395462,-0.10542278736829758,0.08641655743122101,0.23689992725849152,-0.9676831364631653,-0.06102599948644638,0.12430617213249207,0.2904370427131653,0.9916192009588676,-0.12040024521527787,0.04077037940152404,0.02308623872454903
1729788874831334100,2.400334228515625,0.3129526674747467,-0.09834971278905869,-0.19130867719650269,0.08601661771535873,0.23378071188926697,-0.9684770107269287,0.0783815085887909,-0.06659011542797089,-0.2817060947418213,0.9918347856809026,-0.11877177912000095,0.04067874090453849,0.022410352845367996
1729788874841365000,2.410364990234375,0.015928862616419792,-0.10149932652711868,-0.3645068109035492,0.08434512466192245,0.2323680967092514,-0.9689638614654541,0.21115651726722717,-0.057578638195991516,-0.6945950984954834,0.9919889264527855,-0.11796859973861246,0.04001844126919401,0.020977700499204065
1729788874851395000,2.42039501953125,-0.2918257713317871,-0.18437795341014862,-0.24299077689647675,0.08226065337657928,0.2339571714401245,-0.9687606692314148,0.36491334438323975,0.06073586642742157,-0.6305435299873352,0.9919682263934606,-0.11869437490378439,0.039131928888450844,0.019484455664328437
1729788874861426200,2.43042626953125,-0.6148265600204468,-0.43271538615226746,-0.051603227853775024,0.07907190173864365,0.23860621452331543,-0.9678918719291687,0.4826193153858185,0.06014564633369446,-0.3806188106536865,0.991757394584931,-0.12101623933659175,0.03753826909414947,0.019064348503082622
1729788874871456300,2.440456298828125,-0.8168813586235046,-0.7109019756317139,-0.12457676976919174,0.07328011095523834,0.24554269015789032,-0.9666120409965515,0.3493119776248932,-0.06591618061065674,-0.016343891620635986,0.9914320988571904,-0.12450128065180735,0.03454582131158803,0.019198351278498723
1729788874881487000,2.450487060546875,-0.9794391393661499,-0.8314990401268005,-0.36477792263031006,0.0650923028588295,0.25471577048301697,-0.9648227095603943,0.05610819160938263,-0.1915138065814972,0.2294864058494568,0.9909910228094602,-0.12908837209002066,0.030411049805169905,0.01866219936370613
1729788874891517200,2.46051708984375,-0.7341926097869873,-0.6037366986274719,-0.63578200340271,0.056747328490018845,0.26325350999832153,-0.9630562663078308,-0.1764831244945526,-0.22597622871398926,0.3106209635734558,0.9905792122521115,-0.13332509928946068,0.02638736583555311,0.016762693489424933
1729788874901548000,2.470548095703125,-0.7605268359184265,-0.22655491530895233,-0.5846753716468811,0.05099926143884659,0.27083539962768555,-0.9612737894058228,-0.29214924573898315,-0.13391822576522827,0.39599668979644775,0.9901725759629111,-0.13709786596311838,0.023817779805426834,0.013974824089717293
1729788874911579100,2.4805791015625,-0.4852343201637268,-0.012184038758277893,-0.2632600665092468,0.048850663006305695,0.27721667289733887,-0.959564745426178,-0.19359560310840607,0.05286151170730591,0.31204283237457275,0.9897669203929644,-0.14031995863294416,0.022976586202647184,0.01200019785780194
1729788874921609200,2.490609130859375,-0.11944407224655151,0.0036816373467445374,-0.13110338151454926,0.04840809479355812,0.2802678942680359,-0.9587004780769348,0.010155066847801208,0.1214655339717865,0.046789467334747314,0.9895582326492974,-0.14187069433757651,0.022857747733454604,0.011171972003415197
1729788874931640000,2.50064013671875,0.0530262291431427,-0.050430066883563995,-0.2851400673389435,0.04762524738907814,0.28038519620895386,-0.9587053656578064,0.12017558515071869,0.12269100546836853,-0.07295656204223633,0.989570213889889,-0.14190254398936158,0.0226049453638826,0.010172074503846579
1729788874941670100,2.510670166015625,-0.045989230275154114,-0.19774596393108368,-0.3310021162033081,0.045632366091012955,0.28051474690437317,-0.958764374256134,0.15196888148784637,0.09004497528076172,-0.03650534152984619,0.9895993182827187,-0.14192283396010139,0.02181080614293371,0.008682348557050152
1729788874951701200,2.520701171875,-0.15708112716674805,-0.3409039378166199,-0.3528922200202942,0.04199158400297165,0.2815696895122528,-0.9586215019226074,0.17118889093399048,-0.02430647611618042,-0.019237935543060303,0.9895749507477964,-0.1424154581741997,0.020176068032868793,0.007232781544636757
1729788874961731000,2.53073095703125,-0.4750124216079712,-0.32679757475852966,-0.4374614357948303,0.03756760433316231,0.28465673327445984,-0.9578931331634521,0.06631416082382202,-0.13454073667526245,0.05413031578063965,0.9894018200119925,-0.14395470966225768,0.01817922914185015,0.005538124267996104
1729788874971762200,2.54076220703125,-0.5054137706756592,-0.2720848023891449,-0.42931056022644043,0.03342600166797638,0.2897624671459198,-0.9565147161483765,-0.04865435138344765,-0.1575450599193573,0.15515369176864624,0.9890624643778302,-0.14654294057808692,0.016364672594099742,0.0035983854562668884
1729788874981792300,2.550792236328125,-0.38950225710868835,-0.14414238929748535,-0.2861398160457611,0.030305014923214912,0.2941036522388458,-0.9552929997444153,-0.05972403287887573,-0.13152122497558594,0.16084414720535278,0.9887581943874154,-0.14875380611999894,0.015027257558451376,0.0019776534108554558
1729788874991823000,2.560822998046875,-0.034066926687955856,-0.05876118317246437,-0.09262576699256897,0.028979402035474777,0.29645025730133057,-0.9546085596084595,-0.026004010811448097,-0.02154788374900818,0.16431009769439697,0.9885864131501713,-0.14995350105683788,0.014480362827029932,0.0011644346917018798
1729788875001854200,2.570854248046875,0.2573617994785309,-0.0769660696387291,-0.11136749386787415,0.028038494288921356,0.29510363936424255,-0.9550537467002869,0.0050424858927726746,0.040116727352142334,0.01943063735961914,0.9886993432634334,-0.14924898770836098,0.014066125211146103,0.0007509461975821523
1729788875011884300,2.58088427734375,0.6884652376174927,-0.007279135286808014,-0.17770791053771973,0.0273570716381073,0.29117918014526367,-0.9562773108482361,0.01378055103123188,0.054798632860183716,-0.20418411493301392,0.9890089671914316,-0.14720926153388797,0.013812343096535819,0.00012230415856630267
1729788875021915100,2.5909150390625,0.7987276911735535,0.015781816095113754,-0.4922429323196411,0.026321083307266235,0.2834332287311554,-0.9586306810379028,0.019256845116615295,-0.009736299514770508,-0.2036464810371399,0.9896024069955974,-0.14318403203625887,0.01352717211966464,-0.0015782520998112116
1729788875031945000,2.600945068359375,0.07509571313858032,-0.11960023641586304,-0.4360608756542206,0.024606242775917053,0.2790679633617401,-0.9599560499191284,-0.05213317275047302,0.056304991245269775,0.09173095226287842,0.9899300037426105,-0.14089960910294536,0.013010605431334286,-0.004091334439515846
1729788875041976300,2.610976318359375,-0.44369763135910034,-0.3194115161895752,-0.04826122894883156,0.02172800339758396,0.2811763882637024,-0.9594100713729858,0.02050825022161007,0.12208291888237,0.13371127843856812,0.9897873112447957,-0.1419781769787485,0.011710998348070191,-0.005123291668756291
1729788875052006000,2.621005859375,-0.7287514805793762,-0.26703378558158875,0.12098851054906845,0.01896919310092926,0.2869660258293152,-0.9577529430389404,0.00871017761528492,0.0767119824886322,-0.09635472297668457,0.9893714344724354,-0.14497728298865895,0.010252932484419212,-0.004548039157639255
1729788875062037000,2.631037109375,-0.5334041714668274,-0.11933743953704834,0.017110321670770645,0.017282012850046158,0.2933056056499481,-0.9558625221252441,-0.12153013050556183,0.12460216879844666,-0.26020193099975586,0.9888958914140117,-0.14826130914638688,0.009344458897823808,-0.004044819108611463
1729788875072067000,2.641067138671875,-0.1330476999282837,0.01628643274307251,0.13785697519779205,0.017053304240107536,0.2964897155761719,-0.9548838138580322,-0.17588211596012115,0.2438545823097229,-0.19143271446228027,0.9886498331597493,-0.14991269186861544,0.009181066088725875,-0.003670184282535391
1729788875082098000,2.651097900390625,0.14670118689537048,0.09423108398914337,0.2498178631067276,0.018200289458036423,0.2963477373123169,-0.954906702041626,-0.09818693995475769,0.2865990996360779,0.0012323856353759766,0.9886588314727828,-0.14984735013545442,0.0096138089900913,-0.00270029873177662
1729788875092129000,2.66112890625,0.3795325756072998,0.12480683624744415,0.2692187428474426,0.020064903423190117,0.2936812937259674,-0.9556927680969238,-0.058974891901016235,0.2395065724849701,0.0739026665687561,0.9888601192024703,-0.14847901538554575,0.010372408657120804,-0.0015113902091758828
1729788875102159000,2.6711591796875,0.2752803564071655,0.08028800040483475,0.2736544907093048,0.021888775750994682,0.2903287708759308,-0.9566766023635864,-0.0349808894097805,0.1821596920490265,0.039608120918273926,0.9891099609417777,-0.14675979405979175,0.011102428440509612,-0.0002530292541078762
1729788875112190000,2.68118994140625,0.11591997742652893,-0.034289710223674774,0.26360052824020386,0.02296571619808674,0.28853708505630493,-0.9571932554244995,-0.0005353707820177078,0.09543511271476746,-0.012411236763000488,0.9892398727475998,-0.14584986923559978,0.011453830542972731,0.0010440325128007648
1729788875122220000,2.691219970703125,-0.00900305062532425,-0.1560056507587433,0.25778526067733765,0.02273685671389103,0.28778374195098877,-0.9574254751205444,0.049101442098617554,-0.06126701831817627,-0.1550622582435608,0.9892962711227277,-0.14547578243211493,0.01113790125437726,0.002404140328019084
1729788875132251100,2.701251220703125,-0.30702701210975647,-0.22161075472831726,0.12261731177568436,0.021576281636953354,0.2893783748149872,-0.9569715857505798,0.08386187255382538,-0.1640884280204773,-0.19981247186660767,0.989178042966763,-0.14630962981974974,0.010377655258868067,0.003573192229980328
1729788875142281000,2.711281005859375,-0.5047073364257812,-0.2897206246852875,-0.10372582077980042,0.01907753385603428,0.29320624470710754,-0.9558588266372681,0.0615193173289299,-0.13478946685791016,-0.20351916551589966,0.9888958988117695,-0.14828418840490595,0.009075881776579458,0.003801248568284015
1729788875152312000,2.72131201171875,-0.6792925000190735,-0.34761136770248413,-0.06300581991672516,0.015770655125379562,0.29913315176963806,-0.9540810585021973,0.01686781831085682,-0.015991002321243286,-0.08238744735717773,0.9884473150028917,-0.15134138973651368,0.007433307004630471,0.0035541834678912963
1729788875162342100,2.731342041015625,-0.4323677718639374,-0.3784329295158386,0.08541347831487656,0.012295070104300976,0.3046496510505676,-0.9523851275444031,0.01962624117732048,0.06334662437438965,0.038185298442840576,0.9880168636799053,-0.1541946001251047,0.005608771573796894,0.003929930148374219
1729788875172373000,2.741373046875,-0.09737992286682129,-0.24161595106124878,0.09411215782165527,0.0095130680128932,0.3070943057537079,-0.9516315460205078,-0.036231283098459244,0.0421488881111145,0.029863417148590088,0.9878228849104312,-0.1554592746490698,0.004079163256710164,0.004676742413844267
1729788875182404000,2.751404052734375,0.06223917007446289,-0.04197639226913452,0.10254905372858047,0.008504326455295086,0.3071717321872711,-0.951616108417511,-0.11182166635990143,0.03212273120880127,0.154161274433136,0.9878161189847315,-0.15549865863519605,0.0034811641584514127,0.005230997765505388
1729788875192434200,2.76143408203125,0.2262294441461563,-0.02174649015069008,0.21406838297843933,0.008825777098536491,0.3058333992958069,-0.9520441293716431,-0.05106218159198761,0.02143716812133789,0.25381720066070557,0.9879199163267943,-0.15480801547670234,0.003522786553179852,0.00602460742705406
1729788875202465000,2.771465087890625,0.17102636396884918,-0.08284808695316315,0.20920252799987793,0.00895900372415781,0.303738534450531,-0.9527133107185364,0.0730416551232338,-0.04443064332008362,0.16284215450286865,0.9880815856986802,-0.1537259500211635,0.0034171716029375346,0.007175479272243109
1729788875212495000,2.7814951171875,0.09183993935585022,-0.08166590332984924,0.09874313324689865,0.008676296100020409,0.302564799785614,-0.9530892968177795,0.09801308065652847,-0.06359687447547913,0.0021158456802368164,0.988170242269813,-0.15311900506432405,0.0031475879660140885,0.008018570096681757
1729788875222526000,2.79152587890625,0.023541510105133057,-0.102267324924469,0.014609611593186855,0.007953960448503494,0.30192244052886963,-0.953299343585968,0.04426153749227524,-0.041622698307037354,-0.10784262418746948,0.988220741837092,-0.15278370586276616,0.0027349670576609915,0.008340083737909277
1729788875232556000,2.80155615234375,0.18803377449512482,-0.07740165293216705,0.01586848869919777,0.007109686732292175,0.30123966932296753,-0.9535219669342041,-0.015257954597473145,0.04101499915122986,-0.2118985652923584,0.9882759556160756,-0.15242629351428943,0.0022908698903028085,0.008468562875282023
1729788875242587100,2.811587158203125,0.38974007964134216,-0.11355236917734146,0.07068193703889847,0.006406534928828478,0.29823169112205505,-0.954472005367279,-0.06275732070207596,0.08920428156852722,-0.31319767236709595,0.9885138604623043,-0.15086537044705334,0.0019063065336259958,0.008741946117285328
1729788875252617200,2.8216171875,0.5041177868843079,-0.15608224272727966,0.10256210714578629,0.005324636586010456,0.29418113827705383,-0.9557348489761353,-0.07195984572172165,0.08170390129089355,-0.11453181505203247,0.9888280530277348,-0.14876458000837975,0.0012933036322861993,0.009299682521048862
1729788875262648000,2.83164794921875,0.6464704871177673,-0.09275638312101364,0.0664999783039093,0.004342079162597656,0.2885283827781677,-0.9574614763259888,-0.055306512862443924,0.032821714878082275,0.017321765422821045,0.9892595267738395,-0.14583789563711247,0.0007468624444597903,0.009820484737339485
1729788875272679200,2.84167919921875,0.5555583834648132,0.05708558112382889,0.07759949564933777,0.004405076615512371,0.28265005350112915,-0.9592129588127136,-0.06724084913730621,-0.008831024169921875,0.0809323787689209,0.989698605771512,-0.14280382223963925,0.0007597936076574196,0.010157793558009384
1729788875282709200,2.851709228515625,0.4682532548904419,0.08859114348888397,0.12738196551799774,0.005437503568828106,0.27777913212776184,-0.9606295824050903,-0.02196284756064415,-0.018181324005126953,0.1345493197441101,0.990051526038697,-0.1402984965894639,0.0012400539631940506,0.010627587396155326
1729788875292740000,2.861739990234375,0.3055011034011841,0.07633235305547714,0.12517979741096497,0.006645062007009983,0.2739463150501251,-0.9617220163345337,0.054924074560403824,-0.030629634857177734,0.04430264234542847,0.9903208852931368,-0.1383321427317932,0.0017888163027309288,0.011212352774524877
1729788875302770200,2.871770263671875,0.16207055747509003,0.06302160769701004,0.04060392826795578,0.0075328960083425045,0.271774023771286,-0.9623316526412964,0.08200560510158539,-0.014571815729141235,-0.023218274116516113,0.990470412343855,-0.13722012796853703,0.002196241323902711,0.011595499626770296
1729788875312801000,2.881801025390625,0.05269720032811165,0.011952296830713749,0.032807789742946625,0.008024380542337894,0.2707279920578003,-0.9626224637031555,0.05122542381286621,0.0038234293460845947,-0.05606955289840698,0.99054235966057,-0.13668523450061046,0.0024340612741526116,0.011714137561636914
1729788875322831000,2.8918310546875,0.11892981082201004,-0.022565361112356186,0.018432311713695526,0.00800730288028717,0.27004992961883545,-0.9628130197525024,0.02930036187171936,-0.0033415257930755615,-0.09356820583343506,0.9905886277145066,-0.13633666003359488,0.002408498859044121,0.011866359245092347
1729788875332862200,2.9018623046875,0.10191034525632858,-0.03931664302945137,-0.038969460874795914,0.007726158946752548,0.268824964761734,-0.9631580710411072,-0.010335487313568592,-0.03109300136566162,-0.11618763208389282,0.9906761471385828,-0.1357047367816352,0.0022786890930375867,0.01183183778096738
1729788875342892300,2.911892333984375,0.11091243475675583,-0.04572410136461258,-0.06558003276586533,0.007109581492841244,0.26796966791152954,-0.9634011387825012,-0.05015470087528229,-0.04303982853889465,-0.004692733287811279,0.9907401625221839,-0.1352605791321949,0.002004337702585991,0.011599926722694692
1729788875352923100,2.921923095703125,0.25631624460220337,-0.01152671780437231,-0.11115417629480362,0.0066089448519051075,0.26615098118782043,-0.9639086723327637,-0.05461316928267479,-0.03862714767456055,-0.012867391109466553,0.9908730233636204,-0.13432178923507887,0.0018185313743278723,0.011186113317107043
1729788875362954200,2.931954345703125,0.2731001377105713,-0.00329669751226902,-0.12791824340820312,0.0062599689699709415,0.2636164426803589,-0.964607298374176,-0.06732571870088577,-0.007573902606964111,-0.038719117641448975,0.9910560594176666,-0.13301628865547693,0.001740641816697916,0.01056194652602517
1729788875372984000,2.941984130859375,0.32652023434638977,-0.01593020185828209,-0.10944362729787827,0.005767926573753357,0.26069989800453186,-0.9654026627540588,-0.047058284282684326,0.0014613866806030273,-0.017690598964691162,0.9912626559514814,-0.13151486293838263,0.0015846028759586045,0.009985225748926541
1729788875383015200,2.95201513671875,0.2313806563615799,-0.003440028987824917,-0.1207338273525238,0.005438813008368015,0.25794002413749695,-0.9661456346511841,-0.03572758659720421,-0.03351372480392456,-0.030085444450378418,0.991455634570246,-0.13009579649493216,0.0015064482609237222,0.009422517219400146
1729788875393045200,2.962045166015625,0.13071157038211823,0.015932336449623108,-0.16259980201721191,0.005118078086525202,0.25628238916397095,-0.9665883779525757,-0.04187657684087753,-0.05199769139289856,-0.011057436466217041,0.991573479180364,-0.1292428580330614,0.0014426050242287176,0.008732320783550096
1729788875403076000,2.972076171875,0.1617385894060135,0.041875630617141724,-0.2507224678993225,0.0048189833760261536,0.2549198865890503,-0.9669501781463623,-0.04288974031805992,-0.07565957307815552,-0.029830217361450195,0.9916733179537446,-0.12854128295685735,0.001431613822099202,0.007700238512136643
1729788875413106200,2.982106201171875,0.1954163908958435,0.09463737905025482,-0.32835865020751953,0.0048081655986607075,0.2531956732273102,-0.9674031138420105,-0.06482105702161789,-0.08710372447967529,0.06524252891540527,0.9917980599831516,-0.12765492744215573,0.0016278917075873694,0.00618497792504154
1729788875423137300,2.99213720703125,0.1893296092748642,0.13756327331066132,-0.23470833897590637,0.005129840690642595,0.25139111280441284,-0.9678720235824585,-0.06360159814357758,-0.039095520973205566,0.1825631856918335,0.9919247040997733,-0.12672818842190747,0.001991132677855642,0.004654580842735738
1729788875433167000,3.0021669921875,0.2937606871128082,0.23013634979724884,-0.12708121538162231,0.006478135008364916,0.24914222955703735,-0.9684452414512634,-0.006676576565951109,0.006610378623008728,0.16342204809188843,0.9920731905590853,-0.1255768510835983,0.002798430677659349,0.003685547289806244
1729788875443198200,3.0121982421875,0.3971467912197113,0.33817920088768005,-0.14833271503448486,0.008913191966712475,0.24570687115192413,-0.9693031907081604,0.022550353780388832,0.031087592244148254,0.10167324542999268,0.9922920866005829,-0.12381954841883236,0.004137646845986773,0.0028334923827645258
1729788875453228000,3.02222802734375,0.3990855813026428,0.3404540717601776,-0.14476141333580017,0.011944686062633991,0.24180948734283447,-0.9702502489089966,0.033846862614154816,0.07729759812355042,0.08473694324493408,0.9925330805092433,-0.12182510735174931,0.0057903602296521224,0.0018487068612794459
1729788875463259100,3.032259033203125,0.3684423267841339,0.22794334590435028,-0.06645115464925766,0.014483839273452759,0.23803730309009552,-0.9711480140686035,0.06786777079105377,0.09202560782432556,0.09855890274047852,0.9927602852255986,-0.11989462471079422,0.007160244601218106,0.001113588703234084
1729788875473290200,3.042290283203125,0.2503918409347534,0.1951795369386673,-0.03083403781056404,0.01637914963066578,0.23496434092521667,-0.9718660116195679,0.0712977796792984,0.04782682657241821,0.06073319911956787,0.992941372528802,-0.11832357753429947,0.00815715331545257,0.0007606246038938224
1729788875483320000,3.052320068359375,0.030138492584228516,0.22049757838249207,0.006651820614933968,0.018373139202594757,0.23360319435596466,-0.9721584320068359,0.018141068518161774,-0.005636841058731079,0.03800010681152344,0.9930151223135547,-0.11762840339881317,0.009184284910016915,0.0005647927470316852
1729788875493351000,3.062350830078125,-0.1431392878293991,0.1811182051897049,0.017098601907491684,0.020417360588908195,0.23420977592468262,-0.9719716906547546,0.0006091762334108353,-0.05467483401298523,-0.012449085712432861,0.992968131358394,-0.1179395722548951,0.010218841569825199,0.0005231186725446576
1729788875503381000,3.072381103515625,-0.20525166392326355,0.10543729364871979,-0.03809541091322899,0.021810932084918022,0.23596933484077454,-0.9715157151222229,0.0002684593200683594,-0.08405280113220215,-0.0083732008934021,0.9928533492640441,-0.11883845421607854,0.010934852409423958,0.00041031735592072155
1729788875513412000,3.082412109375,-0.27862998843193054,0.061802998185157776,-0.07004189491271973,0.022440699860453606,0.2382923662662506,-0.9709341526031494,0.002492086961865425,-0.07424509525299072,0.02304297685623169,0.9927069508495859,-0.12002257742831769,0.011291369369274478,0.00009438796816214441
1729788875523442000,3.09244189453125,-0.33402180671691895,0.05860539525747299,-0.03655743598937988,0.02290438674390316,0.24138416349887848,-0.9701592922210693,0.01536458171904087,-0.02716599404811859,0.07002806663513184,0.9925117603675384,-0.12160035420975683,0.011562986485748274,-0.00019906475771294988
1729788875533473000,3.10247314453125,-0.3073270916938782,0.07501658797264099,0.0026432303711771965,0.02350049465894699,0.24452145397663116,-0.9693590402603149,0.02892863191664219,0.009659484028816223,0.10212576389312744,0.9923102113363206,-0.1232045546878799,0.011878840830547462,-0.00030232293019639853
1729788875543504000,3.11250390625,-0.26181644201278687,0.08334062248468399,0.026543237268924713,0.02435755729675293,0.24729309976100922,-0.9686345458030701,0.0202743262052536,0.021658360958099365,0.12674611806869507,0.9921276860385712,-0.12462450541366435,0.01230733453962932,-0.000254109529514125
1729788875553534000,3.122533935546875,-0.27066826820373535,0.08884404599666595,0.017224568873643875,0.025214534252882004,0.24982817471027374,-0.967961847782135,0.010353628545999527,0.016636088490486145,0.1356711983680725,0.9919582179621114,-0.12592453752379504,0.01273149478461803,-0.00017346566023855164
1729788875563565000,3.13256494140625,-0.348565936088562,0.12953218817710876,-0.0008782674558460712,0.026337778195738792,0.25284022092819214,-0.9671494960784912,0.006972085684537888,0.005094379186630249,0.12350636720657349,0.9917533878003032,-0.12746870432400784,0.013303390757108848,-0.00019451206480731661
1729788875573595100,3.14259521484375,-0.4329777657985687,0.03827071934938431,0.05078572779893875,0.027275903150439262,0.25662723183631897,-0.96612548828125,0.02054506726562977,-0.001195073127746582,0.0966644287109375,0.9914952031623808,-0.12941265198067195,0.013770014637167354,-0.00011553788004607073
1729788875583626000,3.1526259765625,-0.3704583942890167,-0.165168896317482,0.09463094174861908,0.02691003680229187,0.2606353759765625,-0.9650622010231018,0.04753752052783966,-0.010421723127365112,0.015675604343414307,0.9912271564863145,-0.13147526790624112,0.013533252568481159,0.0003079729277499465
1729788875593656000,3.162656005859375,-0.45518234372138977,-0.24776870012283325,0.12362051755189896,0.02503814361989498,0.2645576596260071,-0.9640448093414307,0.0354781374335289,-0.005936414003372192,-0.12604308128356934,0.9909699276823722,-0.1334976446644814,0.012489536170443547,0.0010660622839635497
1729788875603687200,3.172687255859375,-0.36797893047332764,-0.13178235292434692,-0.0418320931494236,0.023267392069101334,0.26867157220840454,-0.9629507660865784,-0.0200326070189476,-0.01893097162246704,-0.22474753856658936,0.9906933005759984,-0.13561498357088123,0.01154052573132081,0.0014789993347134522
1729788875613717000,3.182717041015625,-0.18749196827411652,0.06857738643884659,-0.17923150956630707,0.02265222743153572,0.2713267505168915,-0.9622207283973694,-0.1342093050479889,-0.05793255567550659,-0.13404697179794312,0.9905098362147738,-0.13697354542532422,0.011309089368047361,0.0009078368526169598
1729788875623748000,3.192748046875,-0.19238905608654022,0.13920101523399353,-0.06113281846046448,0.023390185087919235,0.27306410670280457,-0.9617114663124084,-0.107206791639328,-0.03394359350204468,-0.022678792476654053,0.9903816711781119,-0.13786019628698393,0.011783155453460831,0.00018331113600867898
1729788875633779000,3.202779052734375,-0.2579057216644287,0.09131071716547012,0.05871715396642685,0.024625396355986595,0.27527889609336853,-0.96104896068573,0.024874040856957436,0.01765933632850647,0.10066694021224976,0.9902144595726207,-0.13900162013528117,0.012412194061476431,0.00015801127530637498
1729788875643809000,3.21280908203125,-0.2737758457660675,-0.03551695495843887,0.028736349195241928,0.024999288842082024,0.2778623700141907,-0.960295557975769,0.07419802248477936,-0.0012052059173583984,0.18020522594451904,0.990024080887417,-0.14033613933112996,0.012569468754409688,0.0003959602713340873
1729788875653840100,3.222840087890625,-0.3101500868797302,-0.08931360393762589,-0.015163996256887913,0.02435408905148506,0.2806396782398224,-0.9595041871070862,0.05876045674085617,-0.03865048289299011,0.17640787363052368,0.9898241457613199,-0.14176822656460203,0.0122345808513662,0.0004723298352759707
1729788875663870200,3.2328701171875,-0.3869062066078186,-0.012541061267256737,-0.030208725482225418,0.02373529225587845,0.2840314507484436,-0.9585211277008057,0.04303709417581558,-0.028355151414871216,0.13367682695388794,0.9895759612117152,-0.14351678435614132,0.011931411166846255,0.0004223098500106649
1729788875673901000,3.242901123046875,-0.320860356092453,0.07505856454372406,-0.04280015081167221,0.02401912771165371,0.2875637114048004,-0.9574602842330933,0.011106530204415321,0.0037418603897094727,0.09105098247528076,0.9893079067841974,-0.1453387209505205,0.012104344963128262,0.00023833481217195375
1729788875683931100,3.25293115234375,-0.15771150588989258,-0.0021809395402669907,0.009447607211768627,0.02438238635659218,0.28989377617836,-0.9567481875419617,-0.010054457932710648,0.034645408391952515,0.010855913162231445,0.9891280480571034,-0.14654123844212472,0.012311290074227809,0.00009383925602478471
1729788875693962000,3.2629619140625,-0.11904773116111755,-0.13339968025684357,0.10542846471071243,0.023877456784248352,0.2910607159137726,-0.9564065933227539,0.02539309673011303,0.05439832806587219,-0.1705770492553711,0.9890415657192689,-0.1471485463122488,0.012000618297949668,0.00047311605563440083
1729788875703992000,3.272991943359375,-0.12338881939649582,-0.08762345463037491,-0.034530770033597946,0.022843696177005768,0.292293518781662,-0.956055760383606,0.010145731270313263,0.024631530046463013,-0.27088814973831177,0.988952593083475,-0.14778899036861384,0.011424662887296622,0.0008349582681486409
1729788875714023200,3.283023193359375,-0.0023271054960787296,0.053564827889204025,-0.22561657428741455,0.022268129512667656,0.292941689491272,-0.9558709859848022,-0.13168898224830627,-0.052554696798324585,-0.15017759799957275,0.9889061788406348,-0.14811560079013228,0.011237845897609058,0.00014103612725933822
1729788875724053200,3.29305322265625,0.07624506950378418,0.17513301968574524,-0.1425406038761139,0.022801892831921577,0.2926308512687683,-0.9559535980224609,-0.1518150269985199,-0.07676473259925842,-0.04616737365722656,0.9889266377939012,-0.14794278938794195,0.011667917207457695,-0.0009312258070394206
1729788875734084000,3.303083984375,0.12865102291107178,0.2154330313205719,-0.015252146869897842,0.02455935627222061,0.29164740443229675,-0.9562105536460876,-0.02835886925458908,-0.044683873653411865,0.042941510677337646,0.9889909695679434,-0.14742829537882282,0.012634101229794064,-0.0014606039090441156
1729788875744115200,3.313115234375,0.05910975858569145,0.1399359405040741,-0.0011704163625836372,0.026292424649000168,0.29072049260139465,-0.9564467072486877,0.04972679167985916,-0.03469321131706238,0.18174272775650024,0.9890504504015087,-0.14694753943986857,0.013530201003264797,-0.0016049222523498875
1729788875754145000,3.32314501953125,0.060396600514650345,0.037142977118492126,-0.056909844279289246,0.02710462361574173,0.2901146113872528,-0.95660799741745,0.0936075821518898,-0.05230635404586792,0.24409884214401245,0.9890909283404239,-0.14663151317986137,0.013971411168560531,-0.0018187390779536637
1729788875764176000,3.33317578125,-0.12697988748550415,-0.04771406948566437,-0.038622982800006866,0.02685670740902424,0.29043763875961304,-0.9565169811248779,0.10374319553375244,-0.07032957673072815,0.28068995475769043,0.9890673963229509,-0.14679509583501194,0.013882323693001412,-0.002058651182215201
1729788875774206000,3.3432060546875,-0.14911368489265442,-0.08032234758138657,-0.04970066621899605,0.026102561503648758,0.29187577962875366,-0.9560999870300293,0.09535732865333557,-0.058217912912368774,0.18736225366592407,0.98896174311718,-0.1475365750005608,0.013526236539993686,-0.0022072479373551465
1729788875784236800,3.35323681640625,-0.1615714132785797,-0.0629371777176857,-0.04022354260087013,0.025234980508685112,0.2933715879917145,-0.9556653499603271,0.03343498706817627,-0.0352385938167572,0.010383427143096924,0.988851392981864,-0.14830791273565636,0.013117684428779426,-0.002386588811512008
1729788875794267000,3.363266845703125,-0.10856013000011444,-0.0661148652434349,-0.022133756428956985,0.02455534227192402,0.29462069272994995,-0.9552987217903137,-0.018284054473042488,0.015437930822372437,-0.139473557472229,0.9887584161519829,-0.14895317350869053,0.012789932938619105,-0.002473818397758756
1729788875804298000,3.373298095703125,-0.09888014197349548,0.010712116956710815,-0.04489339515566826,0.02416987344622612,0.29572445154190063,-0.9549674987792969,-0.05834963545203209,0.05954596400260925,-0.2651405334472656,0.9886744149066811,-0.1495229122521304,0.012615969300499573,-0.002595917269510675
1729788875814328800,3.383328857421875,0.004626275040209293,0.05682235211133957,-0.0797688215970993,0.024318670853972435,0.2961955964565277,-0.9548176527023315,-0.10877614468336105,0.08913466334342957,-0.20489603281021118,0.9886356340775273,-0.1497621969362301,0.012745359921100355,-0.002945879892817498
1729788875824359000,3.39335888671875,0.20465630292892456,0.11826499551534653,-0.0627932995557785,0.024933647364377975,0.2952791452407837,-0.9550856351852417,-0.10430994629859924,0.0843137800693512,-0.0982133150100708,0.988701983733535,-0.1492818946487115,0.013118765846391316,-0.003374330956531813
1729788875834390000,3.40339013671875,0.2702329158782959,0.13156534731388092,-0.005285799503326416,0.026083162054419518,0.2928454875946045,-0.9558039307594299,-0.05312180891633034,0.049485474824905396,0.026421666145324707,0.9888825364633381,-0.1480178166782918,0.013738579717472126,-0.0036769964914423964
1729788875844419800,3.413419921875,0.25953227281570435,0.08503449708223343,0.007489650510251522,0.027158010751008987,0.2904113829135895,-0.956516444683075,0.008776364848017693,0.007775932550430298,0.13576143980026245,0.9890624035463697,-0.14675731258886973,0.014285381737063394,-0.0037485628785661187
1729788875854451000,3.423450927734375,0.20456834137439728,0.01535581611096859,0.02032874897122383,0.027651570737361908,0.2880217730998993,-0.9572245478630066,0.04119601100683212,-0.023251235485076904,0.09739184379577637,0.9892412908893831,-0.14552202198306421,0.014527899245763217,-0.003750722267342165
1729788875864481000,3.43348095703125,-0.024228740483522415,-0.05268235504627228,0.07954972982406616,0.027681050822138786,0.28717517852783203,-0.9574780464172363,0.047697290778160095,-0.015080422163009644,0.06268739700317383,0.9893063113881195,-0.14508830050204774,0.014504036612937586,-0.003504137002370147
1729788875874512000,3.443511962890625,0.034681446850299835,-0.08313640207052231,0.003252561204135418,0.02709890902042389,0.28731003403663635,-0.9574542045593262,0.04089418053627014,-0.004747748374938965,-0.08107417821884155,0.9893012768993495,-0.14516295024885253,0.014163450466559408,-0.003185837290300717
1729788875884542000,3.4535419921875,0.09949187189340591,-0.00821507629007101,-0.06912443041801453,0.026509495452046394,0.28658178448677063,-0.9576889872550964,-0.033818528056144714,0.0018551647663116455,-0.17362815141677856,0.9893600327676055,-0.14478449245935035,0.013891363153379974,-0.003376131531274325
1729788875894573000,3.463572998046875,0.11313923448324203,0.03338909149169922,-0.036807239055633545,0.026446765288710594,0.2855849862098694,-0.957988440990448,-0.07561065256595612,0.048185795545578,-0.074055016040802,0.9894346356323643,-0.14426572381639327,0.013899450374278718,-0.003668336960398494
1729788875904604000,3.47360400390625,0.29868707060813904,0.08208882808685303,0.01012538094073534,0.02703588455915451,0.2836991846561432,-0.9585321545600891,-0.04675031453371048,0.0538862943649292,-0.02538508176803589,0.989571677838783,-0.14329027117000878,0.014206753797278471,-0.0037731694368067416
1729788875914634000,3.483634033203125,0.30955594778060913,0.0847192332148552,-0.01120254397392273,0.027828726917505264,0.28060248494148254,-0.9594205617904663,-0.023113835602998734,0.006506919860839844,0.04290139675140381,0.989795691879695,-0.14169101194909184,0.014607500630619798,-0.0038398880862915022
1729788875924665000,3.4936650390625,0.26800212264060974,0.07094919681549072,-0.007971330545842648,0.0285947248339653,0.27790573239326477,-0.9601826667785645,0.0008851829916238785,-0.009549379348754883,0.10852861404418945,0.9899875769135648,-0.1402976294000198,0.015008116865737072,-0.003994983666341052
1729788875934695000,3.50369482421875,0.17685621976852417,0.010467478074133396,0.036791615188121796,0.028987020254135132,0.2755501866340637,-0.9608495235443115,0.0465744286775589,-0.01509791612625122,0.0789831280708313,0.9901559998389664,-0.13908360205014736,0.015197980239125506,-0.003989405478648066
1729788875944726000,3.51372607421875,-0.03875282406806946,-0.01598447561264038,0.10445268452167511,0.029141830280423164,0.2750391662120819,-0.9609912633895874,0.05041741952300072,0.028168290853500366,0.0417407751083374,0.9901931600500904,-0.13882573370245987,0.015224360941420234,-0.0036314794893616193
1729788875954755800,3.523755859375,0.059276267886161804,-0.009828845039010048,0.0374763123691082,0.029192352667450905,0.2750033736228943,-0.9609999656677246,0.010861892253160477,0.0658474862575531,-0.12588351964950562,0.9901967885766122,-0.1388135446378397,0.015192432830127318,-0.0032224653975764703
1729788875964787000,3.533786865234375,0.09106595814228058,-0.0025763651356101036,0.0245453342795372,0.029293028637766838,0.27410876750946045,-0.9612524509429932,-0.07154469192028046,0.07054153084754944,-0.24132317304611206,0.9902608171661348,-0.1383541325143814,0.015228236906118148,-0.003132627971471376
1729788875974816800,3.543816650390625,-0.12520483136177063,0.027729876339435577,0.17897512018680573,0.029636472463607788,0.2741630971431732,-0.9612264633178711,-0.07490937411785126,0.08766862750053406,-0.1916971206665039,0.9902556058118617,-0.13838908219824386,0.015337422046041738,-0.0026716847681543684
1729788875984848000,3.553847900390625,-0.20174993574619293,-0.03617677465081215,0.18570251762866974,0.030221110209822655,0.27585142850875854,-0.9607250690460205,0.002493657171726227,0.062466442584991455,-0.21638363599777222,0.9901313128817569,-0.13927454035302256,0.015493858834366861,-0.0016542847753155873
1729788875994879000,3.56387890625,-0.19786863029003143,-0.09333647042512894,0.0027028853073716164,0.029813723638653755,0.2777280807495117,-0.9601969718933105,0.004777876660227776,0.013119727373123169,-0.24085283279418945,0.989998703012193,-0.14024969348395047,0.015216035234788344,-0.001119386018462975
1729788876004908800,3.57390869140625,-0.12119610607624054,-0.05210844427347183,-0.0901748538017273,0.02888640947639942,0.279518187046051,-0.9597057700157166,-0.05595557391643524,0.026863068342208862,-0.08401066064834595,0.9898743909498617,-0.14116924947058065,0.014776937864313677,-0.0013041651961706476
1729788876014940000,3.58393994140625,0.2582337558269501,0.0887322947382927,-0.03219038248062134,0.028806690126657486,0.2787879705429077,-0.9599205255508423,-0.08796508610248566,-0.006250739097595215,0.15810173749923706,0.9899280762523275,-0.14078694975944295,0.014790613230761633,-0.0016926182088085695
1729788876024969700,3.5939697265625,0.230437234044075,0.19213809072971344,0.16800342500209808,0.030418165028095245,0.27622905373573303,-0.9606103897094727,-0.049827419221401215,-0.06237706542015076,0.35265445709228516,0.9901026009727003,-0.1394718892413185,0.015569569179150575,-0.0014797840205944838
1729788876035000800,3.604000732421875,0.15154002606868744,0.11214073747396469,0.13606466352939606,0.032456137239933014,0.27436986565589905,-0.9610763788223267,0.08531112968921661,-0.08940276503562927,0.31176912784576416,0.9902211196594294,-0.13852735178750372,0.016491959741027948,-0.0007407848236004622
1729788876045031000,3.614031005859375,-0.06476212292909622,-0.016631465405225754,-0.025870703160762787,0.03305412083864212,0.27376699447631836,-0.9612278938293457,0.1294824331998825,-0.09438461065292358,0.1197972297668457,0.9902595228983008,-0.13822067987269912,0.016765808883017153,-0.0005458068806734268
1729788876055061800,3.624061767578125,-0.14586709439754486,-0.1005396768450737,0.021554335951805115,0.03237875923514366,0.2750852406024933,-0.9608744382858276,0.09216339886188507,0.027679651975631714,-0.003114759922027588,0.9901701593439576,-0.13889889951219447,0.016427578098536653,-0.0005523263575196012
1729788876065091800,3.634091796875,0.07682470977306366,-0.015690090134739876,0.1438072770833969,0.032039958983659744,0.27550461888313293,-0.9607656598091125,-0.0013851262629032135,0.13144731521606445,-0.23897188901901245,0.9901428729174054,-0.13912247057237218,0.01618977071937822,-0.00007336396164843606
1729788876075123000,3.644123046875,0.2651650607585907,0.07856131345033646,0.05642683058977127,0.03263223171234131,0.27359718084335327,-0.9612906575202942,-0.11141343414783478,0.132027268409729,-0.3470131754875183,0.9902753460453605,-0.13814915084457893,0.01641590681338051,0.0004332138517081684
1729788876085153800,3.65415380859375,0.24473699927330017,0.010732995346188545,0.027271877974271774,0.03328854590654373,0.27104949951171875,-0.9619896411895752,-0.1710602343082428,0.11309054493904114,-0.2135627269744873,0.9904517660464531,-0.1368402023591022,0.016731519806369267,0.0005298794873162667
1729788876095184000,3.664183837890625,0.39820992946624756,-0.0029247598722577095,-0.05813010409474373,0.03329717367887497,0.26829639077186584,-0.9627608060836792,-0.06315869837999344,0.04925429821014404,-0.1931229829788208,0.9906464063035058,-0.13542343364681786,0.01673602299502591,0.0005103004550551718
1729788876105214700,3.674214599609375,0.364292711019516,-0.03213244676589966,-0.16224107146263123,0.03270070254802704,0.2643142640590668,-0.9638820886611938,-0.031052827835083008,-0.0753035843372345,0.04240381717681885,0.990929474869453,-0.13336439869837804,0.016519697696038175,-0.00014624040675402614
1729788876115244800,3.684244873046875,0.03191262483596802,-0.0538281574845314,-0.029243864119052887,0.03209804743528366,0.2624174952507019,-0.9644204378128052,0.01029079407453537,-0.13757005333900452,0.3173257112503052,0.9910649825445581,-0.13238089838190953,0.01628133318584728,-0.0006559491369569053
1729788876125276000,3.69427587890625,-0.24928683042526245,-0.06028924882411957,-0.017504382878541946,0.03144310042262077,0.2635376453399658,-0.96413654088974,0.11446136236190796,-0.15536805987358093,0.251947820186615,0.9909934497104672,-0.13295620031975958,0.0159494041410034,-0.0006333258598567803
1729788876135306000,3.704305908203125,-0.31597742438316345,-0.02774382196366787,-0.1766546219587326,0.030865561217069626,0.2663976550102234,-0.9633688926696777,0.0790739357471466,-0.139627605676651,0.14160680770874023,0.990799401566196,-0.13441890521269648,0.01571988743282121,-0.001059927913499497
1729788876145336800,3.7143369140625,-0.32259485125541687,-0.05919522047042847,-0.20525485277175903,0.029836801812052727,0.26960980892181396,-0.9625073075294495,0.004495399072766304,-0.07257303595542908,0.09834104776382446,0.9905804753633611,-0.1360556701273597,0.015336213420149418,-0.002009125631254485
1729788876155367000,3.724366943359375,-0.2524474561214447,0.0058516873978078365,-0.09022359549999237,0.029100604355335236,0.2724432945251465,-0.9617316722869873,-0.015245696529746056,0.017290621995925903,0.0635993480682373,0.990382962561369,-0.1375029512972984,0.015069919583585183,-0.002724954693638244
1729788876165397800,3.734397705078125,-0.17609037458896637,0.09589742869138718,0.002561205066740513,0.029528018087148666,0.27457472681999207,-0.9611122608184814,-0.029085587710142136,0.04791980981826782,0.05887538194656372,0.9902260556523308,-0.13859712592142245,0.015319729129936477,-0.0029292530938112562
1729788876175428900,3.744428955078125,0.023592108860611916,0.1255655735731125,-0.008077590726315975,0.030681416392326355,0.2753053903579712,-0.9608671069145203,-0.016765477135777473,0.015908628702163696,0.02419114112854004,0.9901640191385775,-0.13897179350018207,0.015914836007187766,-0.0030048498617248867
1729788876185459000,3.754458984375,-0.09448659420013428,0.05002111941576004,0.04017569124698639,0.031522154808044434,0.27535220980644226,-0.9608264565467834,0.0157647542655468,-0.000541388988494873,-0.020695090293884277,0.9901535564883178,-0.13899510865353712,0.016343815879966212,-0.0030347059589748574
1729788876195489800,3.76448974609375,-0.09459205716848373,-0.04331468790769577,0.04604237154126167,0.03172312676906586,0.27663272619247437,-0.9604519605636597,0.06336957216262817,0.05915221571922302,-0.03837305307388306,0.9900598657788563,-0.13965979912553642,0.01640597907965374,-0.0027304814653096306
1729788876205520000,3.774519775390625,0.2682819664478302,-0.006052589043974876,-0.057209983468055725,0.03130773827433586,0.2757890224456787,-0.9607082009315491,0.0040315426886081696,0.09760880470275879,-0.14579808712005615,0.9901246039740121,-0.1392248336497492,0.0161969958249715,-0.002752205829335233
1729788876215551000,3.784551025390625,0.3975432813167572,0.11144820600748062,0.009655599482357502,0.03174567222595215,0.2723804712295532,-0.9616658091545105,-0.09220106899738312,0.13083305954933167,-0.1646159291267395,0.9903656441720186,-0.13746512617701187,0.016445050508823732,-0.0030100563482371298
1729788876225581000,3.7945810546875,0.30026739835739136,0.1306827813386917,0.2022000104188919,0.03327115997672081,0.2689436674118042,-0.9625810980796814,-0.06908361613750458,0.13532274961471558,0.0038561224937438965,0.9905976907304628,-0.13570317665230736,0.01714953542534759,-0.0025991239362110155
1729788876235612000,3.80461181640625,0.17486366629600525,0.06879757344722748,0.3030054569244385,0.034951500594615936,0.2665771245956421,-0.9631796479225159,-0.003732088953256607,0.0843292772769928,0.11544710397720337,0.9907511770955124,-0.13450787928936522,0.017827163834026032,-0.001386789296596201
1729788876245642000,3.81464208984375,0.09013651311397552,0.014087140560150146,0.292055606842041,0.03620680794119835,0.26517850160598755,-0.963519275188446,0.00560220330953598,0.05138036608695984,0.14325261116027832,0.9908379254049313,-0.13381653050523448,0.018261610050283584,0.00006806175464144932
1729788876255672800,3.8246728515625,0.22200506925582886,-0.031905919313430786,0.24804739654064178,0.036784976720809937,0.2637467086315155,-0.9638903141021729,0.011127546429634094,0.020844995975494385,0.09680962562561035,0.990930478907723,-0.13310667213131755,0.018369988833592216,0.0014207134056478702
1729788876265704000,3.834703857421875,0.21715311706066132,-0.04994568973779678,0.26909011602401733,0.03707605227828026,0.26115792989730835,-0.9645838141441345,0.03441130369901657,-0.053089022636413574,0.013320386409759521,0.9911029160533196,-0.1318003347163879,0.018351264455022536,0.0026557909011203596
1729788876275734000,3.844734130859375,-0.19770905375480652,-0.15425372123718262,0.3177660405635834,0.03695455193519592,0.26110297441482544,-0.9646033644676208,0.06874300539493561,-0.06803345680236816,0.06811898946762085,0.9911023613840438,-0.13180058078685056,0.01808136736594399,0.004224495482799793
1729788876285764900,3.854764892578125,-0.20440424978733063,-0.23269911110401154,0.17354519665241241,0.03566252067685127,0.2631000280380249,-0.9641091823577881,0.09045130014419556,-0.058678001165390015,-0.07596033811569214,0.9909707354198916,-0.1328466732148112,0.01723821968302027,0.005635742627140574
1729788876295795000,3.864794921875,-0.2896949052810669,-0.23458249866962433,0.007803903892636299,0.03362908586859703,0.2653529644012451,-0.9635646939277649,0.014924306422472,-0.05212661623954773,-0.2411929965019226,0.9908295451043739,-0.1340063056667465,0.016123615836813786,0.006259316280512844
1729788876305826000,3.874825927734375,-0.2351803332567215,-0.21080179512500763,-0.025145791471004486,0.03142830729484558,0.2681281864643097,-0.9628704786300659,-0.04008011519908905,0.025405168533325195,-0.21371948719024658,0.9906539673548408,-0.13542465471131632,0.01499760620660869,0.006326140320929438
1729788876315856000,3.88485595703125,-0.2220964878797531,-0.1435905396938324,0.07798618823289871,0.029736150056123734,0.27004334330558777,-0.9623888731002808,-0.04072255641222,0.03659731149673462,-0.13213926553726196,0.9905309089810445,-0.1364058898757163,0.014106382183742161,0.006563258473806759
1729788876325887000,3.894886962890625,-0.4277900457382202,-0.13931263983249664,0.2677595913410187,0.02891317754983902,0.27319809794425964,-0.961523175239563,-0.02371000498533249,0.005976736545562744,0.1315518617630005,0.990305369041109,-0.13803952526583405,0.01354617679021691,0.007546660648577965
1729788876335917000,3.9049169921875,-0.4636862576007843,-0.11544326692819595,0.2881580591201782,0.02845604345202446,0.2775023579597473,-0.9603034257888794,0.02253875881433487,-0.09868457913398743,0.2522803544998169,0.9899840152862242,-0.1402757844917184,0.013075932041763117,0.009146680075476477
1729788876345948000,3.914947998046875,-0.46371403336524963,-0.060360196977853775,0.05752938240766525,0.028119171038269997,0.28193122148513794,-0.9590224623680115,0.014956317842006683,-0.19376587867736816,0.19795984029769897,0.9896505849893061,-0.14257045151588843,0.012744802490715757,0.010147153804952505
1729788876355979000,3.92497900390625,-0.36700639128685,0.011335030198097229,-0.13202138245105743,0.027760295197367668,0.2860647141933441,-0.9578080773353577,-0.03821263834834099,-0.13501793146133423,0.17785513401031494,0.9893461990932901,-0.1446987292236484,0.012578764202706984,0.009919886360767668
1729788876366009000,3.935009033203125,-0.12982113659381866,0.03251413628458977,-0.05573778599500656,0.027687320485711098,0.28852397203445435,-0.9570722579956055,-0.029579482972621918,-0.015895158052444458,0.10132884979248047,0.9891653499654981,-0.14596180617487292,0.012610153137246932,0.00938693210806061
1729788876376040000,3.9450400390625,0.03245058283209801,0.05527937039732933,0.11394578963518143,0.028148487210273743,0.288846880197525,-0.956961452960968,-0.0015372317284345627,0.05798545479774475,-0.024300754070281982,0.989136160403257,-0.14613304261624313,0.012822709942994098,0.009517612468704157
1729788876386069800,3.95506982421875,0.07894345372915268,0.08380837738513947,0.13599835336208344,0.029301181435585022,0.2882300317287445,-0.9571127891540527,-0.01692637801170349,0.06482788920402527,-0.15967798233032227,0.9891683498809922,-0.1458294860424232,0.01331770263150779,0.0101292336296226
1729788876396101000,3.96510107421875,-0.06043840944766998,0.038021981716156006,0.054178860038518906,0.03016735427081585,0.2880261242389679,-0.9571473002433777,-0.04661640152335167,-0.01286432147026062,-0.17197257280349731,0.9891723943254301,-0.14573583201986423,0.013690469186186164,0.010576967828827926
1729788876406130700,3.975130615234375,-0.21900255978107452,-0.019242586567997932,-0.10802016407251358,0.030169188976287842,0.2893877327442169,-0.9567364454269409,-0.04591633379459381,-0.10962387919425964,-0.10828125476837158,0.9890696220705426,-0.14643796413799137,0.013700811180047973,0.010472272207847334
1729788876416161800,3.985161865234375,-0.43826407194137573,0.02180977538228035,-0.24894320964813232,0.02960384450852871,0.29254263639450073,-0.9557941555976868,-0.06497379392385483,-0.14805710315704346,0.013838589191436768,0.9888407189567932,-0.14805279335428354,0.013538867785287822,0.009551585321701165
1729788876426192000,3.99519189453125,-0.5440486669540405,0.06261573731899261,-0.1783342808485031,0.02932913228869438,0.29758062958717346,-0.9542460441589355,-0.04904356226325035,-0.07837283611297607,0.14572864770889282,0.9884592699318508,-0.15064327907292913,0.013548668540593969,0.008445507384352758
1729788876436222700,4.00522265625,-0.3805560767650604,0.1120743677020073,-0.08741448819637299,0.029818352311849594,0.3020938038825989,-0.9528117179870605,0.019803157076239586,0.0031125247478485107,0.17200428247451782,0.9881019522215557,-0.15297492646357974,0.013885403566952743,0.007772394916764545
