time,seconds_elapsed,rotationRateX,rotationRateY,rotationRateZ,gravityX,gravityY,gravityZ,accelerationX,accelerationY,accelerationZ,quaternionW,quaternionX,quaternionY,quaternionZ
1728332719594557400,0.120557373046875,0.15320855379104614,-0.08211982995271683,-0.0014889822341501713,0.115436851978302,-0.07563252747058868,-0.9904312491416931,-0.02290760725736618,0.0005745813250541687,0.000029027462005615234,0.9976049880574429,0.0379070500235724,0.057856995152525674,3.2122851021892484e-17
1728332719604587500,0.13058740234375,0.15295621752738953,-0.1069709062576294,0.023242462426424026,0.11379942297935486,-0.07777392864227295,-0.990454912185669,0.027176477015018463,0.016769319772720337,-0.006066083908081055,0.9976108898115696,0.03897828725982645,0.05703721084095244,0.000031578192605099365
1728332719614618600,0.14061865234375,0.10530141741037369,-0.09462566673755646,0.012346938252449036,0.11194421350955963,-0.07976128160953522,-0.9905082583427429,0.03243438899517059,0.005512043833732605,-0.00285416841506958,0.9976242522147197,0.03997000707492457,0.05610939188948884,0.00009965578635454968
1728332719624649500,0.1506494140625,0.06411562860012054,-0.06586618721485138,-0.012384505942463875,0.11030500382184982,-0.0811791867017746,-0.990576982498169,-0.011397577822208405,-0.015149511396884918,0.009360551834106445,0.9976414776582239,0.040680383010764654,0.055286689533649305,0.00009325725683264766
1728332719634680600,0.1606806640625,0.03857884556055069,-0.04720595106482506,-0.03680196404457092,0.11039018630981445,-0.08130592107772827,-0.990557074546814,-0.03914695233106613,-0.018059276044368744,0.018785834312438965,0.9976365156304895,0.04075407057956688,0.055322319916475314,-0.00008652681199497601
1728332719644710700,0.170710693359375,0.004736191593110561,-0.03145548328757286,-0.03472123667597771,0.11119883507490158,-0.0808224305510521,-0.9905062317848206,-0.031334392726421356,-0.015918247401714325,0.013409674167633057,0.9976236937524287,0.04052562022374507,0.0557186559886984,-0.00032491079656425193
1728332719654741500,0.180741455078125,0.010103859007358551,-0.03094160184264183,-0.020816873759031296,0.11093995720148087,-0.08070479333400726,-0.990544855594635,-0.01879218965768814,-0.013747073709964752,0.01138836145401001,0.9976333009717043,0.040474806049843805,0.05558214037101316,-0.00047892176714563103
1728332719664772600,0.190772705078125,0.017637941986322403,-0.03485431522130966,-0.012918470427393913,0.1098371297121048,-0.08108937740325928,-0.9906363487243652,-0.0006605461239814758,-0.003245912492275238,0.010518550872802734,0.9976561879571917,0.04066981685975986,0.05502550239589677,-0.0005416902698221719
1728332719674803500,0.200803466796875,0.02821601741015911,-0.025176336988806725,-0.012968538329005241,0.10920801758766174,-0.0811910331249237,-0.9906975626945496,0.010985404253005981,-0.0004281923174858093,0.0049034953117370605,0.9976714766168322,0.04072421445098131,0.05470618143504629,-0.0006191315938063699
1728332719684834600,0.21083447265625,0.029615508392453194,-0.03145180642604828,-0.015287086367607117,0.10962684452533722,-0.08094935119152069,-0.9906710386276245,0.004630908370018005,-0.0017990171909332275,0.010843217372894287,0.9976647676052801,0.04060953234887277,0.054912055111895786,-0.0007288854574726212
1728332719694864400,0.220864501953125,0.032680340111255646,-0.03829336166381836,-0.016525987535715103,0.1101263165473938,-0.08103116601705551,-0.9906089901924133,0.0036279037594795227,0.0016549751162528992,0.01892930269241333,0.9976491502221537,0.040657765343503495,0.05515847668688025,-0.0008448882563330699
1728332719704895500,0.2308955078125,0.011766270734369755,-0.015296969562768936,-0.03432415798306465,0.10958486795425415,-0.08175735175609589,-0.990609347820282,0.007495768368244171,-0.000350169837474823,0.023827731609344482,0.997649147976697,0.041027813101461745,0.054882064458663296,-0.0009600346827447215
1728332719714926600,0.240926513671875,0.005863108206540346,-0.005569079890847206,-0.029402373358607292,0.10842030495405197,-0.08245953917503357,-0.9906792640686035,-0.00817011296749115,-0.001265406608581543,0.024141788482666016,0.9976665265086126,0.041385279351512046,0.054291913959109185,-0.0010856131065001124
1728332719724957400,0.25095751953125,-0.015119139105081558,-0.010235205292701721,-0.012495294213294983,0.10726940631866455,-0.0831051915884018,-0.9907506108283997,-0.022689998149871826,-0.001046992838382721,0.022031188011169434,0.9976843970421702,0.04171073221990829,0.05371127895858851,-0.0011459746273016311
1728332719734987500,0.260987548828125,-0.03743809461593628,-0.0004050508141517639,-0.004269855096936226,0.10667131841182709,-0.08333855122327805,-0.9907956123352051,-0.009152442216873169,-0.006169475615024567,0.020397663116455078,0.9976955597819164,0.0418279709976047,0.05340994325024124,-0.001166563626126001
1728332719745018400,0.271018310546875,-0.04615994542837143,0.01213364489376545,-0.01837768405675888,0.10686425119638443,-0.08300488442182541,-0.9908028244972229,0.004509598016738892,-0.0037870779633522034,0.0266914963722229,0.9976973080754026,0.041662815496712864,0.05350515734135651,-0.00120428724853122
1728332719755049500,0.281049560546875,-0.058142706751823425,0.017094368115067482,-0.03160693496465683,0.10745900124311447,-0.08243873715400696,-0.9907857775688171,-0.00151728093624115,0.0030778050422668457,0.01994532346725464,0.9976929209182976,0.04138615760904886,0.053798761062682665,-0.001325489061820326
1728332719765080600,0.29108056640625,-0.079206183552742,0.03205094486474991,-0.026059573516249657,0.10794701427221298,-0.08176320046186447,-0.9907886981964111,-0.00781889259815216,0.004279106855392456,0.016347169876098633,0.9976935377665254,0.041055360383102306,0.05403807504170212,-0.0014631495404193737
1728332719775111400,0.301111328125,-0.0829833447933197,0.030731722712516785,-0.01565859653055668,0.10846447199583054,-0.08091199398040771,-0.9908020496368408,0.0019938424229621887,0.0071662962436676025,0.01660466194152832,0.9976967169928171,0.04063281632771944,0.054295005774673034,-0.0015329519741154685
1728332719785141500,0.3111416015625,-0.07480397820472717,0.03249713033437729,-0.018028011545538902,0.10905696451663971,-0.08020754903554916,-0.99079430103302,0.009488515555858612,0.0071484968066215515,0.01729881763458252,0.997694735280378,0.04028339246690461,0.05459030755638094,-0.0015892080357778476
1728332719795172400,0.32117236328125,-0.07407686114311218,0.04777488857507706,-0.02071487531065941,0.10933736711740494,-0.07961568236351013,-0.9908111095428467,0.007102400064468384,0.0067549943923950195,0.01281428337097168,0.9976987799165937,0.03999012587904131,0.05472867506678426,-0.001649198763301211
1728332719805203500,0.331203369140625,-0.09232484549283981,0.04670270159840584,-0.007609192281961441,0.10929958522319794,-0.07895055413246155,-0.9908685088157654,0.0017690882086753845,0.012376494705677032,0.01419919729232788,0.9977130805009637,0.039658217225188155,0.05470803655565578,-0.0016861166064658709
1728332719815234300,0.341234375,-0.08467910438776016,0.032533030956983566,0.01617070473730564,0.10945041477680206,-0.07837310433387756,-0.9908977150917053,0.011795870959758759,0.010257899761199951,0.024787485599517822,0.9977205291823007,0.03936470350190074,0.054786560485154505,-0.0016138896009401528
1728332719825264400,0.351264404296875,-0.0951107069849968,0.04347489774227142,0.024295741692185402,0.10992582887411118,-0.07777279615402222,-0.9908923506736755,0.033399924635887146,0.006392218172550201,0.026735246181488037,0.9977194094614047,0.039056543756474334,0.05503087954662518,-0.001473223355602089
1728332719835295500,0.36129541015625,-0.11459140479564667,0.03927503898739815,0.01815502531826496,0.11030837148427963,-0.0768137201666832,-0.9909246563911438,0.02656291425228119,0.007935576140880585,0.0230749249458313,0.9977277873658456,0.038567985632887214,0.05522835323688844,-0.0013306992486067498
1728332719845326300,0.371326416015625,-0.14017558097839355,0.04846640303730965,0.015244990587234497,0.11052341759204865,-0.07565537840127945,-0.9909898042678833,0.008220426738262177,0.001818135380744934,0.0277177095413208,0.9977442890901231,0.03797911697262479,0.055341416861111103,-0.0011882225385935498
1728332719855357400,0.381357421875,-0.15942764282226562,0.04802804812788963,0.00733327167108655,0.11104411631822586,-0.07414385676383972,-0.9910458326339722,0.005258314311504364,0.0007948949933052063,0.023837029933929443,0.9977583930298919,0.03721656310702788,0.05560573733766291,-0.0011007583398293245
1728332719865387500,0.391387451171875,-0.1553543359041214,0.03824013099074364,0.023360706865787506,0.111622154712677,-0.07259505242109299,-0.9910956025123596,0.004298806190490723,0.0035795792937278748,0.02358156442642212,0.9977709206832344,0.036433858381058275,0.05589975827016424,-0.0009860407610344367
1728332719875418400,0.40141845703125,-0.1744593232870102,0.032263465225696564,0.02663852460682392,0.11205637454986572,-0.07103873044252396,-0.9911593794822693,0.030552208423614502,0.015283152461051941,0.021127641201019287,0.997787058534334,0.03564389020322949,0.056123393674844785,-0.0008133594974567653
1728332719885449500,0.411449462890625,-0.1934165060520172,0.029127061367034912,0.04006431996822357,0.11235792934894562,-0.06918396055698395,-0.9912564158439636,0.03842936456203461,0.016617462038993835,0.026946723461151123,0.9978115537860819,0.0347015267944218,0.056281414894395046,-0.0005970907308993597
1728332719895480300,0.421480224609375,-0.21881720423698425,0.032574258744716644,0.051820844411849976,0.11284594237804413,-0.06725069880485535,-0.9913340210914612,0.03733100742101669,0.013204105198383331,0.02519327402114868,0.9978312114732941,0.03371607482177381,0.05653508574294479,-0.0003113229970593354
1728332719905511400,0.431511474609375,-0.25304925441741943,0.04095464199781418,0.04787643998861313,0.11376415193080902,-0.06509643793106079,-0.9913728833198547,0.0298820361495018,0.015001870691776276,0.027963459491729736,0.9978409593197035,0.03261842384086419,0.057005277846355625,0.0000038751682105421556
1728332719915541500,0.44154150390625,-0.2711232900619507,0.03455154597759247,0.05563795194029808,0.11456084996461868,-0.06265690177679062,-0.9914383292198181,0.02865809202194214,0.018208086490631104,0.031752049922943115,0.9978572996443541,0.031375685821985286,0.0574143711809543,0.00034821135379856663
1728332719925572400,0.451572265625,-0.2891904413700104,0.02601744793355465,0.07754937559366226,0.11494878679513931,-0.060204870998859406,-0.9915453195571899,0.03432789444923401,0.01789228245615959,0.02720510959625244,0.9978837929145364,0.030121604317478685,0.05761962944175887,0.0007735987753169732
1728332719935603500,0.461603515625,-0.3244105279445648,0.04039670526981354,0.08412232249975204,0.11528178304433823,-0.057525116950273514,-0.991665780544281,0.0300276055932045,0.0218195877969265,0.030697762966156006,0.9979135072102596,0.028748783984308832,0.05779817382205991,0.0012761467953987767
1728332719945634300,0.47163427734375,-0.3603602647781372,0.05395219475030899,0.08216729760169983,0.11575847864151001,-0.05445953458547592,-0.9917833209037781,0.018457777798175812,0.022431369870901108,0.038826167583465576,0.997942165943342,0.027180993284890532,0.05804772059890474,0.0018038283023864637
1728332719955664400,0.481664306640625,-0.39218950271606445,0.042752113193273544,0.08809282630681992,0.11658263951539993,-0.050840917974710464,-0.991878867149353,0.02190607786178589,0.02419910579919815,0.04702413082122803,0.9979650246351078,0.025335482194666775,0.058469465709118665,0.0023351316314800144
1728332719965695500,0.491695556640625,-0.40395188331604004,0.025182973593473434,0.11506426334381104,0.11732292920351028,-0.047055747359991074,-0.9919783473014832,0.03456300497055054,0.03031688556075096,0.040592849254608154,0.997988207157907,0.023401025874664274,0.05884901805353811,0.0029554481016508855
1728332719975726300,0.501726318359375,-0.4191148579120636,0.039984289556741714,0.12572810053825378,0.1180080696940422,-0.043264370411634445,-0.9920697212219238,0.042392268776893616,0.03726770356297493,0.03403139114379883,0.9980087193245628,0.02145661077274673,0.05920104014510157,0.0036874398512767984
1728332719985757400,0.51175732421875,-0.4633060395717621,0.06635011732578278,0.12623941898345947,0.11852972209453583,-0.03904326260089874,-0.9921826124191284,0.02774098515510559,0.02630220726132393,0.03974425792694092,0.9980338191636663,0.019294160815402566,0.05946789403176671,0.004463014856262301
1728332719995787300,0.521787353515625,-0.5252229571342468,0.09865272045135498,0.1413901448249817,0.11936003714799881,-0.03428146243095398,-0.9922590255737305,0.02370631694793701,0.022761113941669464,0.04932689666748047,0.9980489526497272,0.016857140644171268,0.05988594297378548,0.005284720134756078
1728332720005818400,0.531818359375,-0.586394727230072,0.11790710687637329,0.1546175330877304,0.1204160749912262,-0.028955375775694847,-0.9923011660575867,0.03218701481819153,0.02770419232547283,0.05962294340133667,0.9980541824171525,0.01413027468075306,0.06041327980632941,0.006205718391987691
1728332720015849500,0.541849365234375,-0.6237831115722656,0.11838887631893158,0.15063424408435822,0.1216234490275383,-0.02308245375752449,-0.9923079013824463,0.028736606240272522,0.036998502910137177,0.05410599708557129,0.9980495494049776,0.011126326207160532,0.06101034320571229,0.0071561942532071664
1728332720025880300,0.55188037109375,-0.5937426090240479,0.09595014154911041,0.16528615355491638,0.12269613891839981,-0.017209237441420555,-0.9922950863838196,0.01896640658378601,0.05131267011165619,0.02774125337600708,0.9980387623574917,0.008119643941862983,0.06153484798132204,0.00814009127550472
1728332720035911700,0.56191162109375,-0.4629082977771759,0.02040228061378002,0.19582915306091309,0.12335490435361862,-0.012076063081622124,-0.992289125919342,0.0076417475938797,0.05394621938467026,-0.006093442440032959,0.9980282310060823,0.005480968050487129,0.061849729623261476,0.009181458152625216
1728332720045941200,0.571941162109375,-0.3361476957798004,0.02633580192923546,0.28362956643104553,0.12376777827739716,-0.008345287293195724,-0.992276132106781,0.012233756482601166,0.02502318285405636,-0.039538443088531494,0.9980121019733151,0.003529319314829942,0.06204421946997355,0.010481884099834408
1728332720055972400,0.581972412109375,-0.359755277633667,0.09331030398607254,0.31614410877227783,0.1243438869714737,-0.005440784152597189,-0.9922242760658264,-0.012069769203662872,-0.02722824551165104,-0.032922208309173584,0.9979804559128989,0.001968440517265413,0.062321679489750745,0.0121294377016787
1728332720066003500,0.59200341796875,-0.4070809781551361,0.10357838869094849,0.25359657406806946,0.12539194524288177,-0.001892334083095193,-0.9921054840087891,-0.035288840532302856,-0.04356355965137482,0.009881973266601562,0.9979304620987842,0.00008611140757834217,0.06282717190603428,0.013692066852678075
1728332720076034600,0.60203466796875,-0.32996609807014465,0.09969928115606308,0.25193342566490173,0.1264762282371521,0.0014643187168985605,-0.99196857213974,0.008075714111328125,-0.0027460195124149323,0.01203387975692749,0.9978764463358792,-0.0016897733119901777,0.06334718812091814,0.015060267589317422
1728332720086064400,0.612064453125,-0.300914466381073,0.08242335915565491,0.2607804536819458,0.12745285034179688,0.004231949802488089,-0.9918355941772461,0.07876962423324585,0.027674216777086258,-0.019211769104003906,0.9978213421715119,-0.0031720353930672763,0.06381330394338636,0.01644092607119435
1728332720096095500,0.622095458984375,-0.29796114563941956,0.08435095846652985,0.280085951089859,0.12835466861724854,0.006832894403487444,-0.9917047619819641,0.09631568193435669,0.026995878666639328,-0.013879895210266113,0.9977636622767404,-0.004575988344386336,0.06423912295887838,0.01789108607402699
1728332720106126600,0.632126708984375,-0.33863508701324463,0.08283961564302444,0.28900328278541565,0.12925460934638977,0.00957681518048048,-0.9915651679039001,0.07876841723918915,0.004613897763192654,-0.019909441471099854,0.997700086900042,-0.006058085712042955,0.06465835882818508,0.019421233130494535
1728332720116157400,0.642157470703125,-0.43818849325180054,0.10868542641401291,0.2676263749599457,0.13028450310230255,0.01301982719451189,-0.9913911819458008,0.05514024198055267,-0.009968028403818607,-0.02134990692138672,0.9976254338602016,-0.007893487643552405,0.06513150561791556,0.020954996064545556
1728332720126188500,0.6521884765625,-0.5419434309005737,0.10695197433233261,0.255951851606369,0.1314907670021057,0.017578719183802605,-0.9911615252494812,0.052698031067848206,-0.01359613612294197,-0.0204656720161438,0.9975366279843905,-0.01028549569935475,0.06567683016831923,0.02239449033537947
1728332720136218600,0.662218505859375,-0.6144759058952332,0.07417304813861847,0.29106298089027405,0.13251781463623047,0.022979412227869034,-0.9909142255783081,0.08005231618881226,-0.01390039175748825,-0.017203450202941895,0.997438403537365,-0.013107007053557296,0.06611429869312907,0.023954369777446607
1728332720146249500,0.67224951171875,-0.701673150062561,0.02302970178425312,0.3005473017692566,0.13314321637153625,0.029122741892933846,-0.9906688332557678,0.09970586001873016,-0.020608296617865562,-0.016289174556732178,0.9973346678568503,-0.016306511001397864,0.06633005927376656,0.0256547031897628
1728332720156280600,0.682280517578125,-0.8124950528144836,-0.0019057951867580414,0.31124892830848694,0.1334824562072754,0.0363333560526371,-0.9903849363327026,0.08882279694080353,-0.028612367808818817,-0.006624341011047363,0.9972150914616139,-0.020045887502084792,0.06637539995338006,0.027470758919567427
1728332720166311400,0.6923115234375,-0.8433288931846619,-0.05521029606461525,0.3398299813270569,0.13330379128456116,0.044102758169174194,-0.990093469619751,0.06515197455883026,-0.04361443594098091,0.0024225711822509766,0.997088383982832,-0.02406265994575579,0.06613820004427505,0.029350958015164633
1728332720176341500,0.702341552734375,-0.8436329364776611,-0.12930375337600708,0.41349515318870544,0.13262906670570374,0.05199987441301346,-0.989800751209259,0.05456569790840149,-0.06458833068609238,-0.011496245861053467,0.9969489940161745,-0.02815397313364806,0.06562754131130025,0.03151326951214603
1728332720186372600,0.71237255859375,-0.8169997334480286,-0.07347483932971954,0.4257371723651886,0.13186821341514587,0.059671271592378616,-0.989469587802887,0.04546937346458435,-0.08092672377824783,-0.013734698295593262,0.9967864975295436,-0.03214637420087702,0.06505232013241527,0.03393324438793956
1728332720196403500,0.722403564453125,-0.8438411355018616,-0.07686552405357361,0.2965642809867859,0.13141140341758728,0.0673551931977272,-0.9890370965003967,0.007031530141830444,-0.09221172332763672,-0.01903480291366577,0.9966021764194517,-0.0361326750709517,0.06462117081062922,0.036091961730521115
1728332720206434600,0.7324345703125,-0.7859532833099365,0.20643222332000732,-0.8924891948699951,0.13123154640197754,0.07564825564622879,-0.9884612560272217,-0.01408986747264862,-0.08567323535680771,-0.01494145393371582,0.9964686543959825,-0.04027122160526084,0.06440193120766491,0.0357890264097604
1728332720216465400,0.74246533203125,-0.8894709348678589,-0.5254894495010376,-1.1584428548812866,0.12862947583198547,0.08518514037132263,-0.9880272746086121,-0.06033121049404144,-0.18619829416275024,-0.045343637466430664,0.9965396628558417,-0.04466584055268255,0.06317682992576275,0.030370485223758632
1728332720226495500,0.75249560546875,-0.9650450944900513,-0.7279229760169983,-0.17065563797950745,0.12175367027521133,0.09544398635625839,-0.9879607558250427,0.234188050031662,-0.04336569458246231,0.060623109340667725,0.996610685509523,-0.049522769069246825,0.05972528063818418,0.02734062483657656
1728332720236526600,0.762526611328125,-0.6783062815666199,-0.6459274888038635,0.544766366481781,0.1149473562836647,0.10347874462604523,-0.9879672527313232,0.2523469030857086,0.13191863894462585,-0.012276887893676758,0.9965685358070104,-0.05354450644874615,0.056119240845490186,0.028892019613068833
1728332720246557400,0.772557373046875,-0.3089948296546936,-0.3187994360923767,0.5973009467124939,0.1108548492193222,0.10760664194822311,-0.9879939556121826,-0.06283547729253769,0.13046103715896606,-0.10613751411437988,0.996474871059976,-0.05573123549539525,0.053824366619346455,0.03216857388135053
1728332720256588500,0.782588623046875,-0.12891808152198792,-0.08237779140472412,0.43855416774749756,0.10960132628679276,0.1090826541185379,-0.9879719018936157,-0.26638543605804443,0.06404360383749008,-0.1101725697517395,0.9963790040726929,-0.05659436132784068,0.05301995166878047,0.03485678373060156
1728332720266618400,0.792618408203125,-0.024338137358427048,0.04256707802414894,0.45855531096458435,0.11011462658643723,0.10924844443798065,-0.9878965020179749,-0.2211223691701889,-0.007884271442890167,-0.055072247982025146,0.9962795628476089,-0.056806678162813276,0.05314825804559574,0.037086986062667755
1728332720276649500,0.8026494140625,-0.059965040534734726,0.016694840043783188,0.5191544890403748,0.11105936765670776,0.10902225971221924,-0.9878157377243042,-0.07539963722229004,-0.06742675602436066,-0.0289536714553833,0.996163993873956,-0.0568452141451311,0.053485931949568154,0.03956225930472748
1728332720286680600,0.8126806640625,-0.17735213041305542,-0.07888227701187134,0.4648619294166565,0.11138968169689178,0.10959752649068832,-0.9877148866653442,0.010344885289669037,-0.08945588022470474,0.009794354438781738,0.9960346909450428,-0.0572779761698732,0.05349565110134335,0.04209849247426522
1728332720296711400,0.82271142578125,-0.26598531007766724,-0.1758882999420166,0.34681013226509094,0.110655777156353,0.11136584728956223,-0.9875996112823486,0.023163750767707825,-0.08280134946107864,0.012913942337036133,0.9959135068257826,-0.058263718426468436,0.052967387521378154,0.04422912112874582
1728332720306742500,0.832742431640625,-0.2853446304798126,-0.21578830480575562,0.2791338860988617,0.1090913936495781,0.11376723647117615,-0.9874998927116394,-0.004553481936454773,-0.06367259472608566,-0.00792241096496582,0.9958127225140812,-0.059521245484555646,0.05203136522921589,0.0459029755813048
1728332720316772400,0.8427724609375,-0.24751676619052887,-0.18510432541370392,0.29570940136909485,0.10748153924942017,0.11608836054801941,-0.987406313419342,-0.04929983615875244,-0.03199712187051773,-0.03830474615097046,0.9957162461723278,-0.06072839823381208,0.05107747931464503,0.04745875748223818
1728332720326803500,0.852803466796875,-0.1940692514181137,-0.11129721999168396,0.34626683592796326,0.10645300894975662,0.11793402582406998,-0.9872990250587463,-0.0989304706454277,-0.008040182292461395,-0.06262773275375366,0.9956061425738331,-0.06171717031916567,0.05041317920731229,0.04917323914314843
1728332720336834300,0.862834228515625,-0.15590527653694153,-0.04645131900906563,0.32200172543525696,0.10608188062906265,0.11925617605447769,-0.9871801137924194,-0.13724038004875183,0.002997279167175293,-0.07051330804824829,0.9954897251312432,-0.06245905822903627,0.05008795234876995,0.05089569609916033
1728332720346865400,0.872865478515625,-0.1384543925523758,0.030835747718811035,0.30231136083602905,0.10648802667856216,0.120327427983284,-0.9870063662528992,-0.17321476340293884,-0.001568228006362915,-0.06968003511428833,0.9953626292048,-0.0630899946650457,0.05016431387486309,0.05250166575320026
1728332720356895500,0.8828955078125,-0.13604941964149475,0.05694149062037468,0.2874163091182709,0.10738823562860489,0.12135089933872223,-0.986783504486084,-0.16589048504829407,-0.03091200441122055,-0.08886957168579102,0.9952265433101161,-0.06370619062484979,0.05049513943446145,0.053998124009791246
1728332720366926300,0.89292626953125,-0.16415908932685852,0.039226941764354706,0.2346239537000656,0.10826274752616882,0.12252118438482285,-0.9865433573722839,-0.1308305561542511,-0.059624411165714264,-0.09463340044021606,0.995092495755289,-0.06438889381219609,0.050817375199721355,0.0553415900194578
1728332720376957400,0.90295751953125,-0.1849401295185089,-0.007277870550751686,0.13495275378227234,0.10874935239553452,0.12406908720731735,-0.9862962961196899,-0.10388185828924179,-0.07621748745441437,-0.08891421556472778,0.9949758961798401,-0.0652318702097713,0.05095724050104946,0.05631374773227253
1728332720386988300,0.91298828125,-0.15202292799949646,-0.05007646977901459,0.04618027061223984,0.10865916311740875,0.1256631761789322,-0.986104428768158,-0.09515518695116043,-0.0849984735250473,-0.08494043350219727,0.9948992014477729,-0.06605678628413801,0.050835844886952405,0.0568153560023717
1728332720397019400,0.923019287109375,-0.10028529912233353,-0.07755501568317413,-0.008804419077932835,0.10813642293214798,0.12686172127723694,-0.9860084056854248,-0.09563952684402466,-0.07669079303741455,-0.08113020658493042,0.9948674041151858,-0.06665069021232535,0.050531886928434744,0.056948900600787944
1728332720407049500,0.933049560546875,-0.021640289574861526,-0.09753085672855377,-0.0282399021089077,0.10732299089431763,0.12747997045516968,-0.9860175848007202,-0.10373722016811371,-0.057823553681373596,-0.059148430824279785,0.9948723960671676,-0.0669345102212677,0.0501097779092438,0.056901294517896744
1728332720417080300,0.943080322265625,0.060368627309799194,-0.08414345979690552,-0.025096839293837547,0.10646075755357742,0.12730415165424347,-0.9861337542533875,-0.1155092716217041,-0.05317690968513489,-0.04507046937942505,0.9949078714268372,-0.06681417058526601,0.049688987621413314,0.05679057035997689
1728332720427111400,0.953111328125,0.11906203627586365,-0.06270847469568253,-0.015860464423894882,0.10580511391162872,0.1263953149318695,-0.986321210861206,-0.1272590160369873,-0.06862549483776093,-0.029761552810668945,0.9949604627307438,-0.06633216666503315,0.04939073692051619,0.056695377932952415
1728332720437142300,0.963142333984375,0.14274552464485168,-0.028836267068982124,-0.014777623116970062,0.1054442971944809,0.12504778802394867,-0.9865315556526184,-0.13072817027568817,-0.09085281193256378,-0.010401368141174316,0.9950178530223742,-0.06563928856858742,0.049251349317087904,0.05661514732308737
1728332720447172400,0.97317236328125,0.1242208480834961,-0.016840055584907532,-0.04754728451371193,0.10527215152978897,0.12371492385864258,-0.9867179989814758,-0.12552061676979065,-0.110592320561409,0.01329880952835083,0.9950746245286294,-0.0649549395307622,0.04921240601748779,0.056440022455329836
1728332720457203500,0.983203369140625,0.08315709233283997,-0.00827996525913477,-0.07394054532051086,0.10394151508808136,0.12174597382545471,-0.9871038794517517,-0.11302054673433304,-0.12272248417139053,0.03272765874862671,0.9951899491346634,-0.06390858709432602,0.048618417058807546,0.0561145041633853
1728332720467234300,0.993234375,0.05961528420448303,-0.014268615283071995,-0.1042606383562088,0.10252101719379425,0.11991636455059052,-0.9874763488769531,-0.09994232654571533,-0.12629449367523193,0.044528961181640625,0.9953093248881144,-0.06292391904974026,0.04798347234965133,0.05565627704629509
1728332720477265400,1.003265380859375,0.03926999866962433,-0.008008215576410294,-0.12126864492893219,0.10133550316095352,0.11869815737009048,-0.9877458214759827,-0.0918598547577858,-0.115814208984375,0.04830801486968994,0.9954091090950284,-0.062248762082730884,0.047456994665294065,0.055079460380267724
1728332720487295500,1.01329541015625,0.054953888058662415,0.012744467705488205,-0.13248880207538605,0.10037248581647873,0.11789757758378983,-0.9879400134086609,-0.090591661632061,-0.09163716435432434,0.06313538551330566,0.995494143363749,-0.06178686542950265,0.047035755029125985,0.05441974012743465
1728332720497326300,1.023326416015625,0.08865359425544739,0.045785024762153625,-0.11773143708705902,0.09972529858350754,0.11693701148033142,-0.9881197214126587,-0.08754883706569672,-0.05823639780282974,0.06201803684234619,0.9955750296655939,-0.0612543133051004,0.04677653320495642,0.053761146120929096
1728332720507357400,1.033357421875,0.12468057125806808,0.07437565922737122,-0.10958456248044968,0.09937642514705658,0.11553981900215149,-0.9883192181587219,-0.08387354761362076,-0.02760336548089981,0.06996899843215942,0.9956585342082472,-0.06051283808899176,0.04667534883040359,0.05313755702093037
1728332720517388300,1.04338818359375,0.17432774603366852,0.10259483009576797,-0.1043892651796341,0.09927867352962494,0.11355750262737274,-0.9885587692260742,-0.07588699460029602,-0.011277787387371063,0.06479167938232422,0.9957500966380872,-0.059486155382414314,0.04671201609942541,0.05254736739693822
1728332720527419400,1.05341943359375,0.19578270614147186,0.13276046514511108,-0.1076606959104538,0.0994187667965889,0.11096343398094177,-0.9888392090797424,-0.06963367015123367,-0.007875017821788788,0.04894363880157471,0.9958519891593947,-0.05815841379672,0.04688264648158015,0.05194790645153741
1728332720537449500,1.063449462890625,0.1678294986486435,0.15004117786884308,-0.10689236968755722,0.09969266504049301,0.1081240102648735,-0.9891261458396912,-0.05690707266330719,-0.0008699372410774231,0.04909318685531616,0.9959557816217776,-0.05671055588077644,0.047125677904938414,0.05133506510252693
1728332720547479600,1.0734794921875,0.1292315125465393,0.1460064798593521,-0.1167932078242302,0.09993249922990799,0.1053420826792717,-0.9894021153450012,-0.03694426268339157,0.010594241321086884,0.04476100206375122,0.9960573605722606,-0.0552898584353802,0.047349490803713125,0.05070441870424186
1728332720557510700,1.0835107421875,0.0928068608045578,0.13715659081935883,-0.12627911567687988,0.10018560290336609,0.10304474085569382,-0.9896184206008911,-0.02038218080997467,0.008085064589977264,0.03370106220245361,0.9961450336812676,-0.05411150299162452,0.04756818074315516,0.0500447014327373
1728332720567541500,1.09354150390625,0.039222992956638336,0.12219627946615219,-0.1430618166923523,0.1004919782280922,0.10174933820962906,-0.989721417427063,-0.010236285626888275,0.0030328184366226196,0.02977573871612549,0.9962068435013536,-0.05343447792408859,0.04779184750843653,0.049320643400786866
1728332720577571600,1.103571533203125,-0.011507959105074406,0.10067559778690338,-0.16575248539447784,0.10072842985391617,0.10143963247537613,-0.9897291660308838,-0.0038046464323997498,0.0022286325693130493,0.02636551856994629,0.996248341010166,-0.05324642086519776,0.04796087140998738,0.04851546613404726
1728332720587602700,1.113602783203125,-0.027473077178001404,0.07776149362325668,-0.20310412347316742,0.1007639467716217,0.10178624838590622,-0.9896899461746216,-0.0028941258788108826,0.00034087151288986206,0.016469120979309082,0.996284790232734,-0.053375201304289854,0.04802202805774521,0.04755687396240715
1728332720597633500,1.123633544921875,-0.030649028718471527,0.06918798387050629,-0.22672103345394135,0.10068520903587341,0.10238759964704514,-0.9896359443664551,-0.0045396313071250916,0.005308978259563446,0.005276203155517578,0.9963241280957332,-0.05362114431793209,0.04802925278061202,0.04643504625639351
1728332720607664600,1.13366455078125,-0.009358922019600868,0.07059146463871002,-0.24837012588977814,0.10055314004421234,0.10293387621641159,-0.9895926713943481,-0.0017830580472946167,0.016695067286491394,0.01075667142868042,0.9963693141409535,-0.053833548644258114,0.0480167324356222,0.04521665404967176
1728332720617695500,1.143695556640625,0.03439248725771904,0.0773555189371109,-0.25032463669776917,0.10054907202720642,0.10318844020366669,-0.9895665645599365,0.0027376115322113037,0.020651929080486298,0.015613377094268799,0.996420228025378,-0.05389942020981818,0.04807867147179654,0.04393324043412078
1728332720627725600,1.1537255859375,0.07951495796442032,0.08828193694353104,-0.24593333899974823,0.10077867656946182,0.10306479036808014,-0.9895561337471008,0.006139606237411499,0.02207259088754654,0.02838975191116333,0.996473772428213,-0.05378013459375808,0.048266325193715175,0.042640462002498346
1728332720637756700,1.163756591796875,0.12729813158512115,0.09732848405838013,-0.23359385132789612,0.101277194917202,0.10241284966468811,-0.9895728826522827,0.014903165400028229,0.030567534267902374,0.04212421178817749,0.9965307578731818,-0.05340304727629163,0.04859692063492516,0.0413884947919119
1728332720647787500,1.17378759765625,0.17524541914463043,0.0909331738948822,-0.21854832768440247,0.10187443345785141,0.10121522098779678,-0.9896348118782043,0.026009418070316315,0.0360376238822937,0.04963243007659912,0.9965950549349325,-0.052756206732345226,0.04898338339825299,0.04019657821745999
1728332720657818600,1.183818603515625,0.21666622161865234,0.08963184803724289,-0.21179427206516266,0.10252392292022705,0.09955786168575287,-0.9897358417510986,0.028381183743476868,0.03261382132768631,0.05377697944641113,0.9966656634793616,-0.05188136594868404,0.04940032797076932,0.039057369600358466
1728332720667848700,1.1938486328125,0.2255910187959671,0.10098543763160706,-0.20959077775478363,0.10321524739265442,0.09763119369745255,-0.989855945110321,0.023310579359531403,0.023157425224781036,0.050875842571258545,0.996739359750721,-0.05087190486925902,0.04984058328241976,0.03792959617452081
1728332720677879600,1.203879638671875,0.2375527322292328,0.1069716364145279,-0.21145951747894287,0.1039285883307457,0.09573832154273987,-0.9899661540985107,0.015456117689609528,0.013346798717975616,0.04990273714065552,0.9968098693757825,-0.049878252698245286,0.05028989523718972,0.036786174774234175
1728332720687910700,1.21391064453125,0.23236675560474396,0.13754898309707642,-0.22496122121810913,0.10486841946840286,0.09402298182249069,-0.9900314807891846,0.003926694393157959,0.0012224242091178894,0.03713536262512207,0.9968697920486611,-0.048974419587407454,0.05085051807238081,0.03558723215253461
1728332720697941500,1.22394140625,0.20864424109458923,0.1638006567955017,-0.23635368049144745,0.10625434666872025,0.09209251403808594,-0.9900651574134827,-0.003852665424346924,0.003686942160129547,0.031553804874420166,0.9969220050143772,-0.0479671136636101,0.05163899339601107,0.03433863348573734
1728332720707972600,1.23397265625,0.19596999883651733,0.19140806794166565,-0.22637349367141724,0.1079198569059372,0.09033756703138351,-0.9900466799736023,-0.00028440356254577637,0.011820070445537567,0.020762622356414795,0.9969598756932574,-0.04705063275787354,0.05256327759764884,0.03308030217702955
1728332720718002400,1.24400244140625,0.18739023804664612,0.2010231912136078,-0.210292786359787,0.10976485162973404,0.08865418285131454,-0.9899960160255432,0.013434551656246185,0.020217321813106537,0.003286421298980713,0.9969859541503472,-0.04617470838694102,0.05357133491498952,0.03189102848335844
1728332720728033500,1.254033447265625,0.16681864857673645,0.20094090700149536,-0.19921137392520905,0.11168687045574188,0.08713110536336899,-0.9899162650108337,0.02683236449956894,0.028484784066677094,-0.00556713342666626,0.9970010745510859,-0.04538228687896319,0.054610573990261826,0.03077489407804687
1728332720738064600,1.264064697265625,0.15098261833190918,0.19490143656730652,-0.20295977592468262,0.11356641352176666,0.08578404039144516,-0.9898200631141663,0.03477948158979416,0.03048797696828842,-0.00998157262802124,0.9970102171692241,-0.04467638534801414,0.055623606690664594,0.02967794086941184
1728332720748095500,1.274095458984375,0.11389889568090439,0.17225152254104614,-0.20694492757320404,0.11532675474882126,0.0846901684999466,-0.9897107481956482,0.03819186985492706,0.030101746320724487,-0.017338812351226807,0.9970151609030801,-0.04409290080789541,0.056572558617767534,0.02856874072684556
1728332720758125600,1.28412548828125,0.06428427249193192,0.159942165017128,-0.21353386342525482,0.11688482761383057,0.08404403924942017,-0.9895830154418945,0.037228889763355255,0.028657421469688416,-0.02169322967529297,0.9970143767261542,-0.04372901062034722,0.05741313081905181,0.02745768695990847
1728332720768156400,1.294156494140625,0.03211941197514534,0.15449360013008118,-0.20347297191619873,0.11836294829845428,0.08380778133869171,-0.9894273281097412,0.03381289541721344,0.027734003961086273,-0.034696757793426514,0.9970048980682572,-0.043568709109129564,0.05820735575747946,0.026359657240438174
1728332720778187500,1.3041875,0.015111135318875313,0.1424236297607422,-0.18065127730369568,0.11976496875286102,0.08380302786827087,-0.9892590045928955,0.0354931578040123,0.03158397972583771,-0.04554629325866699,0.9969884881269475,-0.043528070444161134,0.05895590226038712,0.02536593759804618
1728332720788218600,1.314218505859375,0.0059397402219474316,0.11733585596084595,-0.16659937798976898,0.12101859599351883,0.08392452448606491,-0.9890961647033691,0.04067874699831009,0.04804878681898117,-0.04374074935913086,0.9969699956925675,-0.04355337166374621,0.05962410631336013,0.024472367943433153
1728332720798248400,1.32424853515625,0.026415986940264702,0.08754600584506989,-0.14963850378990173,0.12202044576406479,0.08397635072469711,-0.9889686703681946,0.05257056653499603,0.06888623535633087,-0.04876631498336792,0.9969576605939471,-0.043544084876641874,0.06016302280692104,0.02365958114303249
1728332720808279600,1.334279541015625,0.04931357875466347,0.05286019295454025,-0.14594122767448425,0.12270217388868332,0.0837865099310875,-0.9889004230499268,0.0594266802072525,0.07949783653020859,-0.04585909843444824,0.9969581343348441,-0.04341195733201178,0.06054092224401628,0.022904316026105636
1728332720818310400,1.344310302734375,0.06454765796661377,0.026960154995322227,-0.12479574233293533,0.12309809774160385,0.08338300883769989,-0.9888852834701538,0.05364440381526947,0.07698690891265869,-0.04231894016265869,0.9969703982951744,-0.043171432121660754,0.06077481340497561,0.022198909465907135
1728332720828341800,1.354341796875,0.0624309778213501,0.0011996645480394363,-0.11368796229362488,0.1232479065656662,0.08289048820734024,-0.988908052444458,0.046826496720314026,0.06421954184770584,-0.03224062919616699,0.9969897788123839,-0.042887940491280044,0.060881866755576615,0.02157611516018363
1728332720838372600,1.36437255859375,0.029689542949199677,-0.010886026546359062,-0.09309906512498856,0.1232088953256607,0.08256222307682037,-0.9889403581619263,0.03298002481460571,0.04773262143135071,-0.02463996410369873,0.9970091202156777,-0.04269027925304744,0.06088807147523191,0.02104661223282197
1728332720848402400,1.37440234375,-0.015087515115737915,-0.03314100205898285,-0.08320435136556625,0.12334007769823074,0.08310982584953308,-0.9888781309127808,0.023968219757080078,0.033101148903369904,-0.012662947177886963,0.9970027453290592,-0.04293996367458316,0.060967923526792124,0.020606743382060987
1728332720858433800,1.384433837890625,-0.050950706005096436,-0.041112639009952545,-0.06800223141908646,0.12328550219535828,0.08400989323854446,-0.9888088703155518,0.020208090543746948,0.02721145749092102,-0.018774688243865967,0.9969931603910552,-0.04336837425841227,0.06094864650934395,0.020230569945333187
1728332720868464600,1.394464599609375,-0.07880230993032455,-0.06422994285821915,-0.04564445838332176,0.12312270700931549,0.08533606678247452,-0.9887155890464783,0.026459142565727234,0.03990811109542847,-0.027779102325439453,0.9969750078267476,-0.04401632293145523,0.06086673375272553,0.019963972939343176
1728332720878495700,1.404495849609375,-0.051609307527542114,-0.09009802341461182,-0.007981768809258938,0.1228368878364563,0.08683270961046219,-0.9886208772659302,0.040279507637023926,0.0645345151424408,-0.027233004570007324,0.9969533828801312,-0.044758514032334884,0.06071450890572726,0.019860101892652176
1728332720888525800,1.41452587890625,0.030875984579324722,-0.1209065392613411,0.01670759730041027,0.12229340523481369,0.08772564679384232,-0.9886093735694885,0.05043603479862213,0.08108238130807877,-0.037010133266448975,0.9969495598490996,-0.045203740585914885,0.06043115624244066,0.019907407705470073
1728332720898556700,1.424556640625,0.09767445176839828,-0.13772307336330414,0.005904219578951597,0.12142302095890045,0.08773168176412582,-0.9887161254882812,0.04674404114484787,0.08991118520498276,-0.04434967041015625,0.996975225908123,-0.0452001385143202,0.05999065012675977,0.019962757428385196
1728332720908587800,1.434587890625,0.1137160062789917,-0.13380929827690125,0.037569738924503326,0.12048399448394775,0.08719165623188019,-0.9888787865638733,0.028853721916675568,0.0854310691356659,-0.03017944097518921,0.9970146052707736,-0.04492235788681029,0.059519710676800806,0.02003404029597526
1728332720918618600,1.44461865234375,0.11687584221363068,-0.15824858844280243,0.09379332512617111,0.11936572194099426,0.08637431263923645,-0.9890860915184021,0.03332892060279846,0.060232169926166534,-0.0141945481300354,0.9970598429618484,-0.044518725988360625,0.05894942977881063,0.02036790097056838
1728332720928649700,1.454649658203125,0.05542207136750221,-0.17314738035202026,0.08615750819444656,0.11806245893239975,0.08568404614925385,-0.9893025159835815,0.02657555788755417,0.025201618671417236,-0.003983616828918457,0.9971042530058858,-0.04418465012582896,0.05827907076073917,0.02084249420305564
1728332720938679800,1.4646796875,-0.032846804708242416,-0.18073977530002594,0.06474569439888,0.11663329601287842,0.0857740193605423,-0.9894642233848572,0.008030951023101807,-0.0017743483185768127,0.009834766387939453,0.9971361169459076,-0.0442365765462201,0.057541313579518506,0.02125220564437728
1728332720948710700,1.474710693359375,-0.10215770453214645,-0.1873931586742401,0.06613054126501083,0.11525430530309677,0.08693331480026245,-0.9895246624946594,0.00445084273815155,-0.01202787458896637,0.019798099994659424,0.9971433257822025,-0.04482321701858085,0.056820347893013136,0.021621015988698845
1728332720958741800,1.48474169921875,-0.14299115538597107,-0.20032839477062225,0.07353013008832932,0.11414474248886108,0.08924499154090881,-0.9894474744796753,0.008108630776405334,-0.001232251524925232,0.018652796745300293,0.9971152833430116,-0.04599310510909361,0.056221845271393706,0.022018728719518637
1728332720968772600,1.494772705078125,-0.13947923481464386,-0.2018381506204605,0.08497267216444016,0.11337077617645264,0.0923963412642479,-0.98924720287323,0.012559965252876282,0.026423893868923187,0.01709449291229248,0.9970548537247265,-0.04759224378043838,0.055779810741873236,0.022479613923367302
1728332720978802700,1.504802734375,-0.08619584143161774,-0.2028278261423111,0.10192076116800308,0.11272820830345154,0.09571540355682373,-0.9890050292015076,0.01198183000087738,0.05443112552165985,0.009970605373382568,0.9969823744263682,-0.049280315275883495,0.05539804887762643,0.02299548592955651
1728332720988833800,1.514833740234375,-0.00393932219594717,-0.19786928594112396,0.10942208766937256,0.11160258948802948,0.0979589968919754,-0.9889129996299744,0.010193020105361938,0.07335147261619568,0.006460607051849365,0.996946322119847,-0.05042364713894969,0.0547810279154515,0.023551452379909774
1728332720998864600,1.52486474609375,0.08298918604850769,-0.18733833730220795,0.10770568251609802,0.11059971153736115,0.0984877347946167,-0.9889731407165527,0.0010030269622802734,0.08341233432292938,0.006093502044677734,0.9969478140011607,-0.05070684770655139,0.05424247201936651,0.0241178750245652
1728332721008895700,1.534895751953125,0.14788375794887543,-0.15599612891674042,0.11656522005796432,0.10967502743005753,0.09747365117073059,-0.9891765713691711,-0.008448265492916107,0.08299209177494049,-0.0006000399589538574,0.9969847603538562,-0.05021569930226704,0.05375965852308186,0.0246925462149174
1728332721018925600,1.544925537109375,0.1788850873708725,-0.13034163415431976,0.13133272528648376,0.10871391743421555,0.09542833268642426,-0.989482045173645,-0.007029406726360321,0.06726092100143433,-0.0044296979904174805,0.9970456928728639,-0.049208106065342885,0.053268561971386935,0.025316316913493463
1728332721028956700,1.554956787109375,0.158843994140625,-0.12537802755832672,0.13693787157535553,0.10786183178424835,0.09319040924310684,-0.9897885322570801,0.0019403621554374695,0.04333001375198364,0.0006223320960998535,0.997105238788246,-0.04810767854397556,0.05283347097618676,0.025991382669327108
1728332721038987500,1.564987548828125,0.10758088529109955,-0.1432226598262787,0.13377217948436737,0.10695493966341019,0.09164192527532578,-0.9900315403938293,0.013238489627838135,0.011492274701595306,0.013636887073516846,0.99714775847547,-0.04735351049837739,0.05236303278027694,0.026688406771018025
1728332721049018600,1.5750185546875,0.029970508068799973,-0.1583898961544037,0.09478136152029037,0.1058787852525711,0.09132780879735947,-0.9901762008666992,0.015886299312114716,-0.017368413507938385,0.02269268035888672,0.9971680531211107,-0.04721059998060735,0.05179823356755445,0.027278844946366416
1728332721059049700,1.5850498046875,-0.04731415957212448,-0.15610474348068237,0.07210374623537064,0.10466908663511276,0.09228777885437012,-0.9902158379554749,0.002050824463367462,-0.02849075198173523,0.027187883853912354,0.9971662862856622,-0.04769619098379372,0.051158271885824357,0.027701156516783836
1728332721069079600,1.59507958984375,-0.07780948281288147,-0.1502133011817932,0.06644506007432938,0.10346762090921402,0.0941358283162117,-0.9901680946350098,-0.0015084445476531982,-0.01828434318304062,0.020136356353759766,0.9971439601393266,-0.04862465487950564,0.050513222899571206,0.028069198485154077
1728332721079110700,1.605110595703125,-0.059399984776973724,-0.12887263298034668,0.050610970705747604,0.10226812958717346,0.09618081897497177,-0.9900962114334106,0.0023918524384498596,0.01275172084569931,-0.00001609325408935547,0.9971170739290686,-0.049649104741663376,0.04986849813877629,0.02838587272675162
1728332721089141500,1.6151416015625,0.004878071136772633,-0.1271122843027115,0.04908977448940277,0.10104359686374664,0.09769201278686523,-0.9900739789009094,0.011596731841564178,0.05741362273693085,-0.009193599224090576,0.997104238173909,-0.050401484083396335,0.049220996892473556,0.028636696173662067
1728332721099172600,1.625172607421875,0.0826500952243805,-0.10412371903657913,0.13760127127170563,0.0999574139714241,0.09803689271211624,-0.9901501536369324,0.027926437556743622,0.08845607191324234,-0.017189323902130127,0.9971115528877563,-0.05057760031769574,0.04865018491896227,0.029045390402584317
1728332721109202700,1.63520263671875,0.10368986427783966,-0.15222308039665222,0.3144066631793976,0.09926978498697281,0.09745331108570099,-0.9902769327163696,0.07777788490056992,0.09531101584434509,-0.03016984462738037,0.9971067559341983,-0.05033308379264599,0.04825064501966543,0.03027531636635014
1728332721119233500,1.645233642578125,0.14890801906585693,-0.21293200552463531,0.15495629608631134,0.0980105921626091,0.09602323919534683,-0.9905419945716858,0.10026206076145172,0.06741369515657425,-0.02979797124862671,0.9971336581982516,-0.049654978693268036,0.047575007140485764,0.031550825829858686
1728332721129264600,1.6552646484375,0.16121448576450348,-0.2300524115562439,-0.10223876684904099,0.09593191742897034,0.09409176558256149,-0.9909307956695557,-0.010635338723659515,0.010537803173065186,-0.039373159408569336,0.9972285429670577,-0.048653467832764224,0.04655588690100067,0.03163392338470705
1728332721139295500,1.66529541015625,0.130112424492836,-0.17729192972183228,-0.062382958829402924,0.0940013900399208,0.092403344810009,-0.9912745952606201,-0.07677427679300308,-0.018672838807106018,-0.030881106853485107,0.9973290843201427,-0.04775206118179428,0.04563368030010918,0.031179765214527005
1728332721149326600,1.67532666015625,0.0982423722743988,-0.08873677998781204,0.10084537416696548,0.09277359396219254,0.091049924492836,-0.9915155172348022,-0.044967859983444214,-0.021317213773727417,-0.018997788429260254,0.9973867305125083,-0.04705592189892218,0.04503324941102441,0.03126558213684402
1728332721159356700,1.685356689453125,0.06851457804441452,-0.09347475320100784,0.13923165202140808,0.09209248423576355,0.09032826870679855,-0.9916449785232544,-0.01584435999393463,-0.022014625370502472,-0.008614420890808105,0.9973984732231511,-0.04671149115257802,0.04467150757168531,0.03191821124667471
1728332721169387500,1.695387451171875,0.041382286697626114,-0.11070993542671204,0.05389145389199257,0.09136725217103958,0.09046373516321182,-0.9916996955871582,-0.006635256111621857,-0.025369703769683838,-0.008040845394134521,0.9973961881960912,-0.046789137375835316,0.044282225416172535,0.03241570952959745
1728332721179418600,1.705418701171875,0.019007205963134766,-0.11931541562080383,0.04705112427473068,0.09061869233846664,0.09130270779132843,-0.991691529750824,0.0032075494527816772,-0.01622942090034485,-0.010505735874176025,0.9973881878978899,-0.047205253061286506,0.043885127399727546,0.0325989188746052
1728332721189449500,1.715449462890625,0.02800256386399269,-0.1363079696893692,0.14927363395690918,0.09031783044338226,0.0922188013792038,-0.99163419008255,0.04455455392599106,0.008763909339904785,-0.002964198589324951,0.9973585073988936,-0.04768009080497181,0.04369794257631507,0.03306201576080432
1728332721199479600,1.7254794921875,0.00862433947622776,-0.28104251623153687,0.06398802995681763,0.08971688151359558,0.09265241771936417,-0.9916483163833618,0.08867356181144714,0.011153161525726318,-0.006932556629180908,0.997338714385508,-0.04791735684851885,0.043356222514231865,0.033758178001199145
1728332721209510700,1.7355107421875,-0.011570677161216736,-0.23804551362991333,0.05336441472172737,0.08688279241323471,0.09272395074367523,-0.9918939471244812,0.041916586458683014,-0.007198400795459747,-0.00014090538024902344,0.9973900470048223,-0.04791482008992176,0.041918783278702694,0.03406086044377304
1728332721219541500,1.74554150390625,-0.06669598072767258,-0.16446371376514435,0.14596492052078247,0.08431458473205566,0.09283818304538727,-0.9921048879623413,-0.030039124190807343,0.013012081384658813,0.006020903587341309,0.9974254889730678,-0.04794604340440794,0.04060455267101339,0.03456545063662549
1728332721229572600,1.755572509765625,-0.056269172579050064,-0.15170344710350037,0.2134006917476654,0.08257876336574554,0.09306372702121735,-0.9922297596931458,0.002946697175502777,-0.0018924176692962646,-0.001056373119354248,0.9974216950723604,-0.04806712255857328,0.03968214685873747,0.035565829371641704
1728332721239603500,1.765603515625,-0.0777456983923912,-0.15968146920204163,0.15522260963916779,0.08118908107280731,0.09325022250413895,-0.9923269152641296,0.00851728767156601,-0.021167658269405365,-0.012967884540557861,0.9974091915127136,-0.04817425917717649,0.03893298414663561,0.036584349549422954
1728332721249633500,1.775633544921875,-0.1071118414402008,-0.16393746435642242,0.10308962315320969,0.07974273711442947,0.09380310773849487,-0.9923921227455139,-0.0032199621200561523,-0.01935543864965439,0.007040560245513916,0.9974003006086337,-0.04844974737270399,0.03816508708223242,0.037265398029788066
1728332721259664600,1.78566455078125,-0.08504728972911835,-0.188026562333107,0.10677676647901535,0.07823861390352249,0.09450642019510269,-0.9924451112747192,0.024452991783618927,-0.01459609717130661,0.02071964740753174,0.9973914790910956,-0.0487949918949753,0.03736982801570951,0.037851373965731606
1728332721269695500,1.795695556640625,-0.05851741507649422,-0.1966456174850464,0.14863048493862152,0.07712337374687195,0.09517168998718262,-0.9924688339233398,0.04735778272151947,-0.009875021874904633,0.025992393493652344,0.9973701893495004,-0.049132763881746574,0.036763674154236224,0.0385627171146574
1728332721279726600,1.8057265625,-0.047197114676237106,-0.21711599826812744,0.18236367404460907,0.0769524872303009,0.09569820761680603,-0.9924314618110657,0.05619565397500992,-0.0005443543195724487,0.039901554584503174,0.9973226643865347,-0.0494293893192481,0.036619853494392375,0.03953994754532748
1728332721289756400,1.81575634765625,-0.03037598915398121,-0.2929379343986511,0.06540749222040176,0.07520225644111633,0.09579534828662872,-0.9925562143325806,0.07360139489173889,0.0010064542293548584,0.055468201637268066,0.9973260360530743,-0.04946663719870277,0.03570624782353223,0.040236380926372654
1728332721299787500,1.82578759765625,-0.027601508423686028,-0.2590566873550415,0.04394960775971413,0.07201796770095825,0.0962618961930275,-0.9927472472190857,0.00763285905122757,-0.010293826460838318,0.0660504698753357,0.9973626649002234,-0.04964294911046733,0.03408757286697526,0.04051557080424608
1728332721309818600,1.835818603515625,-0.12892866134643555,0.050829850137233734,0.5720467567443848,0.07115505635738373,0.09659123420715332,-0.9927774667739868,-0.023135699331760406,-0.01613159477710724,0.062479615211486816,0.9973189618837561,-0.049831670371342764,0.033586803632832105,0.04175601760674748
1728332721319849700,1.845849609375,-0.12594425678253174,-0.21790926158428192,0.8794649839401245,0.0713411420583725,0.09735802561044693,-0.9926891922950745,0.18595251441001892,-0.0052254050970077515,0.07217222452163696,0.9971208866632614,-0.050355474551041425,0.03346226849229066,0.04576748589475319
1728332721329880800,1.855880859375,-0.15354526042938232,-0.3460773527622223,0.5656775236129761,0.06942164152860641,0.09814313054084778,-0.992747962474823,0.2148037552833557,-0.045271389186382294,0.07593894004821777,0.9969552825573663,-0.050826049355896394,0.03229117219768245,0.049540828584395014
1728332721339910400,1.865910400390625,-0.20997251570224762,-0.4205228090286255,0.3176053762435913,0.06587599217891693,0.09958716481924057,-0.9928457736968994,0.04381939023733139,-0.08753266930580139,0.062288522720336914,0.996865807570349,-0.05152747886029304,0.030364893009636604,0.0517835105516235
1728332721349941800,1.875941650390625,-0.24415339529514313,-0.3474730849266052,0.4085179567337036,0.062486860901117325,0.10161499679088593,-0.992859423160553,0.022824980318546295,-0.07691097259521484,0.03033500909805298,0.9967690837820643,-0.05250783676429391,0.028517150637944595,0.05367609883162762
1728332721359972600,1.88597265625,-0.20327825844287872,-0.28660932183265686,0.5838053822517395,0.05989740416407585,0.10350357741117477,-0.9928238987922668,0.05182739719748497,-0.05305797606706619,-0.0007826685905456543,0.9966154150490235,-0.05345452565308957,0.027030730175481618,0.056299432481637525
1728332721370003700,1.896003662109375,-0.14620324969291687,-0.2532026171684265,0.6743155717849731,0.05796013027429581,0.10479588806629181,-0.9928033351898193,0.048271507024765015,-0.03420867770910263,-0.023569345474243164,0.996419316874382,-0.054131870308834665,0.025847179978075466,0.05958476796204327
1728332721380033800,1.90603369140625,-0.09828293323516846,-0.23662684857845306,0.676868736743927,0.056301869451999664,0.10559673607349396,-0.9928138852119446,0.04046931862831116,-0.009832531213760376,-0.030516743659973145,0.9962077217013072,-0.05456955992649185,0.024803536456754625,0.06306557482772693
1728332721390064600,1.916064697265625,-0.04711855202913284,-0.24393990635871887,0.7092256546020508,0.054722536355257034,0.10587908327579498,-0.9928721189498901,0.06325836479663849,0.004518300294876099,-0.027620375156402588,0.995992737017255,-0.054744582807351394,0.023811040111678856,0.06659370685760407
1728332721400095700,1.926095703125,-0.02170933037996292,-0.28070664405822754,0.7622270584106445,0.052933137863874435,0.10574453324079514,-0.9929834604263306,0.11062577366828918,0.008711688220500946,-0.028256773948669434,0.9957634851276281,-0.054701679170294136,0.02271540906849202,0.0703341105264864
1728332721410126600,1.936126708984375,-0.004918100778013468,-0.3106030225753784,0.8201037049293518,0.050892286002635956,0.1054086983203888,-0.993125855922699,0.12897826731204987,-0.0007333606481552124,-0.023109495639801025,0.9955057321081713,-0.05454747296692429,0.021485831729987737,0.07437328513052605
1728332721420156700,1.94615673828125,0.0007109562866389751,-0.3309520184993744,0.8339300155639648,0.048624128103256226,0.1049618124961853,-0.9932868480682373,0.12169443070888519,-0.01781882345676422,-0.031417131423950195,0.9952215995866789,-0.054323325927721614,0.020138630385523836,0.078597250522716
1728332721430187800,1.956187744140625,0.003284901613369584,-0.334346741437912,0.8509942293167114,0.046232447028160095,0.10447327047586441,-0.9934524893760681,0.09430094808340073,-0.031917691230773926,-0.04617452621459961,0.9949155912383459,-0.054063935198353064,0.018730555773790663,0.08288152582496533
1728332721440218600,1.966218505859375,0.0010605629067867994,-0.3244835138320923,0.8877708911895752,0.04389059543609619,0.10399536788463593,-0.9936088919639587,0.07058079540729523,-0.029669754207134247,-0.05184704065322876,0.99457675034039,-0.05380348404373931,0.017342182739627756,0.08730225197613363
1728332721450249700,1.976249755859375,0.014396874234080315,-0.30465149879455566,0.9328004121780396,0.04174743965268135,0.10347264260053635,-0.9937557578086853,0.05949457362294197,-0.016360163688659668,-0.04922819137573242,0.9941967002167935,-0.053522077573887585,0.016046602864586465,0.09192917370412819
1728332721460280600,1.986280517578125,0.040475547313690186,-0.28272923827171326,0.963630199432373,0.03985392674803734,0.10275255143642426,-0.9939082264900208,0.05366714298725128,-0.002548031508922577,-0.05092209577560425,0.9937778243447176,-0.05314633739886327,0.014877822845548531,0.09674633830777439
1728332721470310700,1.996310546875,0.08348400145769119,-0.2640002965927124,0.9804291725158691,0.038201428949832916,0.10169712454080582,-0.9940816760063171,0.049979064613580704,0.007708445191383362,-0.04632359743118286,0.9933303915258289,-0.0526069570456221,0.013844766065502681,0.1016650084583415
1728332721480341800,2.006341796875,0.12963978946208954,-0.24031411111354828,1.0003684759140015,0.03673141449689865,0.10020272433757782,-0.9942888021469116,0.05051829293370247,0.009614840149879456,-0.03520643711090088,0.992858881840785,-0.0518504725853434,0.012927813568498555,0.10665695391718608
1728332721490372600,2.01637255859375,0.17375265061855316,-0.22204694151878357,1.0196999311447144,0.03548131883144379,0.09824063628911972,-0.9945299625396729,0.04902180656790733,0.003917008638381958,-0.02770209312438965,0.992360362296723,-0.050866526278594976,0.012149616613491343,0.11174070903379821
1728332721500403700,2.02640380859375,0.20316040515899658,-0.2043200433254242,1.0262349843978882,0.03441233932971954,0.09593377262353897,-0.9947926998138428,0.037349700927734375,-0.0014665648341178894,-0.021534204483032227,0.991833645684398,-0.04971578150343286,0.011488874449149554,0.11688676018639091
1728332721510433800,2.036433837890625,0.2408103048801422,-0.17795926332473755,1.0201365947723389,0.033546991646289825,0.09328593313694,-0.9950740337371826,0.020591147243976593,-0.001031242311000824,-0.03338360786437988,0.9912877847810114,-0.04840228981812813,0.01096361360564785,0.12200662313110801
1728332721520464600,2.046464599609375,0.28858187794685364,-0.15907421708106995,1.0239124298095703,0.03287464752793312,0.09023302793502808,-0.9953779578208923,0.006523497402667999,0.004005305469036102,-0.047056734561920166,0.9907240738648743,-0.04689560419294037,0.010574905642400486,0.12710168941502134
1728332721530495700,2.056495849609375,0.33667537569999695,-0.14972224831581116,1.0444475412368774,0.03231509029865265,0.08670832216739655,-0.9957094788551331,0.004504315555095673,0.012443333864212036,-0.06341826915740967,0.9901329715655768,-0.045160183401794805,0.010286383236260374,0.13225495306183757
1728332721540526600,2.066526611328125,0.3838883638381958,-0.1370338499546051,1.0653456449508667,0.03185351938009262,0.08269090950489044,-0.9960660338401794,0.008795849978923798,0.019375182688236237,-0.08007532358169556,0.9895077105307559,-0.043186595968304486,0.010094313786083994,0.13750467393334256
1728332721550558200,2.07655810546875,0.4176439344882965,-0.14449496567249298,1.0767126083374023,0.03139236941933632,0.078252412378788,-0.9964392185211182,0.019343063235282898,0.01948019117116928,-0.09021544456481934,0.9888477279847276,-0.04100471402861217,0.00995055303915764,0.14282754974464035
1728332721560589300,2.08658935546875,0.4347652196884155,-0.16960500180721283,1.0711671113967896,0.0307038351893425,0.07356579601764679,-0.9968175888061523,0.03185715526342392,0.01954338699579239,-0.08399289846420288,0.9881563102714667,-0.03868358363025353,0.00973524767193339,0.14817581227881182
1728332721570620400,2.096620361328125,0.44022336602211,-0.2022702693939209,1.0608705282211304,0.029647735878825188,0.0687691792845726,-0.9971919655799866,0.04444890096783638,0.019960738718509674,-0.07379192113876343,0.9874417059260931,-0.036278821295700425,0.00937364429393527,0.1534763427531783
1728332721580651300,2.1066513671875,0.44645559787750244,-0.2227005511522293,1.0365848541259766,0.02827291749417782,0.06394854187965393,-0.9975526332855225,0.04501500353217125,0.024338871240615845,-0.06732773780822754,0.9867098861126031,-0.03383393099927648,0.008885702929405798,0.15868236552750487
1728332721590682400,2.116682373046875,0.4610140323638916,-0.24368919432163239,1.0407702922821045,0.02661929279565811,0.05902553349733353,-0.9979014992713928,0.042121510952711105,0.03203897550702095,-0.06339305639266968,0.9859558991778057,-0.0313117204486727,0.008296204332213952,0.1638349792317242
1728332721600712200,2.126712158203125,0.4882833659648895,-0.26955652236938477,1.0389078855514526,0.024700215086340904,0.05390411242842674,-0.99824059009552,0.04233160242438316,0.039998531341552734,-0.05908668041229248,0.9851690453558538,-0.028664762777230974,0.007618642193487575,0.16900392126684155
1728332721610743300,2.136743408203125,0.5176425576210022,-0.28414371609687805,1.0364501476287842,0.022541381418704987,0.048516660928726196,-0.9985679984092712,0.04275093600153923,0.04820885881781578,-0.07554394006729126,0.984356277187377,-0.025860097687515047,0.006874818828437003,0.17414549414329267
1728332721620774100,2.146774169921875,0.5246365666389465,-0.3033207952976227,1.049851655960083,0.020160585641860962,0.04295619949698448,-0.9988735318183899,0.052455950528383255,0.052212923765182495,-0.07343786954879761,0.983506412777798,-0.02294426565200317,0.00606621415380678,0.17930983682640675
1728332721630805200,2.15680517578125,0.5078567862510681,-0.34843847155570984,1.0839436054229736,0.017409956082701683,0.03746454045176506,-0.9991462826728821,0.07554654777050018,0.046504631638526917,-0.05380171537399292,0.9826004350643968,-0.020021642784375942,0.005098097421505323,0.18457952270558586
1728332721640835300,2.16683544921875,0.4565558433532715,-0.40961721539497375,1.110069751739502,0.014066181145608425,0.032327331602573395,-0.9993783235549927,0.09588861465454102,0.025106806308031082,-0.03469449281692505,0.9816240187653801,-0.01720834190119775,0.0038337970057211175,0.19000920145921535
1728332721650866200,2.1768662109375,0.3732367157936096,-0.4628612697124481,1.120387077331543,0.010071489959955215,0.027908626943826675,-0.999559760093689,0.094557985663414,-0.0007021483033895493,-0.002256035804748535,0.9805850656232312,-0.014671270393001555,0.002209941561523332,0.19553242633479537
1728332721660897300,2.186897216796875,0.28795355558395386,-0.49160632491111755,1.1265088319778442,0.005620675627142191,0.024389037862420082,-0.9996867179870605,0.07171082496643066,-0.016957951709628105,0.014121592044830322,0.9794966405072779,-0.012511528331496807,0.0003007940087221929,0.20107145191328663
1728332721670928100,2.19692822265625,0.22661300003528595,-0.5195927023887634,1.1402555704116821,0.0008436308125965297,0.021672384813427925,-0.9997648000717163,0.04645857587456703,-0.0191088505089283,0.01905190944671631,0.9783513324118506,-0.010690034084354332,-0.0018270145574971184,0.20666702535365267
1728332721680958200,2.206958251953125,0.2233767807483673,-0.5222444534301758,1.1573717594146729,-0.004090667236596346,0.019347460940480232,-0.9998044371604919,0.025285087525844574,-0.007964346557855606,0.009371697902679443,0.9771466098124487,-0.009019233401901588,-0.00405307577662535,0.21233685683223094
1728332721690989300,2.2169892578125,0.259746253490448,-0.5140307545661926,1.1658861637115479,-0.009012645110487938,0.01691265031695366,-0.999816358089447,0.010843662545084953,0.014001715928316116,-0.008514940738677979,0.9758887728274621,-0.007270460459776399,-0.006242211973524018,0.21805798400591944
1728332721701020200,2.227020263671875,0.31114527583122253,-0.5016473531723022,1.1616567373275757,-0.013824384659528732,0.014089479111135006,-0.9998051524162292,0.005996589548885822,0.038721248507499695,-0.03484755754470825,0.9745923291068139,-0.0053195352540478386,-0.008313770912746543,0.223768637323193
1728332721711051300,2.23705126953125,0.35777029395103455,-0.5227084159851074,1.168333888053894,-0.018740588799118996,0.010824582539498806,-0.9997657537460327,0.01539887860417366,0.057504333555698395,-0.03850322961807251,0.9732515398487714,-0.0031175243658604856,-0.010362918126398488,0.22948709587570684
1728332721721082000,2.24708203125,0.3901054561138153,-0.5553746223449707,1.1869876384735107,-0.0239794310182333,0.007179782260209322,-0.9996866583824158,0.028038231655955315,0.05409957468509674,-0.02599388360977173,0.9718525962942277,-0.0006682844944415364,-0.012498740872743257,0.23525707299372714
1728332721731112200,2.2571123046875,0.37618696689605713,-0.5912678837776184,1.2032465934753418,-0.02961278334259987,0.0035401287022978067,-0.9995551705360413,0.025050371885299683,0.03179928660392761,-0.018190741539001465,0.970386811111366,0.0018525221645297942,-0.014797971757081918,0.24109570409724276
1728332721741143300,2.267143310546875,0.3416966497898102,-0.6242216229438782,1.2084662914276123,-0.035632938146591187,0.00021738094801548868,-0.9993649125099182,0.001682095229625702,0.004192469175904989,0.002553999423980713,0.9688579310708973,0.0042962856079806115,-0.017293962405427243,0.24697525996148428
1728332721751174100,2.277174072265625,0.29545459151268005,-0.6291276812553406,1.1954717636108398,-0.04189564660191536,-0.0026558188255876303,-0.999118447303772,-0.026082292199134827,-0.010924442671239376,0.002322852611541748,0.967282341348232,0.006583647743896235,-0.019935508532924088,0.252832116551702
1728332721761205200,2.287205322265625,0.2445683628320694,-0.618524432182312,1.1818664073944092,-0.0481298603117466,-0.004919101484119892,-0.9988289475440979,-0.05030461773276329,-0.0015505636110901833,-0.017055392265319824,0.9656859442243212,0.008602973309323556,-0.02261640862672988,0.2585830343877854
1728332721771235300,2.2972353515625,0.2656640410423279,-0.614647388458252,1.1693519353866577,-0.05432186275720596,-0.00693113449960947,-0.9984993934631348,-0.053618840873241425,0.02064884826540947,-0.02290862798690796,0.9640617266460193,0.01052653880141659,-0.025287966189202687,0.2642626871017304
1728332721781266200,2.30726611328125,0.33050471544265747,-0.6161004304885864,1.1631795167922974,-0.060510650277137756,-0.00933310016989708,-0.9981239438056946,-0.03954126685857773,0.04221585392951965,-0.05076521635055542,0.962401599023988,0.012668839290665134,-0.027884436947554745,0.2698982583101343
1728332721791297300,2.31729736328125,0.4109859764575958,-0.6233128309249878,1.160435676574707,-0.06681408733129501,-0.012405570596456528,-0.9976882934570312,-0.025577902793884277,0.0578615665435791,-0.052848756313323975,0.9606965181830438,0.015180552832753814,-0.030420254253250692,0.2755111404807008
1728332721801328000,2.327328125,0.47083166241645813,-0.6240265369415283,1.1500201225280762,-0.07316311448812485,-0.016168205067515373,-0.997188925743103,-0.01236242800951004,0.0618835985660553,-0.05331766605377197,0.9589470068527145,0.018060553168463604,-0.03285353648321468,0.2810963899633209
1728332721811358200,2.337358154296875,0.5111186504364014,-0.6645097732543945,1.1392619609832764,-0.07973767071962357,-0.020345406606793404,-0.9966082572937012,-0.005986236035823822,0.06273438036441803,-0.06398439407348633,0.9571633299776641,0.021199506858366867,-0.03530530530691675,0.2866052933651731
1728332721821389300,2.347389404296875,0.5220227837562561,-0.719444990158081,1.1257171630859375,-0.08686920255422592,-0.02470972202718258,-0.9959132075309753,0.00027554482221603394,0.0529995821416378,-0.06693768501281738,0.9553351113704982,0.024538125323062977,-0.03796396415883509,0.2920472597945742
1728332721831420200,2.357420166015625,0.49519890546798706,-0.7639724612236023,1.1128071546554565,-0.0945272371172905,-0.028907964006066322,-0.9951024651527405,-0.003693610429763794,0.047203317284584045,-0.07275331020355225,0.9534683838458217,0.027906157073949445,-0.04086575109159082,0.2974044463650973
1728332721841451300,2.367451171875,0.4602888226509094,-0.7934983968734741,1.0972306728363037,-0.10261522978544235,-0.03272870182991028,-0.9941825270652771,-0.010315090417861938,0.05152759701013565,-0.07924270629882812,0.9515685604491596,0.031191765495204707,-0.043997696970015626,0.3026693158792432
1728332721851482000,2.377482177734375,0.4354654848575592,-0.8243359327316284,1.0964913368225098,-0.11098556220531464,-0.036142755299806595,-0.993164598941803,-0.011008486151695251,0.06278465688228607,-0.09742683172225952,0.9496357225719632,0.03436236738111493,-0.0472962077876054,0.3078545868517408
1728332721861512200,2.38751220703125,0.43540388345718384,-0.8593553900718689,1.0963081121444702,-0.11973197758197784,-0.03933481127023697,-0.9920267462730408,0.0019188374280929565,0.07391129434108734,-0.10117393732070923,0.9476469736746465,0.037526333416133574,-0.05077805605877431,0.3130153544029346
1728332721871543300,2.397543212890625,0.4366166889667511,-0.8925988078117371,1.0932329893112183,-0.12885674834251404,-0.042490869760513306,-0.9907524585723877,0.02289968729019165,0.08057686686515808,-0.1013190746307373,0.9455984232911334,0.04077611972202658,-0.05441572492491359,0.31815066019742394
1728332721881574100,2.40757421875,0.4006686806678772,-0.9645320773124695,1.0879298448562622,-0.13848358392715454,-0.045354295521974564,-0.9893256425857544,0.03931669890880585,0.09441136568784714,-0.09278184175491333,0.943502614252074,0.04401057713220837,-0.05831152337464407,0.32321136971819175
1728332721891605200,2.417605224609375,0.37959855794906616,-1.0595203638076782,1.1301779747009277,-0.14897184073925018,-0.04776255041360855,-0.9876872897148132,0.055099740624427795,0.09175370633602142,-0.06060677766799927,0.9413031540988764,0.04722523971789354,-0.06265896380549733,0.32831681011421515
1728332721901635000,2.427635009765625,0.3379732072353363,-1.1238750219345093,1.1745107173919678,-0.1603124439716339,-0.049732755869627,-0.9858126640319824,0.05987906455993652,0.06137527525424957,-0.04232454299926758,0.9389461520227838,0.050445844133021764,-0.067445491114807,0.3335961140493762
1728332721911666200,2.437666259765625,0.23666521906852722,-1.139488697052002,1.1964900493621826,-0.17208534479141235,-0.05076431483030319,-0.9837731719017029,0.036419421434402466,0.026274025440216064,-0.01286989450454712,0.936471945039084,0.05336935637795526,-0.07256125679827317,0.3389790675506875
1728332721921697000,2.447697021484375,0.13535824418067932,-1.1200510263442993,1.1988147497177124,-0.18380549550056458,-0.0505819208920002,-0.9816603064537048,0.00039483606815338135,-0.006607953459024429,0.02456808090209961,0.9339469278979002,0.05577812205081793,-0.07783722859352789,0.3443448144775518
1728332721931728100,2.45772802734375,0.07419103384017944,-1.0906444787979126,1.1993370056152344,-0.1952318400144577,-0.04946029558777809,-0.979509174823761,-0.01854380965232849,-0.042733244597911835,0.043794453144073486,0.9313839033014455,0.057759723233491385,-0.0831217840952848,0.34968364393268286
1728332721941758200,2.46775830078125,0.030058126896619797,-1.0511419773101807,1.2003053426742554,-0.20629164576530457,-0.04771234840154648,-0.9773266315460205,-0.025458872318267822,-0.06498900055885315,0.04643368721008301,0.9287911299321305,0.05944595859205486,-0.0883338917341271,0.3549793259254546
1728332721951789000,2.4777890625,0.03737755864858627,-1.0094653367996216,1.212724208831787,-0.21691006422042847,-0.0455801822245121,-0.9751269221305847,-0.02459082007408142,-0.06396259367465973,0.05111569166183472,0.926156962192549,0.06093850784898662,-0.09339725483639866,0.36027324134501976
1728332721961820200,2.487820068359375,0.07281624525785446,-0.9578374624252319,1.238874077796936,-0.22702822089195251,-0.043539635837078094,-0.972914457321167,-0.014930427074432373,-0.05819064751267433,0.04580569267272949,0.9234379885335142,0.06245841941487134,-0.09819230653572218,0.3656769159179721
1728332721971851000,2.49785107421875,0.09155558049678802,-0.9278411865234375,1.268235445022583,-0.23671793937683105,-0.041616909205913544,-0.970686674118042,0.004112958908081055,-0.035867154598236084,0.03576546907424927,0.9206238486795691,0.06403098821369266,-0.10274574161139936,0.3712076009889844
1728332721981882000,2.507882080078125,0.08586493134498596,-0.9415944218635559,1.3016961812973022,-0.24627292156219482,-0.03948962688446045,-0.9683957099914551,0.023189395666122437,-0.0032196566462516785,0.05230379104614258,0.9177065777805888,0.06555934389059569,-0.1072572846882001,0.3768455200596092
1728332721991912200,2.517912109375,0.09701105952262878,-0.9585888981819153,1.3327316045761108,-0.2560035288333893,-0.0372505858540535,-0.9659578800201416,0.03307262063026428,0.011539589613676071,0.0687105655670166,0.914642313922406,0.06715631516664096,-0.1118530334155929,0.3826334761506335
1728332722001943000,2.527943115234375,0.043228521943092346,-0.97200608253479,1.3277649879455566,-0.26579636335372925,-0.03460780531167984,-0.9634078145027161,0.01536908745765686,0.03260897099971771,0.06455832719802856,0.9114928344980756,0.06865124688465062,-0.11654656904201158,0.3884388655071813
1728332722011974100,2.53797412109375,0.014056522399187088,-0.9693741202354431,1.2766594886779785,-0.27560827136039734,-0.03146231546998024,-0.9607549905776978,-0.02605801820755005,0.06884641945362091,0.06686466932296753,0.9083460669990728,0.06996563074525369,-0.1213560906156625,0.3940621987465576
1728332722022005000,2.5480048828125,0.03230230510234833,-0.9444724321365356,1.1780540943145752,-0.2851612865924835,-0.028276188299059868,-0.9580623507499695,-0.07041427493095398,0.11586170643568039,0.012307405471801758,0.9053097794520779,0.07122620778440682,-0.12607792877740112,0.39930611517285053
1728332722032035000,2.55803515625,0.1652936488389969,-0.9141017198562622,1.0869390964508057,-0.29434818029403687,-0.025991657748818398,-0.9553447365760803,-0.10549312829971313,0.18155507743358612,-0.026970267295837402,0.902406092375581,0.07283386372737607,-0.13047165384297715,0.40414827106640716
1728332722042066200,2.568066162109375,0.39777421951293945,-0.8831222057342529,1.017804503440857,-0.30321383476257324,-0.025621069595217705,-0.952578067779541,-0.11844757199287415,0.22986002266407013,-0.046002864837646484,0.8995685531940055,0.07527610208038636,-0.13432974903555236,0.40873655825009597
1728332722052097000,2.578096923828125,0.6480980515480042,-0.8397664427757263,0.9588197469711304,-0.311665415763855,-0.02771487459540367,-0.9497876167297363,-0.11518394947052002,0.24457284808158875,-0.0717272162437439,0.8967483631943824,0.07879532475400831,-0.1374680950625503,0.4132023605094367
1728332722062128400,2.58812841796875,0.8064635396003723,-0.8095932006835938,0.9036436080932617,-0.3197820782661438,-0.03188779205083847,-0.9469543695449829,-0.1015893816947937,0.21516117453575134,-0.057073891162872314,0.8939416969974526,0.08322221563673537,-0.1399888320701747,0.4175469670216536
1728332722072158200,2.598158203125,0.8095123171806335,-0.7936901450157166,0.8350480198860168,-0.32764631509780884,-0.03697885200381279,-0.9440765380859375,-0.08382222056388855,0.15242691338062286,-0.02655029296875,0.8911967867932266,0.08801837491952624,-0.14217772427685424,0.4216713070210782
1728332722082189000,2.60818896484375,0.6744930148124695,-0.8192236423492432,0.7540527582168579,-0.3355602025985718,-0.041507404297590256,-0.9411038756370544,-0.07400098443031311,0.08548330515623093,0.029070794582366943,0.8885970895053452,0.09253681840155778,-0.14451643330903033,0.4253789207151761
1728332722092220400,2.618220458984375,0.5124444365501404,-0.8331946134567261,0.6862230896949768,-0.34371519088745117,-0.044786278158426285,-0.9380053877830505,-0.06393864750862122,0.019288908690214157,0.05989259481430054,0.886176940392288,0.09649249093571087,-0.14726342083458996,0.428594426233239
1728332722102251300,2.628251220703125,0.36894962191581726,-0.7953869104385376,0.659676194190979,-0.35168227553367615,-0.04674091935157776,-0.9349517822265625,-0.06889575719833374,-0.04703953489661217,0.038421630859375,0.8839085913445444,0.09977574528524968,-0.1502294814921962,0.4314877317970591
1728332722112282400,2.638282470703125,0.19035592675209045,-0.7436427474021912,0.6144083142280579,-0.3591693341732025,-0.04720087721943855,-0.9320780634880066,-0.07237976789474487,-0.07699033617973328,0.023905456066131592,0.8818022152991858,0.10224532852696745,-0.15331951563108664,0.43412423720304516
1728332722122312200,2.648312255859375,0.1557185798883438,-0.7297528386116028,0.5809068083763123,-0.36632588505744934,-0.04663177952170372,-0.9293174147605896,-0.07794904708862305,-0.07473655790090561,0.0431479811668396,0.8798525006238277,0.10414277339474884,-0.15651065990630575,0.43648393805093116
1728332722132343300,2.65834326171875,0.2428646683692932,-0.6957736015319824,0.581290066242218,-0.37321794033050537,-0.04647722467780113,-0.9265787601470947,-0.06274095177650452,-0.0779581367969513,-0.022548377513885498,0.8779093274409301,0.10618769798603253,-0.15948285229186793,0.4388218336599502
1728332722142374400,2.66837451171875,0.2639957666397095,-0.6900565028190613,0.5510035157203674,-0.37988483905792236,-0.046855270862579346,-0.9238463640213013,-0.045850664377212524,-0.05513441190123558,-0.04209601879119873,0.875970495323689,0.1084409889177846,-0.1622262959449271,0.44113360521098643
1728332722152405200,2.6784052734375,0.345092236995697,-0.704429030418396,0.5592736601829529,-0.3865828812122345,-0.04756714031100273,-0.9210271835327148,-0.03878641128540039,-0.026270072907209396,-0.0018548965454101562,0.874019750754112,0.11087050360339058,-0.16490647232591463,0.44339945273432535
1728332722162435300,2.688435302734375,0.4627447724342346,-0.7227782607078552,0.5975507497787476,-0.39346978068351746,-0.04926089569926262,-0.9180168509483337,-0.02784067392349243,-0.03971303999423981,-0.02537304162979126,0.8718985235109741,0.11386106895774661,-0.16741338544646164,0.4458714539078469
1728332722172466200,2.698466064453125,0.44644010066986084,-0.6892514824867249,0.5906243920326233,-0.40027856826782227,-0.051175910979509354,-0.91496342420578,-0.04245522618293762,-0.030855271965265274,0.0026099681854248047,0.8697034760874269,0.1169779129317998,-0.1698070714599062,0.4484391655169835
1728332722182497300,2.708497314453125,0.7084709405899048,-0.6245076060295105,0.6106026768684387,-0.40657252073287964,-0.054013751447200775,-0.9120204448699951,-0.07385045289993286,-0.011949922889471054,0.05061608552932739,0.8674672656857338,0.12043221855070906,-0.17171444134340347,0.45112182641311566
1728332722192528100,2.718528076171875,1.0298595428466797,-0.5889056921005249,0.6901084184646606,-0.41251465678215027,-0.059483300894498825,-0.9090068340301514,-0.07326415181159973,-0.031153839081525803,0.009897947311401367,0.8649302012487895,0.1251222210416246,-0.17274553543819868,0.4543118134485537
1728332722202558200,2.72855810546875,1.226453185081482,-0.5067804455757141,0.7910574078559875,-0.4180096387863159,-0.06682141125202179,-0.905981719493866,-0.06052124500274658,-0.013577073812484741,0.08075588941574097,0.8620391439301603,0.13069577313657604,-0.1729964143829094,0.4581260556572041
1728332722212589300,2.73858935546875,1.5166054964065552,-0.42582088708877563,0.8617621660232544,-0.4227879047393799,-0.07581224292516708,-0.9030519723892212,-0.065386563539505,0.005377739667892456,0.1539064645767212,0.8588161009892221,0.13697637290216963,-0.17237018048754255,0.46255907872485397
1728332722222620200,2.7486201171875,1.9090923070907593,-0.3413153290748596,0.9199367761611938,-0.4270258843898773,-0.0876636803150177,-0.8999800086021423,-0.08186998963356018,-0.05993451923131943,0.14225906133651733,0.855192737943773,0.1445489323114657,-0.17063297935651253,0.4675846249117219
1728332722232651300,2.7586513671875,2.126148223876953,-0.23876045644283295,0.9325212836265564,-0.43056100606918335,-0.10209031403064728,-0.896769106388092,-0.10799798369407654,-0.14475107192993164,0.11245208978652954,0.8512380548123695,0.1531978689872945,-0.16776729838402682,0.4730522606994742
1728332722242682000,2.76868212890625,2.1094887256622314,-0.12807288765907288,0.9448978304862976,-0.43325796723365784,-0.11727175861597061,-0.8936077952384949,-0.15130624175071716,-0.19951589405536652,0.15843933820724487,0.8471640083196136,0.1619830783449675,-0.16418766530919854,0.4786617442456595
1728332722252712200,2.778712158203125,1.9450992345809937,0.035783953964710236,1.015539526939392,-0.4349740147590637,-0.13135899603366852,-0.890809953212738,-0.18259495496749878,-0.2661324143409729,0.24040406942367554,0.8430666278485182,0.17000435854553997,-0.16029200437328078,0.4844003289116967
1728332722262743300,2.788743408203125,1.596533179283142,0.3145950138568878,1.1349761486053467,-0.43499186635017395,-0.14271025359630585,-0.8890533447265625,-0.20165058970451355,-0.3470968008041382,0.327880859375,0.8390253800725122,0.1763258828421901,-0.156148996274639,0.49047233408007235
1728332722272774100,2.798774169921875,1.1205754280090332,0.6362084746360779,1.2529197931289673,-0.43253839015960693,-0.14977389574050903,-0.8890884518623352,-0.21826422214508057,-0.4123598337173462,0.3861282467842102,0.8352041077044092,0.18000745498064089,-0.15183241341886,0.4969690963713243
1728332722282805200,2.80880517578125,0.5644967555999756,0.9411112070083618,1.279018759727478,-0.42744991183280945,-0.15193670988082886,-0.8911799788475037,-0.23656678199768066,-0.43007922172546387,0.36562156677246094,0.8318393125996258,0.18065935133280553,-0.14755406125971912,0.5036201447811551
1728332722292835300,2.81883544921875,0.01598917879164219,1.2043876647949219,1.3021878004074097,-0.4197808504104614,-0.14908000826835632,-0.895298421382904,-0.23930728435516357,-0.383711040019989,0.34486812353134155,0.8291000404415135,0.178203621666522,-0.1435070354891763,0.5101396507861543
1728332722302866200,2.8288662109375,-0.2859094440937042,1.4603866338729858,1.336916446685791,-0.4097692370414734,-0.14240320026874542,-0.9010052680969238,-0.1949213147163391,-0.2895578145980835,0.25195741653442383,0.8267505987984805,0.1733096501637853,-0.13950314873763203,0.5167070001805879
1728332722312897300,2.838897216796875,-0.6349571943283081,1.6951813697814941,1.242695927619934,-0.3971763253211975,-0.13311809301376343,-0.9080366492271423,-0.1417946219444275,-0.1126246303319931,0.11416763067245483,0.8248697322157981,0.16643201847364722,-0.13521117518255418,0.5230757600939857
1728332722322928000,2.84892822265625,-0.7535537481307983,1.8425723314285278,1.2202649116516113,-0.38252824544906616,-0.12188597023487091,-0.9158689379692078,-0.09543806314468384,0.10835149884223938,0.13466471433639526,0.8234163644217853,0.15802171644890625,-0.13074652608349216,0.5290747102051033
1728332722332958200,2.858958251953125,-0.5789588093757629,1.9389793872833252,1.3782687187194824,-0.36659717559814453,-0.11091829836368561,-0.9237443804740906,0.0011949539184570312,0.23977884650230408,0.12532824277877808,0.8216946753676472,0.14941161036897946,-0.12571391870941265,0.5354345360205385
1728332722342989300,2.8689892578125,-0.4185986816883087,2.016096591949463,1.5657602548599243,-0.3498202860355377,-0.10110446810722351,-0.9313451051712036,0.07870212197303772,0.2707517445087433,0.11754810810089111,0.8192926420968513,0.1411721961736755,-0.11999110835148172,0.5426161131735165
1728332722353020200,2.879020263671875,-0.4791373908519745,2.0518412590026855,1.7251560688018799,-0.3323069214820862,-0.09149329364299774,-0.938723087310791,0.10261639952659607,0.2050034999847412,0.1976190209388733,0.8162555261362648,0.132885612927293,-0.11392918366195985,0.550534697247792
1728332722363051300,2.88905126953125,-0.7948747873306274,2.053746223449707,1.8101292848587036,-0.3144567608833313,-0.07991453260183334,-0.9459019899368286,0.08522400259971619,0.024662524461746216,0.3282567858695984,0.8128629263141669,0.12367694186738334,-0.1084113155596581,0.558752876111881
1728332722373082000,2.89908203125,-1.33987295627594,2.075375556945801,1.7534515857696533,-0.29617753624916077,-0.06447917968034744,-0.9529539942741394,0.06555619835853577,-0.20538769662380219,0.3990752100944519,0.8095182161277228,0.11267191772591767,-0.10405787449035048,0.5667075104314914
1728332722383112200,2.9091123046875,-1.8681602478027344,2.133774995803833,1.4731664657592773,-0.2769693434238434,-0.044340550899505615,-0.9598551392555237,0.08072605729103088,-0.3483138084411621,0.4157114624977112,0.8067941221032029,0.09931440103595561,-0.10103997770489608,0.5735947375286851
1728332722393143300,2.919143310546875,-2.3769309520721436,2.2020773887634277,0.9781239628791809,-0.2563660442829132,-0.020607929676771164,-0.9663600325584412,0.1315949559211731,-0.25392812490463257,0.30708885192871094,0.805321668184769,0.08385960854968945,-0.09893198957641998,0.5784781601067933
1728332722403174100,2.929174072265625,-2.4580624103546143,2.0078465938568115,0.8078494071960449,-0.23577992618083954,0.0054417559877038,-0.9717912673950195,0.22789114713668823,0.14296528697013855,0.21497058868408203,0.8047955068527598,0.06731859047893361,-0.09783959368776242,0.5815496057384786
1728332722413205200,2.939205322265625,-1.9487979412078857,1.594122290611267,0.9087768197059631,-0.2180447280406952,0.029039693996310234,-0.9755066633224487,0.4261746108531952,0.5649240016937256,0.04688727855682373,0.8038577006794948,0.05269004957645555,-0.09731619150438851,0.5844366531659224
1728332722423235000,2.949235107421875,-1.3123887777328491,1.2633452415466309,1.091322898864746,-0.20380041003227234,0.04704458266496658,-0.9778814911842346,0.5091135501861572,0.8397352695465088,-0.12841123342514038,0.8020186361044623,0.04150783658705286,-0.09662482432970633,0.5879684593533286
1728332722433266200,2.95926611328125,-0.788837194442749,1.0687874555587769,1.3286023139953613,-0.191737562417984,0.05955446884036064,-0.9796376824378967,0.4682268500328064,0.8613898158073425,-0.18172401189804077,0.7991807453331128,0.03335029065010319,-0.0952308862569118,0.5925613660129222
1728332722443297000,2.969297119140625,-0.6246642470359802,0.9380456805229187,1.3914068937301636,-0.181056946516037,0.06878691911697388,-0.9810640811920166,0.3741874396800995,0.5942380428314209,-0.1559293270111084,0.7956567360379221,0.02701569863005489,-0.09347785867226263,0.5978815103930573
1728332722453328100,2.979328125,-0.8105827569961548,0.9201961159706116,1.3418699502944946,-0.17100419104099274,0.07801377028226852,-0.9821768999099731,0.22721758484840393,0.21466512978076935,-0.06932151317596436,0.7920559987848245,0.020856989297679797,-0.09206816044898089,0.6031052423046295
1728332722463358200,2.989358154296875,-1.2900383472442627,0.9500418901443481,1.2861851453781128,-0.16068513691425323,0.09038019925355911,-0.9828589558601379,0.14499911665916443,-0.08754199743270874,-0.03372734785079956,0.7885899821215588,0.013318797997324688,-0.09161406048846876,0.6079107328952255
1728332722473389000,2.99938916015625,-1.735365867614746,0.9248084425926208,1.2123939990997314,-0.15020127594470978,0.10731252282857895,-0.9828141331672668,0.13411854207515717,-0.23733258247375488,-0.0030562281608581543,0.7852605921283567,0.0038747901730436375,-0.09261708117525205,0.6121870882379179
1728332722483420200,3.009420166015625,-2.0166616439819336,0.8555281758308411,1.0884366035461426,-0.140067920088768,0.12754739820957184,-0.9818924069404602,0.1659468412399292,-0.21160800755023956,-0.012797534465789795,0.782122103093213,-0.0068123586383582605,-0.09490733857026339,0.615817554935453
1728332722493451000,3.019450927734375,-2.0275278091430664,0.7006344795227051,1.0545796155929565,-0.13085176050662994,0.14906369149684906,-0.9801315665245056,0.20816807448863983,-0.01153615117073059,-0.010118067264556885,0.7790935909074331,-0.017749320709566543,-0.09807748110973018,0.6189337279949128
1728332722503482000,3.029482177734375,-1.703590750694275,0.45386743545532227,1.1361626386642456,-0.12348684668540955,0.16888710856437683,-0.9778692126274109,0.24430595338344574,0.21891508996486664,0.008661448955535889,0.7757716048233282,-0.027396287080014164,-0.10156205290877329,0.6221840745498181
1728332722513512200,3.03951220703125,-1.233361005783081,0.32542288303375244,1.1546369791030884,-0.11773143708705902,0.18465791642665863,-0.9757257699966431,0.21357190608978271,0.35387060046195984,-0.0022710561752319336,0.772117962675613,-0.034870562360291596,-0.10450436608512413,0.6258568512215981
1728332722523543000,3.04954296875,-0.7716916799545288,0.5914120078086853,1.0117884874343872,-0.11130178719758987,0.195719376206398,-0.9743232727050781,0.10243645310401917,0.37871307134628296,0.025226593017578125,0.7687299612955779,-0.04072062446152048,-0.10573644062332768,0.6294568508768431
1728332722533574100,3.05957421875,-0.3267704248428345,0.20429036021232605,0.7915764451026917,-0.105354443192482,0.2019532024860382,-0.973712146282196,0.02179732918739319,0.27103883028030396,0.25953978300094604,0.7659870036444257,-0.044612143873581284,-0.10561099655264261,0.6325504351762983
1728332722543605000,3.06960498046875,-0.24403667449951172,0.06543910503387451,0.6281819343566895,-0.10274564474821091,0.20519831776618958,-0.9733123779296875,-0.023139335215091705,0.1893787682056427,0.4665833115577698,0.7638138892456102,-0.04636278385721224,-0.10580313709826197,0.6350153990108228
1728332722553634800,3.079634765625,-0.27287739515304565,-0.250395804643631,0.8218182325363159,-0.1022765040397644,0.20820623636245728,-0.9727228283882141,-0.07370308041572571,0.2476196438074112,0.4978540539741516,0.7614344900024685,-0.04730530532508851,-0.10677451327584186,0.6376355377011729
1728332722563666000,3.089666015625,-0.36961257457733154,0.014541195705533028,1.0115737915039062,-0.10179456323385239,0.21233566105365753,-0.9718803763389587,-0.15432417392730713,0.15936850011348724,0.47793811559677124,0.7583091228117859,-0.04856462568046394,-0.10817252745225335,0.6410207136022945
1728332722573696800,3.09969677734375,-0.6868025660514832,0.5707253217697144,0.8940804600715637,-0.09682536870241165,0.21840311586856842,-0.9710432291030884,-0.33936235308647156,0.04796963930130005,0.4197736978530884,0.7552405337745803,-0.05203409912872078,-0.10849351198345605,0.6443085152445958
1728332722583727900,3.109727783203125,-1.0411438941955566,1.0074326992034912,0.5725144147872925,-0.0872642919421196,0.22782400250434875,-0.9697840809822083,-0.4656531810760498,0.006261155009269714,0.45367079973220825,0.7530623176414306,-0.058463749244515056,-0.10812005825416438,0.646366247972598
1728332722593758000,3.119758056640625,-0.8842459917068481,1.1030044555664062,0.40211039781570435,-0.07576017081737518,0.2377602458000183,-0.9683648347854614,-0.4711300730705261,-0.026563286781311035,0.4799157977104187,0.7517834057744843,-0.06589441552398781,-0.1071237920838724,0.6473052891887056
1728332722603788800,3.129788818359375,-0.597026526927948,1.0547691583633423,0.4572402238845825,-0.06425381451845169,0.24522282183170319,-0.9673351049423218,-0.39479154348373413,-0.01554746925830841,0.46307796239852905,0.7507607788770031,-0.0724132759019877,-0.10530320138659188,0.6480939429289783
1728332722613820000,3.13981982421875,-0.3903031349182129,0.9966382384300232,0.6601859331130981,-0.052949998527765274,0.2502291202545166,-0.9667376279830933,-0.30784404277801514,0.02587875723838806,0.46101564168930054,0.7493046005939217,-0.07784682804392497,-0.10281558300272768,0.6495472020304057
1728332722623850800,3.149850830078125,-0.22045744955539703,1.0399572849273682,0.8584598898887634,-0.041245561093091965,0.2535480260848999,-0.9664430618286133,-0.26615798473358154,0.038337379693984985,0.42243677377700806,0.7472006228311991,-0.08266964927899796,-0.09972057378470271,0.6518534342363913
1728332722633881900,3.1598818359375,-0.09658236801624298,1.1618850231170654,0.9199341535568237,-0.028340205550193787,0.25533175468444824,-0.9664380550384521,-0.27125084400177,-0.017615020275115967,0.3609998822212219,0.7447183534908963,-0.08726248904125732,-0.09574039644428275,0.654685975457457
1728332722643912000,3.169911865234375,-0.026996171101927757,1.2869199514389038,0.7800025939941406,-0.014219480566680431,0.25607672333717346,-0.9665518999099731,-0.2952592372894287,-0.09440979361534119,0.29765236377716064,0.742428124546299,-0.09192318472448648,-0.09096258036632612,0.6573253269089282
1728332722653942800,3.17994287109375,-0.09939420223236084,1.296488642692566,0.45648735761642456,-0.00001548921318317298,0.25646069645881653,-0.9665546417236328,-0.323653906583786,-0.11490485072135925,0.3080006241798401,0.7409261655667162,-0.0966198450196167,-0.08594925318331627,0.6590189207544775
1728332722663974000,3.189973876953125,-0.6598851680755615,1.1634154319763184,0.1999565213918686,0.012799443677067757,0.25996968150138855,-0.9655319452285767,-0.3279239237308502,-0.0006770193576812744,0.36184853315353394,0.7402310085538931,-0.102200175872681,-0.08239629624339274,0.6594119330758466
1728332722674004700,3.200004638671875,-1.0283633470535278,0.9605754613876343,0.30430901050567627,0.02373361773788929,0.2684215307235718,-0.9630091190338135,-0.23483893275260925,0.184520423412323,0.29909926652908325,0.739443074896366,-0.1090830086025326,-0.0812177779741729,0.6593394675855956
1728332722684034800,3.210034912109375,-0.9857665300369263,0.5725434422492981,0.3642676770687103,0.032093457877635956,0.2781379818916321,-0.9600048065185547,-0.08746757358312607,0.2704308032989502,0.04714781045913696,0.7380020215802584,-0.11553142274165286,-0.08154800934789441,0.6598146492864928
1728332722694066000,3.22006591796875,-0.8570860624313354,0.3239104449748993,0.0975198894739151,0.03701908141374588,0.2869686186313629,-0.957224428653717,-0.09620789438486099,0.33066144585609436,-0.13882958889007568,0.7368401498409354,-0.12052004860048907,-0.08284142973801333,0.6600597395351975
1728332722704096800,3.2300966796875,-0.47552183270454407,0.002352173440158367,0.008349534124135971,0.0386979840695858,0.2935728132724762,-0.9551531076431274,-0.1494767665863037,0.4626222848892212,-0.3648541569709778,0.7363996757062201,-0.12363152819901795,-0.08449076721557262,0.6597667027765369
1728332722714128000,3.2401279296875,0.4422764480113983,-0.343607097864151,0.09434167295694351,0.0369473434984684,0.29382410645484924,-0.9551451802253723,-0.03769499436020851,0.5502158403396606,-0.7631775736808777,0.7361472422229053,-0.1231032469667249,-0.08528192410146217,0.6600453408874662
1728332722724157700,3.25015771484375,1.2091617584228516,-0.31197047233581543,0.15105262398719788,0.033974770456552505,0.2856822609901428,-0.9577219486236572,0.010168936103582382,0.542168140411377,-0.996410071849823,0.7360825899665725,-0.11888624426736798,-0.08369634921469492,0.661092546610201
1728332722734188800,3.260188720703125,1.8990144729614258,-0.1347583830356598,0.12896223366260529,0.03222840651869774,0.27054622769355774,-0.9621673822402954,-0.01776304468512535,0.46608710289001465,-0.8953612446784973,0.736420784580495,-0.112418462672538,-0.07923636366995922,0.6623957184773716
1728332722744220000,3.270219970703125,2.2066431045532227,-0.14334654808044434,0.15642476081848145,0.031376395374536514,0.2503299415111542,-0.9676520228385925,0.015223976224660873,0.3250180184841156,-0.75666743516922,0.7370518629744375,-0.10435414035487846,-0.0726925207874357,0.6637624103645888
1728332722754250800,3.280250732421875,2.0688462257385254,-0.27131596207618713,0.27641239762306213,0.029881970956921577,0.22927668690681458,-0.9729024767875671,0.11318446695804596,0.1530476063489914,-0.4031808376312256,0.7373512802195078,-0.09576807851186042,-0.06616061044329745,0.6654053986949053
1728332722764281900,3.29028173828125,1.7093464136123657,-0.5166491866111755,0.2749202251434326,0.02671327069401741,0.21050097048282623,-0.977228581905365,0.20834840834140778,-0.0046751052141189575,-0.11467504501342773,0.737132740742587,-0.08749221492318883,-0.0610803547584228,0.6672703968405528
1728332722774311700,3.300311767578125,1.1173382997512817,-0.6049811840057373,0.14062315225601196,0.021472159773111343,0.19650113582611084,-0.9802684783935547,0.21409305930137634,-0.10479573905467987,0.1305065155029297,0.7368773827695414,-0.08037064186007564,-0.05836377550536506,0.6686897712965638
1728332722784342800,3.3103427734375,0.558571994304657,-0.7184884548187256,0.11847790330648422,0.015187560580670834,0.18826773762702942,-0.9820002913475037,0.19634506106376648,-0.11899276077747345,0.21774858236312866,0.7366047352079645,-0.07510042295284174,-0.05796356194993782,0.6696369014630781
1728332722794373600,3.32037353515625,0.13271179795265198,-0.8269584774971008,0.09949834644794464,0.00772550655528903,0.18504935503005981,-0.9826988577842712,0.18566441535949707,-0.14205002784729004,0.20219653844833374,0.7361032854227257,-0.07131440870778592,-0.0597061532487154,0.6704486478970483
1728332722804404700,3.33040478515625,0.03470540791749954,-0.8332838416099548,-0.013292111456394196,-0.0004636407538782805,0.18429332971572876,-0.9828711748123169,0.12543316185474396,-0.12052679061889648,0.07173842191696167,0.7357330579503287,-0.06822411377838034,-0.06252904019714185,0.6709191081544974
1728332722814434800,3.340434814453125,-0.002263261703774333,-0.8709649443626404,-0.09602081775665283,-0.008988788351416588,0.18414553999900818,-0.982857882976532,0.029862843453884125,-0.0512109100818634,-0.15334200859069824,0.7356568396093863,-0.06527773110030514,-0.06564963767669635,0.670997753284587
1728332722824465700,3.350465576171875,0.004966221749782562,-0.8308457732200623,-0.1417645961046219,-0.017693374305963516,0.1841260939836502,-0.9827433824539185,-0.0410529300570488,0.05139338970184326,-0.25846755504608154,0.7357872364245012,-0.06234226033175976,-0.06886043003071855,0.6708120337056666
1728332722834496800,3.360496826171875,0.1365990787744522,-0.832954466342926,-0.07532672584056854,-0.026062272489070892,0.1835314780473709,-0.9826682806015015,-0.09063690900802612,0.15411508083343506,-0.30705034732818604,0.7359051989203067,-0.05930542586921741,-0.07175461689417886,0.6706546484970193
1728332722844527600,3.370527587890625,0.42185837030410767,-0.8661787509918213,0.033173393458127975,-0.034515801817178726,0.18078747391700745,-0.9829163551330566,-0.07859756052494049,0.16825738549232483,-0.2538999915122986,0.7357360867167907,-0.05540026572740107,-0.07397726708461663,0.6709325983630379
1728332722854557700,3.3805576171875,0.6657344698905945,-0.8784857988357544,0.020931106060743332,-0.04313128441572189,0.17536945641040802,-0.9835574626922607,-0.06505350023508072,0.12763965129852295,-0.16892361640930176,0.7354322715293011,-0.05041926410083465,-0.075360301945586,0.6715043790089982
1728332722864588800,3.3905888671875,0.7721549272537231,-0.8368507623672485,-0.02125576324760914,-0.051641810685396194,0.16807475686073303,-0.984420657157898,-0.08199463784694672,0.06645290553569794,-0.09684765338897705,0.7352992301846747,-0.04479061051131934,-0.07604919118532369,0.6719713273024305
1728332722874619600,3.40061962890625,0.6650945544242859,-0.8941798210144043,-0.014299053698778152,-0.060201119631528854,0.16087816655635834,-0.9851365685462952,-0.06432582437992096,0.006999105215072632,-0.016206204891204834,0.7351849059615045,-0.039190356857397794,-0.07678434345665261,0.672362609899793
1728332722884650800,3.410650634765625,0.5040590763092041,-0.9605216383934021,-0.05923030897974968,-0.0695081576704979,0.1549985408782959,-0.9854664206504822,-0.021891959011554718,-0.05126923322677612,0.09377330541610718,0.7350322262348248,-0.03383291309921496,-0.07824399584323503,0.6726521231046927
1728332722894681900,3.420681884765625,0.17478960752487183,-0.9664165377616882,-0.1098460853099823,-0.07921094447374344,0.15147554874420166,-0.9852820634841919,-0.0036900192499160767,-0.08166652917861938,0.10048598051071167,0.7350035521714483,-0.029243497880579512,-0.08064598601469246,0.672614968556966
1728332722904711700,3.430711669921875,-0.07417520135641098,-1.0273534059524536,-0.09874390065670013,-0.08921325206756592,0.15100528299808502,-0.9844990372657776,0.03940858691930771,-0.09068723022937775,0.13264667987823486,0.7349633340601477,-0.02569878147736031,-0.08420238199962278,0.6723679212123967
1728332722914742800,3.44074267578125,-0.17649038136005402,-1.1380314826965332,-0.1534777134656906,-0.10013025999069214,0.15209735929965973,-0.9832804203033447,0.07518216222524643,-0.11034923791885376,0.16005349159240723,0.7348796670461706,-0.022430059280650543,-0.08863800286335977,0.6720061497135494
1728332722924774000,3.45077392578125,-0.35908058285713196,-1.1967167854309082,-0.23222844302654266,-0.11197960376739502,0.15448062121868134,-0.9816294312477112,0.04798426479101181,-0.08860835433006287,0.12379556894302368,0.7349833913664738,-0.019363482806729317,-0.09386345697082639,0.6712779829335959
1728332722934805000,3.460804931640625,-0.41220319271087646,-1.2749351263046265,-0.2313288301229477,-0.12452530860900879,0.15808528661727905,-0.9795419573783875,0.02244403213262558,-0.040211066603660583,0.09672951698303223,0.735133205871339,-0.01653914928260598,-0.09977707741888633,0.6703359829490425
1728332722944834800,3.470834716796875,-0.42910173535346985,-1.2603667974472046,-0.26858434081077576,-0.13751670718193054,0.1617880016565323,-0.9771969318389893,0.006504759192466736,-0.009825646877288818,0.03292202949523926,0.7352761007904525,-0.013614419149379511,-0.10590652087942415,0.6693038314799385
1728332722954866000,3.480865966796875,-0.5442549586296082,-1.1703232526779175,-0.24617169797420502,-0.14987073838710785,0.16613779962062836,-0.9746471047401428,-0.03520308434963226,0.04298397898674011,0.00040394067764282227,0.7354788988206239,-0.01117063332167607,-0.11203418767620782,0.6681275835236014
1728332722964897000,3.49089697265625,-0.48979270458221436,-1.1778539419174194,-0.13863244652748108,-0.1616259217262268,0.17103180289268494,-0.9719182848930359,-0.013056665658950806,0.04941199719905853,0.026422739028930664,0.7354249633967654,-0.009102736986667413,-0.11814392514779182,0.6671652425088582
1728332722974928000,3.500927978515625,-0.40805843472480774,-1.2430795431137085,-0.1492515355348587,-0.1736525446176529,0.1750410497188568,-0.9691261053085327,0.01964561641216278,-0.016029149293899536,0.00933307409286499,0.7351207463556275,-0.006573945325132064,-0.1240714530314806,0.66645369311964
1728332722984958000,3.5109580078125,-0.5828087329864502,-1.2231886386871338,-0.2507017254829407,-0.1860770285129547,0.17931988835334778,-0.9660329818725586,-0.0045052170753479,-0.02926488220691681,0.025496482849121094,0.7349961597413079,-0.004057998699954107,-0.13025759542098392,0.6654301275004534
1728332722994988800,3.52098876953125,-0.7714828252792358,-1.2295091152191162,-0.22518278658390045,-0.19835428893566132,0.18549832701683044,-0.9624167084693909,-0.00925678014755249,0.005267113447189331,0.07966530323028564,0.7349853225529648,-0.002351695460940249,-0.13706241093738336,0.6640821821052882
1728332723005020000,3.53102001953125,-0.7742812633514404,-1.2872624397277832,-0.21536850929260254,-0.21096861362457275,0.1926003247499466,-0.958330512046814,0.027268067002296448,-0.002918243408203125,0.08709943294525146,0.7347943739372638,-0.0008688019377117854,-0.14433984779108067,0.6627537024145567
1728332723015051000,3.541051025390625,-0.6379880905151367,-1.2369451522827148,-0.30635249614715576,-0.22365303337574005,0.19876232743263245,-0.9541870355606079,0.004918321967124939,0.004866287112236023,-0.00218808650970459,0.7347201776834696,0.0009521240232053617,-0.15134592148902717,0.6612712664707691
1728332723025081900,3.551081787109375,-0.46538856625556946,-1.1990946531295776,-0.3374060094356537,-0.23598559200763702,0.20333118736743927,-0.9502458572387695,-0.04396738111972809,0.052955493330955505,-0.009486138820648193,0.7348688846251973,0.003198388937513912,-0.1576922030820569,0.6596140435522027
1728332723035112000,3.56111181640625,-0.2218398153781891,-1.1172362565994263,-0.2960175573825836,-0.24771404266357422,0.2057637870311737,-0.9467306733131409,-0.04789446294307709,0.07071028649806976,0.0055991411209106445,0.7350033728618289,0.006056833459035236,-0.16308882538532748,0.6581302499514146
1728332723045142800,3.571142822265625,-0.1827850341796875,-1.0318349599838257,-0.20964856445789337,-0.2584441602230072,0.20683597028255463,-0.9436236023902893,-0.0370422899723053,0.05843815207481384,-0.008387506008148193,0.7349562312311263,0.009149326926272638,-0.16764393672730157,0.6570016431708539
1728332723055174000,3.581173828125,-0.3101741671562195,-0.9643933176994324,-0.19326001405715942,-0.2682768404483795,0.20862722396850586,-0.9404798150062561,-0.014910995960235596,0.02210099995136261,0.040119707584381104,0.7347636289864071,0.01169985279343661,-0.17211396663254228,0.6560201842031764
1728332723065204700,3.591204833984375,-0.4200420677661896,-0.9525774717330933,-0.2751639485359192,-0.2777949869632721,0.2113388031721115,-0.9371050596237183,-0.0021579861640930176,-0.029164046049118042,0.05192744731903076,0.7347150403211851,0.01374361896815911,-0.17680098878722872,0.6547873238481318
1728332723075234800,3.60123486328125,-0.62485271692276,-0.9890052080154419,-0.3424479067325592,-0.2875777781009674,0.21538659930229187,-0.9332243204116821,0.009394824504852295,-0.054268985986709595,0.055187880992889404,0.7348997204018523,0.01527417596691398,-0.18208386727051393,0.6530962232513479
1728332723085266000,3.611265869140625,-0.6157421469688416,-0.984980046749115,-0.3966171443462372,-0.2976820766925812,0.2201826423406601,-0.9289268255233765,0.027723610401153564,-0.036741405725479126,0.033525824546813965,0.7352433616526995,0.01654878673719874,-0.1877837554546146,0.651061144091761
1728332723095296800,3.621296875,-0.5567936301231384,-0.9340431094169617,-0.42306578159332275,-0.30758917331695557,0.22435517609119415,-0.9246911406517029,0.012041717767715454,0.033945679664611816,0.01158994436264038,0.735726198216092,0.017938571826062004,-0.19321659220922752,0.6488856201649602
1728332723105327900,3.631327880859375,-0.4197838604450226,-0.7900484204292297,-0.36695536971092224,-0.31656840443611145,0.22766676545143127,-0.920843243598938,-0.01260945200920105,0.1298619955778122,0.02936375141143799,0.7362265676593261,0.019341700241538053,-0.19800067971117524,0.6468323966309796
1728332723115358000,3.64135791015625,-0.20258204638957977,-0.6322153806686401,-0.2632367014884949,-0.32381755113601685,0.2295074611902237,-0.9178608655929565,-0.011768966913223267,0.17362982034683228,-0.007050633430480957,0.7365730352859587,0.020807091838357442,-0.20158530996330068,0.6452834840066679
1728332723125388800,3.651388916015625,-0.09979447722434998,-0.5236502289772034,-0.1863030344247818,-0.32967233657836914,0.2299983948469162,-0.9156510829925537,-0.0029539763927459717,0.14010360836982727,0.006440877914428711,0.7367216352425534,0.022419981361520593,-0.20413672870457789,0.6442568238183632
1728332723135420000,3.661419921875,-0.12504151463508606,-0.47804731130599976,-0.14679211378097534,-0.33462032675743103,0.2304251492023468,-0.9137469530105591,0.013941645622253418,0.08273103833198547,0.013951420783996582,0.7367498914168438,0.023805406700718644,-0.20630032395295764,0.6434852105956116
1728332723145450800,3.67145068359375,-0.22261594235897064,-0.5073325634002686,-0.17554733157157898,-0.3394804894924164,0.23147429525852203,-0.9116867184638977,0.03276357054710388,0.015153586864471436,-0.003337085247039795,0.7367678181810028,0.0249146301910166,-0.20865259081472173,0.6426636933411374
1728332723155481900,3.68148193359375,-0.3559800982475281,-0.5336406230926514,-0.2740025520324707,-0.34482184052467346,0.23329859972000122,-0.9092137813568115,0.01848214864730835,-0.04741595685482025,-0.026394128799438477,0.7369779986656814,0.02579770386777626,-0.21148900218131336,0.6414595575831795
1728332723165512000,3.691511962890625,-0.44104108214378357,-0.4993446171283722,-0.32069626450538635,-0.35029634833335876,0.23594185709953308,-0.9064347147941589,-0.027083992958068848,-0.06041993200778961,-0.034040749073028564,0.7374426417176133,0.026300483127117316,-0.21468797407165532,0.6398403500285968
1728332723175542800,3.701542724609375,-0.45023271441459656,-0.3525410592556,-0.2784244418144226,-0.3549426794052124,0.2388882339000702,-0.9038518071174622,-0.06983146071434021,-0.02595175802707672,-0.05093640089035034,0.7380213860802685,0.026370860251921875,-0.21766641720041144,0.6381617092234837
1728332723185574000,3.711573974609375,-0.4025539457798004,-0.1597607284784317,-0.1899760663509369,-0.3578876554965973,0.24195897579193115,-0.9018715620040894,-0.09801444411277771,0.04357881844043732,-0.047133564949035645,0.7385396915733176,0.02586985510073098,-0.21998858111959219,0.6367848709644968
1728332723195604700,3.721604736328125,-0.28749606013298035,0.009396607056260109,-0.10624708980321884,-0.35891270637512207,0.24449405074119568,-0.9007798433303833,-0.09692832827568054,0.0965246856212616,-0.0225294828414917,0.7389807166607069,0.025008725450906478,-0.22132473569573166,0.6358439527427575
1728332723205634800,3.731634765625,-0.20475856959819794,0.07115510106086731,-0.04117007926106453,-0.35869088768959045,0.24641110002994537,-0.9003457427024841,-0.06258901953697205,0.1008484810590744,-0.01602083444595337,0.7392857330614617,0.024056017839415075,-0.22191989134959894,0.6353185507215209
1728332723215666000,3.741666015625,-0.24758566915988922,0.009721831418573856,-0.04918752610683441,-0.3583815097808838,0.2481725513935089,-0.8999850749969482,-0.002626180648803711,0.06765393912792206,-0.017495393753051758,0.7395001912773551,0.02316985901104908,-0.22241993476064592,0.6349268627328647
1728332723225696800,3.75169677734375,-0.36286690831184387,-0.15231052041053772,-0.11338755488395691,-0.35922256112098694,0.25071078538894653,-0.8989456295967102,0.048065364360809326,0.013907194137573242,0.024235546588897705,0.739695247664693,0.022329069871181,-0.2236707338352491,0.6342899695881737
1728332723235728000,3.761727783203125,-0.4322742223739624,-0.2212512493133545,-0.17592549324035645,-0.36133232712745667,0.25369033217430115,-0.8972625732421875,0.05426448583602905,-0.03454357385635376,0.019302427768707275,0.7399948861408202,0.021659427281062644,-0.2256093384753013,0.6332762588348001
1728332723245757700,3.7717578125,-0.4967179298400879,-0.1788851022720337,-0.21122249960899353,-0.36377623677253723,0.25718167424201965,-0.8952789902687073,0.01988890767097473,-0.04580160975456238,-0.016738831996917725,0.7404257657308447,0.02082984077947881,-0.22787415908452757,0.6319882688999829
1728332723255788800,3.781788818359375,-0.4498359262943268,-0.043862566351890564,-0.22192654013633728,-0.3654050827026367,0.2606391906738281,-0.8936142325401306,-0.03774738311767578,-0.01251596212387085,-0.018754541873931885,0.7410421659169629,0.019688242012681892,-0.2297939636804033,0.6306058488108008
1728332723265820000,3.79181982421875,-0.29219162464141846,0.10827871412038803,-0.17745840549468994,-0.36566805839538574,0.26330602169036865,-0.8927243947982788,-0.08551904559135437,0.04685947299003601,-0.005560517311096191,0.7417480147778536,0.01841412378358117,-0.23086516255851713,0.6294221471665602
1728332723275850800,3.801850830078125,-0.07227310538291931,0.230866938829422,-0.08808619529008865,-0.3644976019859314,0.2643698453903198,-0.892888605594635,-0.08585023880004883,0.10445037484169006,-0.012018561363220215,0.7423955935374875,0.01738144187140812,-0.23076738445435682,0.6287233086728821
1728332723285880800,3.811880859375,0.059043239802122116,0.2900775372982025,-0.005326330661773682,-0.3622762858867645,0.26423323154449463,-0.8938325643539429,-0.042981863021850586,0.11952540278434753,-0.008785784244537354,0.7428360518275103,0.01659973896320199,-0.22980024391843124,0.6285785098819863
1728332723295911700,3.82191162109375,0.15529760718345642,0.2602858245372772,-0.014740604907274246,-0.35978764295578003,0.2631263732910156,-0.8951632976531982,0.00885075330734253,0.07011038064956665,-0.0017330050468444824,0.7431861770091991,0.016169803366085894,-0.22837880089193205,0.6286939281338588
1728332723305942800,3.83194287109375,-0.028234075754880905,0.15555940568447113,-0.05394979193806648,-0.3580239713191986,0.2623825967311859,-0.8960883021354675,0.04198393225669861,-0.00728607177734375,0.01239079236984253,0.7434989162109066,0.0158250048130851,-0.22738827654521254,0.6286919054319337
1728332723315973600,3.8419736328125,-0.26010724902153015,0.023742523044347763,-0.17958946526050568,-0.35755497217178345,0.26320570707321167,-0.8960341811180115,0.058253854513168335,-0.05708989500999451,0.0016860365867614746,0.7439855546394387,0.015166946107763599,-0.22749260057077736,0.6280944328104796
1728332723326004700,3.852004638671875,-0.46239563822746277,-0.0526660718023777,-0.2474694550037384,-0.3583604693412781,0.2657850682735443,-0.8949503302574158,0.015037715435028076,-0.07636240124702454,0.02558082342147827,0.744679656604252,0.014095160210954328,-0.22874914599378837,0.6268391401729968
1728332723336034800,3.862034912109375,-0.3836369216442108,0.01883128099143505,-0.2595879137516022,-0.3592749238014221,0.2686915099620819,-0.893714964389801,-0.03048032522201538,-0.057860761880874634,-0.014701783657073975,0.7454823274389747,0.012875473641709117,-0.2301667713456186,0.6253908559164097
1728332723346065700,3.872065673828125,-0.3224828243255615,0.18526910245418549,-0.2248469591140747,-0.35914260149002075,0.2709229588508606,-0.8930942416191101,-0.09497418999671936,0.009106367826461792,-0.013201475143432617,0.7463864193570596,0.01157593714112719,-0.2309088000163476,0.6240628649126277
1728332723356096800,3.8820966796875,-0.18980200588703156,0.35657641291618347,-0.12161832302808762,-0.3571545481681824,0.2726484537124634,-0.8933663368225098,-0.11396056413650513,0.10615107417106628,0.02338653802871704,0.7472803443584829,0.009928688960041622,-0.2306907882383083,0.6231013274244489
1728332723366127600,3.892127685546875,0.041028354316949844,0.42109403014183044,-0.021757768467068672,-0.35379090905189514,0.27302998304367065,-0.8945873975753784,-0.05798274278640747,0.13680589199066162,0.00023931264877319336,0.7479550906426542,0.008508595548393299,-0.22942080091833092,0.6227815282739351
1728332723376157700,3.90215771484375,0.1065884530544281,0.40657103061676025,-0.011340813711285591,-0.35018324851989746,0.2721996605396271,-0.8962583541870117,0.003183126449584961,0.1016865074634552,0.004870414733886719,0.748467240369329,0.007580484695450407,-0.2276254775118154,0.6228370489113253
1728332723386188800,3.912188720703125,0.06785830110311508,0.35553309321403503,-0.037237659096717834,-0.346741646528244,0.27131402492523193,-0.8978635668754578,0.04393097758293152,0.06482189893722534,0.008794963359832764,0.7489794675237313,0.006725890944663946,-0.22588269203454875,0.6228656631825389
1728332723396219600,3.9222197265625,0.020985867828130722,0.22540810704231262,-0.04786499962210655,-0.34430646896362305,0.270722359418869,-0.898978590965271,0.06688645482063293,0.006316274404525757,0.062247633934020996,0.7494382766129749,0.006072229714990082,-0.22466385193584335,0.6227612588815724
1728332723406250800,3.932250732421875,-0.06031984090805054,0.23344099521636963,-0.057989805936813354,-0.3424685597419739,0.27069464325904846,-0.8996886610984802,0.056335777044296265,-0.024494051933288574,0.0286865234375,0.7498546607444434,0.005380074160007504,-0.22388997065395302,0.6225450813932353
1728332723416280800,3.94228076171875,-0.12270652502775192,0.25170254707336426,-0.05584463104605675,-0.34049761295318604,0.2713199257850647,-0.9002482295036316,0.004209190607070923,-0.01489594578742981,0.03975939750671387,0.7503087488190789,0.004363423557592983,-0.2232864603265636,0.6222226022494626
1728332723426311700,3.952311767578125,-0.1353144645690918,0.3639792799949646,-0.03467782586812973,-0.33789753913879395,0.27238357067108154,-0.900906503200531,-0.045845746994018555,0.004960238933563232,0.026760995388031006,0.7507930104291104,0.002964787531367078,-0.22257127315924777,0.6219029278312357
1728332723436342800,3.9623427734375,0.10706808418035507,0.5018953680992126,-0.03849333897233009,-0.33403390645980835,0.27262136340141296,-0.9022743105888367,-0.07867053151130676,0.03041824698448181,-0.04090195894241333,0.7513860731331055,0.0014914400377504216,-0.22104439151392705,0.6217363422131842
1728332723446374000,3.972373779296875,0.1685088872909546,0.6531110405921936,-0.03534095361828804,-0.32903096079826355,0.27084779739379883,-0.9046436548233032,-0.09090614318847656,0.043941110372543335,-0.007328391075134277,0.7521564974515783,0.0004502621162901252,-0.21835286412452518,0.6217576324274808
1728332723456405000,3.982405029296875,0.02389843389391899,0.7660098671913147,0.1307164579629898,-0.3223573565483093,0.27023646235466003,-0.9072254300117493,-0.054641544818878174,0.12585124373435974,0.05380135774612427,0.7528209320003185,-0.0015394850854563683,-0.21537157510835925,0.6219914443392851
1728332723466434800,3.992434814453125,0.22773559391498566,0.6608495116233826,0.2219824641942978,-0.3153280019760132,0.26976582407951355,-0.909832239151001,0.02316799759864807,0.11301624774932861,0.04507088661193848,0.7530058051556147,-0.003531329245503871,-0.2123003073014823,0.6228149146326507
1728332723476466000,4.0024658203125,0.24142371118068695,0.6312921643257141,0.13494795560836792,-0.30903953313827515,0.2679764926433563,-0.9125147461891174,0.030826061964035034,0.033399879932403564,0.003289341926574707,0.7531101181954195,-0.004730857470579679,-0.20909387394332452,0.6237647592645323
1728332723486497000,4.0124970703125,0.11656059324741364,0.6583874225616455,0.07358312606811523,-0.30287325382232666,0.2667182683944702,-0.9149476289749146,-0.00721585750579834,0.02530449628829956,0.00880444049835205,0.7534839572957225,-0.006207878598824599,-0.20612533339893277,0.6242881362061712
1728332723496528000,4.02252783203125,0.20775441825389862,0.6695221066474915,0.11109774559736252,-0.29658055305480957,0.26553094387054443,-0.917351245880127,-0.01320338249206543,-0.0012486577033996582,0.03992509841918945,0.753891217706688,-0.007765965769001137,-0.20313558282864277,0.6247589630391543
1728332723506557700,4.0325576171875,0.11150431632995605,0.8260729312896729,0.17862513661384583,-0.28936946392059326,0.26430436968803406,-0.920004665851593,-0.02313053607940674,-0.020850330591201782,0.10933572053909302,0.7542000783966929,-0.009558802966034072,-0.19976563183030158,0.6254476166102075
1728332723516588800,4.0425888671875,0.10941506922245026,0.9310435652732849,0.2418525665998459,-0.2806898355484009,0.264093279838562,-0.9227502346038818,-0.04233869910240173,0.04860517382621765,0.07196593284606934,0.754425427347994,-0.012196243347245993,-0.1961533761118142,0.6262725932360108
1728332723526620000,4.052619873046875,0.3029724061489105,0.928261935710907,0.2905716300010681,-0.27130940556526184,0.26289185881614685,-0.9258936643600464,-0.03507179021835327,0.09533879160881042,-0.04778486490249634,0.7544977456508597,-0.014601618199491408,-0.19193738392893916,0.627439227291367
1728332723536651000,4.062651123046875,0.4379163682460785,0.8942954540252686,0.1758575737476349,-0.26223447918891907,0.2601006329059601,-0.9292904138565063,-0.034197986125946045,0.08912733197212219,-0.13580352067947388,0.7546234800175524,-0.016289356525569756,-0.1873217458679866,0.6286402637772568
1728332723546680800,4.072680908203125,0.5347619652748108,0.8316825032234192,0.012598074972629547,-0.253966748714447,0.25562748312950134,-0.9328212738037109,-0.09060719609260559,0.08279725909233093,-0.15673255920410156,0.7551958607165712,-0.01718374892583364,-0.18246668684956666,0.6293567803249939
1728332723556712200,4.082712158203125,0.35456129908561707,0.835425615310669,0.04956940934062004,-0.24621102213859558,0.25132498145103455,-0.9360640645027161,-0.12813284993171692,0.06398272514343262,-0.08650368452072144,0.7559298216769618,-0.018041398456244882,-0.17788334873466746,0.6297635692738214
1728332723566743000,4.092742919921875,0.11615186929702759,0.930565357208252,0.1991748809814453,-0.2376420944929123,0.24946238100528717,-0.9387730360031128,-0.127668559551239,0.04147703945636749,-0.04799759387969971,0.7563365556593648,-0.020053778461016695,-0.17381409836125367,0.6303503712613646
1728332723576774100,4.102774169921875,-0.049229107797145844,1.038609266281128,0.29676586389541626,-0.22775839269161224,0.24974839389324188,-0.9411439299583435,-0.13175390660762787,-0.014869779348373413,0.022213876247406006,0.7563834267155423,-0.02325263848771605,-0.16996280726750637,0.631233888672579
1728332723586804200,4.11280419921875,-0.19244524836540222,1.1154141426086426,0.325659841299057,-0.21680420637130737,0.2515958547592163,-0.9432367086410522,-0.10923032462596893,-0.044793397188186646,0.056212782859802246,0.7562910664479949,-0.027388318254858247,-0.1662273384757291,0.632172673707141
