time,seconds_elapsed,rotationRateX,rotationRateY,rotationRateZ,gravityX,gravityY,gravityZ,accelerationX,accelerationY,accelerationZ,quaternionW,quaternionX,quaternionY,quaternionZ
1728333114008988200,0.15198828125,-0.1503237634897232,-0.15977436304092407,-0.20305325090885162,-0.11775729805231094,-0.10884526371955872,-0.9870592355728149,-0.005060657858848572,0.0119672492146492,-0.01606881618499756,0.9967596462772993,0.05459955412962681,-0.05907005581053364,-1.9316533422575116e-17
1728333114019020000,0.16202001953125,-0.10794547945261002,-0.196173757314682,-0.1905134916305542,-0.1192302405834198,-0.10782534629106522,-0.9869943261146545,0.003995910286903381,0.0107794851064682,-0.003056943416595459,0.9967427601212271,0.05402506442644209,-0.0598675017399842,-0.0010620635159296285
1728333114029051400,0.172051513671875,-0.10786265879869461,-0.19518065452575684,-0.2005072683095932,-0.12084342539310455,-0.10699750483036041,-0.9868882298469543,0.024987749755382538,0.012423567473888397,-0.007145583629608154,0.9967144584946358,0.053546251609313124,-0.060734486553285026,-0.0021146208596636937
1728333114039082200,0.182082275390625,-0.10318288207054138,-0.19270791113376617,-0.2108083814382553,-0.12246634811162949,-0.10619133710861206,-0.986775279045105,0.018859215080738068,0.006551481783390045,-0.0048476457595825195,0.9966831643577223,0.053072888703443316,-0.06160878670251424,-0.003227010949195501
1728333114049113300,0.19211328125,-0.08621907979249954,-0.19306451082229614,-0.20448017120361328,-0.1240629106760025,-0.10550631582736969,-0.9866492748260498,0.006692342460155487,0.0045847222208976746,-0.0015556812286376953,0.9966473106861486,0.052658273614442,-0.06246969752747639,-0.0043450153788915655
1728333114059144200,0.202144287109375,-0.04032415896654129,-0.21999402344226837,-0.17990611493587494,-0.1258089244365692,-0.10511849820613861,-0.986469566822052,0.008331537246704102,0.016037724912166595,-0.013118445873260498,0.9965971908517808,0.052395893668486314,-0.06340254589142903,-0.005388571000206968
1728333114069175300,0.21217529296875,0.0017018518410623074,-0.22704634070396423,-0.14991599321365356,-0.12775973975658417,-0.10517223179340363,-0.9862130880355835,0.01881203055381775,0.02289687842130661,-0.027519822120666504,0.9965275813373874,0.052364056492744046,-0.06443185054046377,-0.006268494602930369
1728333114079206100,0.2222060546875,-0.001790883718058467,-0.22051706910133362,-0.1415289044380188,-0.12970563769340515,-0.10537037998437881,-0.9859378933906555,0.022329583764076233,0.0176018625497818,-0.03426474332809448,0.9964533220185078,0.05240871357584054,-0.06545516460122001,-0.007063657144086874
1728333114089237200,0.2322373046875,0.009082269854843616,-0.2280178666114807,-0.13926202058792114,-0.13166356086730957,-0.10557634383440018,-0.9856563210487366,0.009806916117668152,0.010987155139446259,-0.018845021724700928,0.9963768973028493,0.052457998325942105,-0.06648314147484474,-0.00782508102336488
1728333114099268000,0.24226806640625,0.034195609390735626,-0.23165760934352875,-0.10231786221265793,-0.13374128937721252,-0.10597656667232513,-0.9853335618972778,0.006345689296722412,0.008656047284603119,-0.002566218376159668,0.9962903382445847,0.05260832140302061,-0.06756908160858603,-0.008511622477977782
1728333114109299200,0.25229931640625,-0.01619778573513031,-0.18083997070789337,-0.0466279610991478,-0.1355842798948288,-0.1062004491686821,-0.985057532787323,0.006021946668624878,0.007170937955379486,-0.001179039478302002,0.9962173736199288,0.05268739883690471,-0.06852199990622682,-0.008933214162833573
1728333114119330000,0.262330078125,-0.05937881022691727,-0.1904023140668869,-0.04046674072742462,-0.13724705576896667,-0.10584623366594315,-0.9848653674125671,-0.0005702972412109375,-0.00032438337802886963,-0.0005624890327453613,0.9961667247075726,0.0524856021378809,-0.06937268101035478,-0.00920688534675186
1728333114129361200,0.272361083984375,-0.0857720747590065,-0.17525477707386017,-0.035664793103933334,-0.13894015550613403,-0.10521339625120163,-0.9846957921981812,0.012582153081893921,-0.005183905363082886,0.0008243322372436523,0.9961215998916441,0.05214376095410657,-0.07023630848765114,-0.009470493600691255
1728333114139392300,0.282392333984375,-0.13748612999916077,-0.14640316367149353,-0.046141404658555984,-0.14039309322834015,-0.10417597740888596,-0.9846000075340271,0.02412116527557373,0.0020947158336639404,-0.0060463547706604,0.9960948883916246,0.05159770759357266,-0.07097661938518138,-0.009746527102673458
1728333114149423000,0.292423095703125,-0.16064497828483582,-0.13545453548431396,-0.06422826647758484,-0.1416284441947937,-0.10277894884347916,-0.9845699071884155,0.019344553351402283,0.014003351330757141,-0.007098793983459473,0.9960836259187743,0.05086378648140617,-0.07160955889086772,-0.010122797046459978
1728333114159454200,0.3024541015625,-0.1577894687652588,-0.13215391337871552,-0.09557446837425232,-0.14084799587726593,-0.10031699389219284,-0.9849357008934021,0.018060550093650818,0.009923964738845825,-0.0033150315284729004,0.9961702188022264,0.049592210818858964,-0.07122331428400733,-0.010617522766955672
1728333114169485000,0.312485107421875,-0.12705951929092407,-0.16008327901363373,-0.11764009296894073,-0.14100559055805206,-0.09864645451307297,-0.9850818514823914,0.021590352058410645,0.016859382390975952,-0.012949764728546143,0.9961998069478153,0.04870454491234601,-0.07132271102752262,-0.011269456016828128
1728333114179516200,0.32251611328125,-0.08074361830949783,-0.19186002016067505,-0.10596106201410294,-0.1418730914592743,-0.09772980958223343,-0.9850487112998962,0.017269879579544067,0.02984350174665451,-0.01313549280166626,0.9961836211969092,0.04819148883558431,-0.07178605686608795,-0.011942890298115039
1728333114189547300,0.33254736328125,-0.045195482671260834,-0.21842531859874725,-0.09873324632644653,-0.14307381212711334,-0.09734714776277542,-0.9849128723144531,0.021003544330596924,0.023204728960990906,-0.013317108154296875,0.9961421211516909,0.04795033741161011,-0.07241765624755989,-0.012541480197666101
1728333114199578400,0.342578369140625,-0.00759158143773675,-0.2461676448583603,-0.0998120903968811,-0.14493584632873535,-0.09776512533426285,-0.9845991730690002,0.018837273120880127,0.011354640126228333,-0.01314246654510498,0.996055973045157,0.04810902760475069,-0.07338883640331184,-0.013125656894758475
1728333114209609200,0.352609130859375,0.016586458310484886,-0.24177207052707672,-0.09071286767721176,-0.1462632715702057,-0.09869874268770218,-0.984309732913971,0.017173945903778076,0.0004626959562301636,-0.007511556148529053,0.9959755544525559,0.04852974446334923,-0.07409457776326904,-0.013697780942452428
1728333114219640300,0.362640380859375,-0.0073407115414738655,-0.2321472465991974,-0.13833391666412354,-0.1469116508960724,-0.09907326847314835,-0.9841755032539368,0.01588447391986847,-0.0005208030343055725,-0.0026103854179382324,0.9959322912625288,0.04866409133012333,-0.07445835251795017,-0.014377104603913822
1728333114229671200,0.372671142578125,-0.010602018795907497,-0.2467658817768097,-0.15336239337921143,-0.14791101217269897,-0.09863492846488953,-0.9840698838233948,0.0028304755687713623,0.00013948231935501099,0.0116119384765625,0.9958935682733961,0.04837589500276533,-0.07499895077309583,-0.015203173501443299
1728333114239698200,0.3826982421875,-0.002567261690273881,-0.19290557503700256,-0.1379360407590866,-0.14873532950878143,-0.09837819635868073,-0.9839712977409363,0.00913269817829132,0.00725274533033371,0.02460545301437378,0.9958562460186424,0.04818156411940945,-0.0754511965384553,-0.01599954650121606
1728333114249727700,0.392727783203125,-0.05907800793647766,-0.11754413694143295,-0.1870974600315094,-0.1487291306257248,-0.09748745709657669,-0.9840608835220337,-0.008787304162979126,0.0036459416151046753,0.01878988742828369,0.9958651614637898,0.04767062341144647,-0.07547889658774304,-0.016828747068780518
1728333114259758600,0.402758544921875,-0.11330429464578629,-0.10128026455640793,-0.20794814825057983,-0.1484306901693344,-0.09540188312530518,-0.9843103289604187,-0.0503607839345932,-0.00881560891866684,0.0254175066947937,0.9959096211717996,0.046544583333576396,-0.0753554140132102,-0.017871890730121104
1728333114269791000,0.412791015625,-0.07654734700918198,-0.08007484674453735,-0.23493768274784088,-0.1481083780527115,-0.0938887819647789,-0.9845043420791626,-0.024331167340278625,0.014298975467681885,0.016898751258850098,0.9959373603895353,0.04570036232855794,-0.0752283339896902,-0.019004692937601805
1728333114279821800,0.42282177734375,-0.09041503071784973,-0.04812106490135193,-0.28631940484046936,-0.14786268770694733,-0.09325666725635529,-0.9846013784408569,-0.04412335157394409,0.012934446334838867,0.0012944936752319336,0.9959346141795198,0.0452814189578578,-0.07515928139279844,-0.02037008526712151
1728333114289853000,0.43285302734375,-0.11789298802614212,-0.029916230589151382,-0.30618950724601746,-0.14756639301776886,-0.09276377409696579,-0.9846923351287842,-0.047990188002586365,0.011922761797904968,0.022808849811553955,0.9959249594625808,0.0449207410717452,-0.07507295142572172,-0.021901385578364522
1728333114299883800,0.4428837890625,-0.11958535760641098,-0.05577382072806358,-0.3481862246990204,-0.14729031920433044,-0.09220515191555023,-0.9847861528396606,-0.026995539665222168,0.016414783895015717,0.032164692878723145,0.9959094322362926,0.044513433777140135,-0.0750031663434749,-0.02361536642343558
1728333114309915000,0.452914794921875,-0.06764066964387894,-0.03108551725745201,-0.4532298147678375,-0.14752066135406494,-0.09179800003767014,-0.9847897291183472,-0.015153259038925171,0.019074656069278717,0.03811919689178467,0.9958619203033832,0.044158512018786455,-0.07520084663231569,-0.025574445059523627
1728333114319945700,0.46294580078125,0.10847923159599304,0.09111452847719193,-0.950714111328125,-0.14648787677288055,-0.09281875938177109,-0.9848482012748718,-0.03649549186229706,0.004806101322174072,0.027084529399871826,0.9957869651359937,0.04443725424390981,-0.07484136017472329,-0.028852224764496726
1728333114329976800,0.472976806640625,0.015105076134204865,0.011401594616472721,-1.9881032705307007,-0.143344447016716,-0.09634504467248917,-0.9849720597267151,-0.07117883861064911,-0.09109387546777725,0.011522352695465088,0.9955533082476562,0.04565860538647748,-0.07368345235860557,-0.036873240436320134
1728333114340007700,0.483007568359375,-0.8147457242012024,-1.0480504035949707,-0.7474584579467773,-0.14605000615119934,-0.09398096799850464,-0.9848030209541321,0.25713402032852173,-0.21761871874332428,0.16632157564163208,0.9952306070517444,0.04390222786368668,-0.0753066328017481,-0.04378956834129608
1728333114350038800,0.493038818359375,-1.1674853563308716,-1.287875771522522,-0.5463088750839233,-0.15773442387580872,-0.08478271216154099,-0.9838352203369141,0.4787183403968811,-0.14922603964805603,0.26653480529785156,0.9948300569092376,0.038760350728323054,-0.08111734111229858,-0.04723272503591993
1728333114360069600,0.503069580078125,-1.0113282203674316,-0.6510504484176636,-1.0174788236618042,-0.1667545586824417,-0.07516537606716156,-0.9831292629241943,-0.2305384874343872,-0.02740415185689926,0.039708852767944336,0.9944204625338765,0.033327522330524356,-0.08558422501506785,-0.05189176104523873
1728333114370100700,0.513100830078125,-0.5984489917755127,-0.04578046500682831,-1.0110230445861816,-0.16931788623332977,-0.06891283392906189,-0.9831492900848389,-0.48668795824050903,0.07759513705968857,-0.08450818061828613,0.9941137571391061,0.029630720408826642,-0.08687569998615881,-0.057554750630405195
1728333114380131800,0.5231318359375,-0.2418760508298874,0.1747058928012848,-0.6608639359474182,-0.16792012751102448,-0.06637227535247803,-0.9835637211799622,-0.27310460805892944,0.1489376425743103,-0.13078564405441284,0.99394924171167,0.028008054216378628,-0.08621890009341365,-0.06202300050454277
1728333114390162700,0.53316259765625,-0.34117361903190613,1.133398413658142,1.4260354042053223,-0.16201479732990265,-0.0635397657752037,-0.9847405552864075,0.013073787093162537,0.2107413411140442,-0.0761573314666748,0.9943100403813233,0.026854555802998874,-0.08311780025715826,-0.06097524935159995
1728333114400194000,0.543194091796875,-0.3719050884246826,-0.2359587699174881,2.460604667663574,-0.15751712024211884,-0.05571770295500755,-0.9859431385993958,0.8268439173698425,0.24410276114940643,0.05276137590408325,0.9952143931209653,0.02394012839071767,-0.08034484778811296,-0.05019975538938846
1728333114410225000,0.553224853515625,-0.23473551869392395,-1.1115880012512207,0.7712109684944153,-0.16485048830509186,-0.050144925713539124,-0.9850430488586426,0.8078864216804504,-0.024134814739227295,0.15739107131958008,0.9953737520616733,0.02166790903956858,-0.08371964422509201,-0.04186347099587673
1728333114420256000,0.563256103515625,-0.46516501903533936,-1.5261125564575195,-1.2127002477645874,-0.17851683497428894,-0.04745376482605934,-0.9827919006347656,-0.0016131401062011719,-0.23802287876605988,0.09892654418945312,0.9947327994388266,0.019879438782378026,-0.0906027910490758,-0.04362064353008144
1728333114430286800,0.573286865234375,-0.7713441252708435,-0.9985315799713135,-1.5225757360458374,-0.1903255134820938,-0.04391257092356682,-0.9807384610176086,-0.3894626498222351,-0.1791403591632843,0.09633904695510864,0.9938453182485856,0.017095355230863207,-0.09663605833670848,-0.05139020155322995
1728333114440318000,0.58331787109375,-0.7005218863487244,-0.4163658320903778,-0.524669349193573,-0.19676822423934937,-0.038506586104631424,-0.979693591594696,-0.23798516392707825,-0.0877598449587822,0.043124377727508545,0.9932724341443282,0.013647789569120616,-0.09983460470710366,-0.05706759441036744
1728333114450348800,0.593348876953125,-0.482732892036438,0.03620190918445587,0.43589767813682556,-0.19848550856113434,-0.03270510211586952,-0.979557991027832,-0.08972248435020447,-0.0297185517847538,-0.03350353240966797,0.9932203722875103,0.010656134119554204,-0.10053578728986001,-0.05737919053236156
1728333114460380000,0.6033798828125,-0.314719557762146,0.24356941878795624,0.6293230652809143,-0.197120800614357,-0.027638878673315048,-0.9799895286560059,-0.12824232876300812,0.03906776010990143,-0.04460763931274414,0.9934819059325811,0.00842559043871547,-0.09967067133086008,-0.0546677124397845
1728333114470410800,0.61341064453125,-0.12160923331975937,0.24652180075645447,0.37557199597358704,-0.1947443038225174,-0.02447572536766529,-0.980548620223999,-0.14223076403141022,0.06022711098194122,-0.029903650283813477,0.9937546792938148,0.007146963279353205,-0.09835959759164825,-0.05221182515572941
1728333114480441900,0.62344189453125,-0.0022636614739894867,0.1548980325460434,0.19538600742816925,-0.19274552166461945,-0.02343881130218506,-0.9809687733650208,-0.019702568650245667,0.02308790571987629,-0.03282511234283447,0.9939295317442265,0.006809818606934083,-0.0973099438104499,-0.05087790185555656
1728333114490472700,0.63347265625,-0.05209619924426079,0.00038090161979198456,0.18740397691726685,-0.1919553130865097,-0.02290986478328705,-0.9811362028121948,0.1500852406024933,-0.015374388545751572,0.0063285231590271,0.9940175234602268,0.0066529483304719,-0.0968897559091038,-0.04997211067738139
1728333114500503800,0.64350390625,-0.16905316710472107,-0.17575199902057648,0.19525471329689026,-0.19283200800418854,-0.02145003341138363,-0.9809973239898682,0.22969727218151093,-0.03267284482717514,0.048319101333618164,0.9940278204634495,0.005987064569032537,-0.09729080911136513,-0.04906638463053634
1728333114510534700,0.65353466796875,-0.2626630365848541,-0.26411858201026917,0.14528875052928925,-0.1950647383928299,-0.01898985542356968,-0.9806064963340759,0.18636725842952728,-0.04799617826938629,0.05194133520126343,0.9939657531122382,0.004770443009429283,-0.09835641959006865,-0.04832700334101564
1728333114520565800,0.663565673828125,-0.3123331665992737,-0.23678259551525116,0.11573643982410431,-0.19756248593330383,-0.015915431082248688,-0.9801610708236694,0.08295376598834991,-0.056716352701187134,0.02509826421737671,0.9938768529399841,0.0032144332230468076,-0.09954457357267754,-0.04784756131252813
1728333114530596600,0.6735966796875,-0.3393770456314087,-0.15162988007068634,0.1640286147594452,-0.19945284724235535,-0.012429768219590187,-0.9798285961151123,0.0017600059509277344,-0.049459829926490784,0.013214826583862305,0.9938169198678791,0.0014690874936351484,-0.10041686983845563,-0.047351406115684024
1728333114540627700,0.683627685546875,-0.3256508409976959,-0.059558331966400146,0.25896576046943665,-0.20044966042041779,-0.008720017969608307,-0.979665219783783,-0.029759660363197327,-0.034065574407577515,0.003468930721282959,0.9938172412006385,-0.0003281520689272716,-0.10083300228326335,-0.04647419072185385
1728333114550658800,0.693658935546875,-0.2939240634441376,-0.015554655343294144,0.3133150339126587,-0.20076923072338104,-0.005109931342303753,-0.9796252250671387,-0.03001992404460907,-0.02137928083539009,-0.009830951690673828,0.9938663717314499,-0.0020180250870716417,-0.10091237102438266,-0.04519379475820507
1728333114560690000,0.70368994140625,-0.2666434645652771,-0.0022799158468842506,0.3089818060398102,-0.200811505317688,-0.0017170064384117723,-0.9796283841133118,-0.017404407262802124,-0.008887804113328457,-0.005433261394500732,0.9939309840697946,-0.003577519945134556,-0.10086130581835166,-0.04376615120990059
1728333114570721000,0.713720947265625,-0.2375585436820984,-0.017453009262681007,0.28966107964515686,-0.20084673166275024,0.0013521244982257485,-0.9796217679977417,0.002314656972885132,-0.0002839602530002594,-0.006141781806945801,0.9939889436894039,-0.004979730698097349,-0.10081829687383717,-0.042390470049694456
1728333114580752000,0.723751953125,-0.20302599668502808,-0.029544562101364136,0.2864016592502594,-0.2010289579629898,0.004102084785699844,-0.9795767068862915,0.018243953585624695,0.0036799502559006214,-0.012305617332458496,0.994033223127899,-0.006230304520608964,-0.10086042720106106,-0.041067517579826886
1728333114590783000,0.733782958984375,-0.1748468279838562,-0.04111040383577347,0.2868162989616394,-0.20132556557655334,0.006525138858705759,-0.9795026779174805,0.020631030201911926,0.002767509315162897,-0.015614509582519531,0.9940685248222869,-0.0073183431465276986,-0.10097087385720621,-0.03973784738241469
1728333114600813800,0.743813720703125,-0.16404077410697937,-0.025667157024145126,0.2896603047847748,-0.20160162448883057,0.008744299411773682,-0.9794285893440247,0.006304413080215454,-0.006791123189032078,-0.011980712413787842,0.9941034863488638,-0.00829992140100088,-0.10107831765075645,-0.0383745122381305
1728333114610845000,0.753844970703125,-0.17305344343185425,0.004052122123539448,0.3087919056415558,-0.20165836811065674,0.010981356725096703,-0.9793943762779236,-0.013231128454208374,-0.016932236030697823,-0.009100496768951416,0.9941483797769938,-0.009281135095521727,-0.10107759006739316,-0.036963157319709304
1728333114620875800,0.763875732421875,-0.18852108716964722,0.03276531398296356,0.3383854925632477,-0.20139501988887787,0.013389182277023792,-0.9794185757637024,-0.022222504019737244,-0.03006698563694954,-0.0012943148612976074,0.9942098886803631,-0.010330769782896664,-0.10091571190949236,-0.03543910337991126
1728333114630907000,0.773906982421875,-0.22429746389389038,0.051738470792770386,0.3714393079280853,-0.20087555050849915,0.01612088643014431,-0.9794841408729553,-0.013037383556365967,-0.03885643556714058,0.007361888885498047,0.9942848541329377,-0.011523559601726548,-0.1006237985239864,-0.03376196926982177
1728333114640937700,0.783937744140625,-0.2570202350616455,0.043908778578042984,0.3726925849914551,-0.20029790699481964,0.019234104081988335,-0.9795462489128113,-0.0006603002548217773,-0.035667773336172104,0.01706761121749878,0.9943579608661827,-0.012901855034748356,-0.10030169545724833,-0.03202348874483307
1728333114650968800,0.79396875,-0.277939110994339,0.0017653191462159157,0.35861140489578247,-0.19992589950561523,0.02259819023311138,-0.9795503616333008,0.004186198115348816,-0.026946894824504852,0.022885382175445557,0.9944121452133153,-0.01441510227531415,-0.1000850145278768,-0.030328794390602827
1728333114660999700,0.803999755859375,-0.28323453664779663,-0.03109329380095005,0.34544605016708374,-0.19997450709342957,0.02607223577797413,-0.9794541597366333,-0.008811473846435547,-0.01667277328670025,0.0223313570022583,0.9944355002065728,-0.016000282378920712,-0.10008453237071013,-0.028727024259539217
1728333114671030800,0.81403076171875,-0.26040059328079224,-0.028784068301320076,0.3454822897911072,-0.20016567409038544,0.02945270575582981,-0.9793192744255066,-0.043456122279167175,-0.0011933818459510803,0.010187804698944092,0.9944461730049133,-0.017542268846301893,-0.10016301929954605,-0.02714064348231627
1728333114681061600,0.8240615234375,-0.2147892415523529,0.01436952780932188,0.36272892355918884,-0.20011205971240997,0.032502371817827225,-0.9792337417602539,-0.08243490755558014,0.013182491064071655,-0.007155418395996094,0.9944682754354606,-0.018908109979089108,-0.10012792822371905,-0.025490688994624783
1728333114691092700,0.8340927734375,-0.16667871177196503,0.06193757802248001,0.39209213852882385,-0.1995827704668045,0.03511548414826393,-0.9792515635490417,-0.10701204836368561,0.02859000861644745,-0.023372948169708252,0.9945169055178239,-0.020035143197027778,-0.09986395957224391,-0.02370772361929741
1728333114701123800,0.844123779296875,-0.11048294603824615,0.09840445965528488,0.43075883388519287,-0.1985897272825241,0.03729722276329994,-0.9793727993965149,-0.1086612194776535,0.03519733250141144,-0.021741092205047607,0.9945923171171209,-0.02092227018743797,-0.09937740239979838,-0.021740541626354547
1728333114711154700,0.85415478515625,-0.071482814848423,0.11789347231388092,0.46036386489868164,-0.19728507101535797,0.03903305158019066,-0.9795687794685364,-0.09086185693740845,0.02975361794233322,-0.020797371864318848,0.9946865947852754,-0.02156406145328342,-0.09874508596340442,-0.019575231281891377
1728333114721186000,0.86418603515625,-0.08648885786533356,0.11950670182704926,0.4682422876358032,-0.19589480757713318,0.04067680239677429,-0.979780912399292,-0.06332147121429443,0.014849979430437088,-0.010224580764770508,0.9947818193904265,-0.022151573317393154,-0.09807575851535291,-0.0173088761076702
1728333114731217000,0.874216796875,-0.1201203241944313,0.08753758668899536,0.4608328342437744,-0.19464385509490967,0.04257458075881004,-0.9799495935440063,-0.034009069204330444,0.0016301870346069336,0.004790902137756348,0.9948610802913679,-0.022871821362478277,-0.09747865855905505,-0.01504939828858517
1728333114741248000,0.884248046875,-0.16515104472637177,0.032187141478061676,0.4364774227142334,-0.19381338357925415,0.04484177008271217,-0.9800130724906921,-0.009860903024673462,-0.011074017733335495,0.0022451281547546387,0.9949074131653121,-0.023792797195664017,-0.09709466347734534,-0.01288170982402841
1728333114751278800,0.89427880859375,-0.21681824326515198,-0.021088330075144768,0.42147743701934814,-0.19353114068508148,0.04753256216645241,-0.9799420237541199,-0.0064505040645599365,-0.006013344973325729,-0.000801384449005127,0.9949139162271128,-0.024944325489408874,-0.09698851545370697,-0.01083814281523308
1728333114761310000,0.90431005859375,-0.23311518132686615,-0.05317574739456177,0.435198038816452,-0.19367095828056335,0.050588175654411316,-0.9797614216804504,-0.017998933792114258,0.005899906158447266,-0.0055748820304870605,0.9948885609651474,-0.026283556401669378,-0.09710033100512072,-0.008806571769046846
1728333114771340800,0.9143408203125,-0.22718246281147003,-0.049196451902389526,0.465343713760376,-0.19392447173595428,0.05371930077672005,-0.9795445799827576,-0.03840579092502594,0.016318589448928833,-0.01767832040786743,0.9948506187323967,-0.027651138686033604,-0.09727865807183533,-0.006672612246685292
1728333114781372000,0.924371826171875,-0.20605874061584473,-0.039038464426994324,0.5155501961708069,-0.19404758512973785,0.05680384486913681,-0.9793461561203003,-0.05593712627887726,0.020008951425552368,-0.017296910285949707,0.9948138330020949,-0.028973182168613866,-0.09740371528560356,-0.00432221616621734
1728333114791402800,0.93440283203125,-0.19998060166835785,-0.01536056399345398,0.5516466498374939,-0.19396750628948212,0.05982029438018799,-0.9791823625564575,-0.0639975517988205,0.01951019838452339,-0.01939857006072998,0.9947804718626732,-0.030238521977857206,-0.09743941434547614,-0.0017502508526161566
1728333114801433900,0.944433837890625,-0.20472635328769684,-0.004092090763151646,0.5693106055259705,-0.19366657733917236,0.06288637220859528,-0.979049801826477,-0.06039223074913025,0.018793977797031403,-0.01457202434539795,0.9947482881956956,-0.031515196531562935,-0.09737493478247318,0.0009602055301352885
1728333114811464700,0.954464599609375,-0.1919974982738495,-0.005605031736195087,0.5737716555595398,-0.19328196346759796,0.06593641638755798,-0.9789251685142517,-0.04025377333164215,0.016400061547756195,-0.011675417423248291,0.9947104366595207,-0.0327796405547904,-0.09727750484148874,0.003720863983747709
1728333114821495800,0.964495849609375,-0.18238408863544464,-0.005433258600533009,0.5613844990730286,-0.1929246187210083,0.06885617226362228,-0.9787946343421936,-0.014808505773544312,0.012763142585754395,-0.0046190619468688965,0.9946634786001226,-0.03398067610144376,-0.0972008285348995,0.0064685560455967645
1728333114831526700,0.974526611328125,-0.17745937407016754,-0.012983319349586964,0.5476873517036438,-0.19257299602031708,0.0716753751039505,-0.9786614775657654,0.0013803988695144653,0.014201141893863678,0.0013970732688903809,0.9946090279425064,-0.03513895346735856,-0.09713143715080949,0.009143983124655763
1728333114841557800,0.984557861328125,-0.16109558939933777,-0.038946639746427536,0.5305906534194946,-0.1923697590827942,0.0743861123919487,-0.978499174118042,0.006670325994491577,0.01646476238965988,-0.007355928421020508,0.9945407839385155,-0.0362487993554627,-0.09714138976565813,0.011757577670219193
1728333114851588600,0.994588623046875,-0.1458095759153366,-0.07219114899635315,0.5286548137664795,-0.19246704876422882,0.0768989622592926,-0.9782857298851013,-0.008262291550636292,0.013188980519771576,-0.04679971933364868,0.9944534108693227,-0.03726127368827916,-0.09730738038578826,0.014334775328164113
1728333114861619700,1.00461962890625,-0.13134914636611938,-0.07542960345745087,0.5374802350997925,-0.19277231395244598,0.07928100228309631,-0.9780354499816895,-0.04087023437023163,0.013690851628780365,-0.07581281661987305,0.9943495737748179,-0.03820400954399584,-0.09758444540805955,0.016932625992586704
1728333114871650800,1.01465087890625,-0.10028283298015594,-0.04639048874378204,0.5625293850898743,-0.19289211928844452,0.08148244023323059,-0.9778308868408203,-0.0680026113986969,0.011016391217708588,-0.09213066101074219,0.9942486876492973,-0.039047304685930255,-0.09777456255564797,0.019621548689019826
1728333114881682000,1.024681884765625,-0.06630448997020721,-0.01580829545855522,0.6033570170402527,-0.19265133142471313,0.08339987695217133,-0.9777166843414307,-0.06967772543430328,0.009633012115955353,-0.09129881858825684,0.994159316064419,-0.039733007360204665,-0.09779030116204218,0.022486880328733708
1728333114891713000,1.034713134765625,-0.02729317918419838,-0.02638557180762291,0.6281925439834595,-0.19226841628551483,0.08503874391317368,-0.9776508808135986,-0.04955282807350159,0.010313481092453003,-0.07969164848327637,0.9940687766700675,-0.04026104705277288,-0.09774252912796487,0.025547941646857475
1728333114901743900,1.044743896484375,0.008550968952476978,-0.05362885445356369,0.6236026287078857,-0.1920667141675949,0.08632072806358337,-0.9775781631469727,-0.021922513842582703,0.011228762567043304,-0.07469844818115234,0.9939650507923505,-0.04060043264465762,-0.09778808396841007,0.028683991131806915
1728333114911775000,1.05477490234375,0.047972679138183594,-0.0729234591126442,0.6019604206085205,-0.1921064704656601,0.08721213787794113,-0.9774912595748901,-0.001130804419517517,0.016242504119873047,-0.07826435565948486,0.9938492235317331,-0.04074478298243561,-0.09795017201340005,0.031770221369261706
1728333114921805800,1.064805908203125,0.09544205665588379,-0.08693749457597733,0.5814599394798279,-0.1923249214887619,0.08762651681900024,-0.9774112105369568,0.015628188848495483,0.022740356624126434,-0.08774381875991821,0.9937291263569191,-0.040655234976095564,-0.09819131743175331,0.03475833704659796
1728333114931837000,1.0748369140625,0.13916903734207153,-0.0921330526471138,0.5822972655296326,-0.19264814257621765,0.08754236996173859,-0.9773551225662231,0.02789902687072754,0.022534586489200592,-0.08267295360565186,0.9936068175728024,-0.04031404008210768,-0.09847445558852018,0.03772429507773541
1728333114941867800,1.08486767578125,0.14832498133182526,-0.09792771935462952,0.5938982367515564,-0.19302217662334442,0.08725468069314957,-0.9773070216178894,0.03378148376941681,0.013483896851539612,-0.061724960803985596,0.9934756532194887,-0.039863261580656215,-0.09877954256365279,0.04073880680534184
1728333114951899000,1.09489892578125,0.1314900666475296,-0.09759508818387985,0.610143780708313,-0.19340047240257263,0.08701473474502563,-0.9772536754608154,0.02799522876739502,-0.0018858984112739563,-0.05746006965637207,0.9933306831247104,-0.039427185114094154,-0.0990892062185064,0.04383054093299087
1728333114961929700,1.1049296875,0.09063798934221268,-0.09342510998249054,0.6230430603027344,-0.19374173879623413,0.08711881935596466,-0.9771767854690552,0.016602501273155212,-0.013952881097793579,-0.054042696952819824,0.9931676793072107,-0.03915814789285689,-0.0993893816733007,0.046974861672103116
1728333114971960800,1.1149609375,0.08976500481367111,-0.08466384559869766,0.6425672769546509,-0.1939994990825653,0.08746702969074249,-0.9770945310592651,0.01032949984073639,-0.019794248044490814,-0.06257832050323486,0.9929895222307132,-0.039005172272364434,-0.09965607631707252,0.0501904865489082
1728333114981991700,1.12499169921875,0.11342259496450424,-0.07090984284877777,0.6503061056137085,-0.1941351592540741,0.08772193640470505,-0.9770447015762329,0.012540340423583984,-0.01237398386001587,-0.09595334529876709,0.9928055718239995,-0.03880018722388992,-0.09986081009479428,0.053473690633597144
1728333114992022800,1.135022705078125,0.1579703390598297,-0.06864535808563232,0.6445323824882507,-0.19416838884353638,0.0876406729221344,-0.9770454168319702,0.02157627046108246,0.016424313187599182,-0.12396776676177979,0.9926222047361909,-0.03842567347853269,-0.1000037938241086,0.05677945971481915
1728333115002053600,1.1450537109375,0.2344672679901123,-0.07644537836313248,0.6523604989051819,-0.19424399733543396,0.0869842991232872,-0.9770890474319458,0.03854334354400635,0.05797424167394638,-0.1238631010055542,0.9924366570168764,-0.03775705935919657,-0.10014929545738026,0.06011683086330591
1728333115012084700,1.155084716796875,0.3689321279525757,-0.08602157235145569,0.6754780411720276,-0.19440403580665588,0.08530176430940628,-0.9772055745124817,0.06024882197380066,0.0845591127872467,-0.1279732584953308,0.9922496644928612,-0.036555953084234066,-0.10030397234520645,0.06358918830574735
1728333115022115600,1.165115478515625,0.48328831791877747,-0.07576867938041687,0.682018518447876,-0.19458477199077606,0.08242025971412659,-0.9774168133735657,0.06619738042354584,0.0849992111325264,-0.12307751178741455,0.9920642386653427,-0.03473631242961355,-0.10042395206557249,0.06720984287456555
1728333115032147000,1.17514697265625,0.5455791354179382,-0.07394600659608841,0.6770117878913879,-0.19470104575157166,0.0786656066775322,-0.9777030348777771,0.05586135387420654,0.06758993119001389,-0.1053963303565979,0.9918819464615715,-0.032476804813179896,-0.10046759474222665,0.07086512280827877
1728333115042177800,1.185177734375,0.5652482509613037,-0.07239173352718353,0.6671618223190308,-0.19482992589473724,0.07448310405015945,-0.9780048727989197,0.03920556604862213,0.03701291233301163,-0.08931690454483032,0.9916916060090266,-0.03000473594854722,-0.10048517287234898,0.0744996136436343
1728333115052209000,1.195208984375,0.5487936735153198,-0.07996124029159546,0.6603662371635437,-0.1950145810842514,0.07027363777160645,-0.9782795906066895,0.031150490045547485,0.01213911920785904,-0.09082746505737305,0.991484279640285,-0.02752176885937563,-0.10051251423466218,0.07809395100572061
1728333115062240000,1.205239990234375,0.5421624183654785,-0.0790371224284172,0.6587291955947876,-0.19526639580726624,0.06620174646377563,-0.9785133600234985,0.029525473713874817,0.005758747458457947,-0.09938275814056396,0.9912567234870362,-0.02510932456126644,-0.10056265945513171,0.0816514337497041
1728333115072270800,1.215270751953125,0.5606929659843445,-0.08982318639755249,0.6785907745361328,-0.1955820769071579,0.06206946820020676,-0.9787211418151855,0.039606764912605286,0.013019073754549026,-0.10883378982543945,0.9910055542211942,-0.022659303668481977,-0.1006279928076275,0.08525697519345345
1728333115082302000,1.225302001953125,0.616813063621521,-0.1200488954782486,0.7040210366249084,-0.19615453481674194,0.05762802064418793,-0.9788781404495239,0.057238563895225525,0.028141669929027557,-0.10629642009735107,0.9907157642513511,-0.02002886614260053,-0.10079570277049754,0.08900276484303192
1728333115092332800,1.235332763671875,0.6688962578773499,-0.13300010561943054,0.7243454456329346,-0.19691437482833862,0.052664864808321,-0.9790051579475403,0.0677945613861084,0.03672115504741669,-0.10990774631500244,0.9903910293104699,-0.017113418188106026,-0.10101751865218654,0.0928894016863605
1728333115102364000,1.245364013671875,0.7139836549758911,-0.1509576439857483,0.7464990019798279,-0.1978813111782074,0.04727761447429657,-0.9790852069854736,0.06548082828521729,0.03728663548827171,-0.09122729301452637,0.9900267599682913,-0.013961576844454066,-0.10130387647916418,0.0969012532391531
1728333115112394800,1.255394775390625,0.7267208099365234,-0.16236849129199982,0.7751588225364685,-0.1989831179380417,0.04165167361497879,-0.9791173934936523,0.07129761576652527,0.018590062856674194,-0.08500003814697266,0.9896193124903756,-0.010666667866832109,-0.10162443663317514,0.10105735793275238
1728333115122425900,1.26542578125,0.6964073777198792,-0.19480296969413757,0.8105551600456238,-0.20031248033046722,0.03621489554643631,-0.9790624976158142,0.07831849157810211,-0.0026912949979305267,-0.05588012933731079,0.9891559804199589,-0.007435993099697255,-0.10204632220885707,0.10536480014471858
1728333115132456700,1.275456787109375,0.6652060747146606,-0.22705598175525665,0.8504634499549866,-0.2020183652639389,0.031166434288024902,-0.9788857102394104,0.08167234063148499,-0.02582581900060177,-0.0285453200340271,0.9886247467819359,-0.004357398103999956,-0.10265552111339475,0.10983710932683587
1728333115142487800,1.28548779296875,0.6047542691230774,-0.25017639994621277,0.8687703013420105,-0.2040306031703949,0.026614399626851082,-0.9786026477813721,0.07629933953285217,-0.042361438274383545,-0.029072463512420654,0.988031043606943,-0.001489399020732607,-0.10342362105218585,0.11443834192418001
1728333115152518700,1.2955185546875,0.5587249994277954,-0.2716926038265228,0.8855867981910706,-0.20628668367862701,0.022690970450639725,-0.9782284498214722,0.0640442967414856,-0.03610340878367424,-0.016553044319152832,0.9873848685019562,0.0010942689847087302,-0.10432913729895292,0.11910335134109849
1728333115162549800,1.3055498046875,0.584509015083313,-0.28805649280548096,0.9036688804626465,-0.20877502858638763,0.01893683522939682,-0.9777803421020508,0.05365420877933502,-0.017899205908179283,-0.02986431121826172,0.9866886982596282,0.00362496835293909,-0.10534082865290646,0.12383738931132794
1728333115172580600,1.31558056640625,0.6454828977584839,-0.2842164635658264,0.9172723293304443,-0.2113434076309204,0.014798794873058796,-0.9772998094558716,0.04340521991252899,0.013918273150920868,-0.05857354402542114,0.985949107788938,0.006373075355862688,-0.10634597012942415,0.12866426010473714
1728333115182611700,1.32561181640625,0.7183632254600525,-0.2647381126880646,0.9376340508460999,-0.2138451337814331,0.010058433748781681,-0.9768158197402954,0.03695005178451538,0.05283832922577858,-0.07797849178314209,0.9851697448174341,0.009439469218605858,-0.10725204345372197,0.1335983524955821
1728333115192642800,1.335642822265625,0.7815249562263489,-0.259326696395874,0.9684561491012573,-0.21621336042881012,0.004729506094008684,-0.9763346910476685,0.0374719500541687,0.08180311322212219,-0.08225905895233154,0.984344049369383,0.012816963595605808,-0.10802028741388565,0.1386874189655586
1728333115202674000,1.345673828125,0.8706895112991333,-0.27656659483909607,1.0052964687347412,-0.21872229874134064,-0.0012363465502858162,-0.9757863879203796,0.03615093231201172,0.08830302208662033,-0.06196391582489014,0.9834442227666562,0.016554349050102925,-0.10877854221406028,0.14398157336264508
1728333115212705000,1.355705078125,0.9304050207138062,-0.26418450474739075,1.0264915227890015,-0.2213330864906311,-0.007919377647340298,-0.9751660823822021,0.03119337558746338,0.07435616850852966,-0.07047289609909058,0.9824677650804542,0.020688038954448096,-0.109494063344136,0.14946602629813255
1728333115222736000,1.36573583984375,0.9082604050636292,-0.2377818524837494,1.0277562141418457,-0.22376400232315063,-0.014710523188114166,-0.9745323061943054,0.020974740386009216,0.06926072388887405,-0.07196122407913208,0.9814493534431992,0.02487669395496182,-0.11006808685513432,0.15499455167351892
1728333115232767000,1.37576708984375,0.8859644532203674,-0.2526335120201111,1.0433293581008911,-0.2262127548456192,-0.021184630692005157,-0.973847508430481,0.023392975330352783,0.08363887667655945,-0.05044448375701904,0.9803833745377769,0.028920523540007136,-0.11063381145956003,0.16053758673837892
1728333115242797800,1.3857978515625,0.8692783713340759,-0.26572903990745544,1.0766392946243286,-0.22891992330551147,-0.02741280011832714,-0.9730591773986816,0.040672287344932556,0.09670299291610718,-0.060922086238861084,0.9792391336717011,0.03288738408834518,-0.11130506793882752,0.1661938113988965
1728333115252829200,1.3958291015625,0.8353883028030396,-0.2594335973262787,1.1023555994033813,-0.23171111941337585,-0.03327706456184387,-0.9722152948379517,0.05625033378601074,0.11588817089796066,-0.07247769832611084,0.9780248848196272,0.03670697799530419,-0.11200421885694167,0.17197392674464013
1728333115262860000,1.405860107421875,0.8427320718765259,-0.2562595307826996,1.137925624847412,-0.23453852534294128,-0.038850247859954834,-0.9713301658630371,0.07052186131477356,0.13224932551383972,-0.06646579504013062,0.9767407578415435,0.04041294782502201,-0.1127018070361393,0.1778840160272478
1728333115272891100,1.41589111328125,0.8496166467666626,-0.24275673925876617,1.1509894132614136,-0.23735174536705017,-0.04447246715426445,-0.9704052805900574,0.09562817215919495,0.13544538617134094,-0.09430724382400513,0.9753844133391635,0.04416979258625818,-0.11334197297117495,0.18392386812587966
1728333115282922000,1.425921875,0.7946671843528748,-0.24580018222332,1.1307315826416016,-0.24014973640441895,-0.04981861263513565,-0.969456672668457,0.11547020077705383,0.15106070041656494,-0.10903453826904297,0.9739894555581313,0.04779701338375618,-0.11396102766372387,0.18992878757815904
1728333115292953000,1.435953125,0.6762452125549316,-0.2734954357147217,1.0898911952972412,-0.24309854209423065,-0.05435304716229439,-0.9684776067733765,0.13625654578208923,0.17807132005691528,-0.11401140689849854,0.9725945674418638,0.05102316001450555,-0.11470763232293218,0.1957003510759928
1728333115302984000,1.44598388671875,0.5873871445655823,-0.3351522386074066,1.0753990411758423,-0.24655169248580933,-0.05789078027009964,-0.9673990607261658,0.1580049693584442,0.19875994324684143,-0.10781151056289673,0.9711836203640819,0.05379759756723258,-0.11578554464952409,0.20125098503734037
1728333115313015000,1.45601513671875,0.4974687099456787,-0.3741009831428528,1.0678908824920654,-0.25052571296691895,-0.060576897114515305,-0.9662128686904907,0.16785362362861633,0.1978602409362793,-0.08836781978607178,0.9697347096832737,0.05621206505461672,-0.11719116208340574,0.20669086144828627
1728333115323046000,1.4660458984375,0.4581691324710846,-0.39783909916877747,1.0499744415283203,-0.25479182600975037,-0.06246735155582428,-0.9649761319160461,0.15211546421051025,0.20124605298042297,-0.05579107999801636,0.9682680880422374,0.05827128216751373,-0.11881238643991499,0.2120026973718482
1728333115333077000,1.476076904296875,0.5082890391349792,-0.40742355585098267,1.0263333320617676,-0.2592121958732605,-0.06453339010477066,-0.9636620283126831,0.12131857872009277,0.20442599058151245,-0.0633155107498169,0.966775556424043,0.06044337967416206,-0.12048065699361145,0.21720074492708147
1728333115343107800,1.48610791015625,0.5457956790924072,-0.3790646195411682,0.9950659275054932,-0.2635742127895355,-0.06704684346914291,-0.9623062610626221,0.0869232714176178,0.2159421145915985,-0.05318140983581543,0.9652667613003602,0.06283845167206388,-0.1220581529950172,0.22229114584785992
1728333115353139000,1.496138916015625,0.619992733001709,-0.3434828817844391,0.9769535064697266,-0.2675957679748535,-0.07005898654460907,-0.9609808921813965,0.0504021942615509,0.23729532957077026,-0.038439273834228516,0.9637606116085928,0.06544642917798975,-0.1233949784499572,0.22727990429731765
1728333115363169800,1.506169677734375,0.7712624669075012,-0.3032700717449188,1.0034503936767578,-0.2712978422641754,-0.07414679229259491,-0.9596351981163025,0.028225362300872803,0.2245069146156311,-0.04120403528213501,0.9621958024681813,0.06857698144458266,-0.12441699974899821,0.23237249725580053
1728333115373201200,1.516201171875,0.8978986740112305,-0.26314395666122437,1.0286870002746582,-0.27468112111091614,-0.07948775589466095,-0.9582442045211792,0.010231107473373413,0.17848679423332214,-0.0378342866897583,0.9605345613179339,0.0723296509764822,-0.1250852153938351,0.23768797783724985
1728333115383232000,1.52623193359375,0.9525315165519714,-0.209281787276268,1.0317522287368774,-0.27767181396484375,-0.0856255516409874,-0.9568524956703186,-0.015541017055511475,0.12470332533121109,-0.013209760189056396,0.9588039030284438,0.07645629417859183,-0.12541212873269234,0.24314887145635397
1728333115393263000,1.53626318359375,0.8847010731697083,-0.14939448237419128,1.0217266082763672,-0.280181884765625,-0.09169311076402664,-0.9555577039718628,-0.03482046723365784,0.07440491765737534,0.009543299674987793,0.9570714813974656,0.08049114059545462,-0.12546846039489132,0.24858215191698174
1728333115403294200,1.546294189453125,0.7762511968612671,-0.12102654576301575,1.0187187194824219,-0.282293438911438,-0.09678637981414795,-0.954433262348175,-0.04465654492378235,0.029495127499103546,0.05302029848098755,0.9553745243251566,0.08398733006433773,-0.1254173389536626,0.25392155055012083
1728333115413325000,1.556324951171875,0.6839178204536438,-0.09828713536262512,1.0241750478744507,-0.2842376232147217,-0.10095784068107605,-0.9534235596656799,-0.047091662883758545,-0.016244910657405853,0.06516367197036743,0.9536849944164122,0.08700775803295269,-0.12537093026039595,0.2592233435741356
1728333115423356200,1.566356201171875,0.6333545446395874,-0.07819438725709915,1.0235273838043213,-0.28603389859199524,-0.10430827736854553,-0.95252525806427,-0.061256080865859985,-0.04045185446739197,0.08396446704864502,0.9520089958049371,0.0896010282289381,-0.1253356263382722,0.2644646871523265
1728333115433387000,1.576386962890625,0.7072452902793884,-0.014962954446673393,1.0439863204956055,-0.28750866651535034,-0.10770808905363083,-0.9517025351524353,-0.08121994137763977,-0.04933536797761917,0.1004452109336853,0.9503004054265272,0.09218552117879532,-0.12510218216082733,0.2697786298682449
1728333115443418000,1.586418212890625,0.8158957362174988,0.0937022715806961,1.0412606000900269,-0.28819066286087036,-0.11205428838729858,-0.9509941935539246,-0.10266315937042236,-0.034536898136138916,0.07469719648361206,0.9485414613939913,0.09513842578543569,-0.12430438199297704,0.27525656442533314
1728333115453449000,1.596448974609375,0.9342561960220337,0.16000060737133026,1.0087660551071167,-0.2880479395389557,-0.11744538694620132,-0.9503867626190186,-0.12985971570014954,0.03173677623271942,0.046364545822143555,0.9467768140789944,0.09847128206894828,-0.12292287908512467,0.2807258914289274
1728333115463480000,1.60647998046875,1.1304370164871216,0.18452240526676178,0.9877837896347046,-0.28750741481781006,-0.12442027032375336,-0.9496626257896423,-0.13850268721580505,0.09060679376125336,-0.001448214054107666,0.9449581772887886,0.10250183131683037,-0.12108700848277913,0.28615628001449045
1728333115473511000,1.616510986328125,1.3910582065582275,0.1801455020904541,1.027588129043579,-0.28701189160346985,-0.13356344401836395,-0.9485699534416199,-0.13350504636764526,0.09347860515117645,-0.03211241960525513,0.942952654443756,0.10760879406418852,-0.11889223970111103,0.2917623095383273
1728333115483542000,1.6265419921875,1.5703262090682983,0.24034695327281952,1.0608893632888794,-0.28641223907470703,-0.1447579711675644,-0.9471077919006348,-0.1346539855003357,0.04289029538631439,-0.047109127044677734,0.9407069016113774,0.1137273313539629,-0.11624198321242273,0.29769880124422643
1728333115493572900,1.63657275390625,1.5874985456466675,0.31045305728912354,1.0291767120361328,-0.28526341915130615,-0.15686313807964325,-0.9455256462097168,-0.16421467065811157,-0.01188381016254425,-0.028458118438720703,0.9383604583000272,0.1201900461149521,-0.11309965181154816,0.3037145867390417
1728333115503604000,1.64660400390625,1.549452304840088,0.3616192042827606,0.99889075756073,-0.2836587429046631,-0.1688777208328247,-0.9439375400543213,-0.19751188158988953,-0.06049239635467529,0.04693436622619629,0.936028534702101,0.1264855997368607,-0.10969335080044504,0.30954717958314987
1728333115513634800,1.656634765625,1.4788627624511719,0.46102914214134216,1.007779598236084,-0.28148534893989563,-0.18047985434532166,-0.9424399137496948,-0.20658227801322937,-0.12587086856365204,0.09336459636688232,0.9337004833774656,0.13244714241146535,-0.10600841553025406,0.3153149189466782
1728333115523666000,1.666666015625,1.364591121673584,0.6328623294830322,1.0193097591400146,-0.2781514823436737,-0.19114331901073456,-0.9413267374038696,-0.2109994888305664,-0.19592639803886414,0.15290510654449463,0.9314073849332432,0.1377220103833714,-0.10182968139390743,0.32116017141419145
1728333115533697000,1.676697021484375,1.2253371477127075,0.808012843132019,1.0408333539962769,-0.2732929587364197,-0.20062489807605743,-0.9407765865325928,-0.21764329075813293,-0.26983410120010376,0.21282553672790527,0.9291901104415364,0.14211458825643944,-0.09703165259198249,0.3270996492137099
1728333115543728000,1.68672802734375,0.9644932150840759,1.001304030418396,1.1382867097854614,-0.26696690917015076,-0.20819611847400665,-0.940947949886322,-0.21016010642051697,-0.34659820795059204,0.2748255133628845,0.9270225099290722,0.14528382046849694,-0.09175310238094458,0.3333218175633821
1728333115553759000,1.696759033203125,0.534267008304596,1.2014579772949219,1.226942777633667,-0.25897908210754395,-0.21226923167705536,-0.9422693848609924,-0.18676060438156128,-0.41627082228660583,0.34385019540786743,0.9249581874942459,0.1464205458258296,-0.08617611277083483,0.3399812885376631
1728333115563790000,1.7067900390625,0.15466636419296265,1.3846393823623657,1.2827469110488892,-0.24934658408164978,-0.21228638291358948,-0.9448601603507996,-0.17562589049339294,-0.471017450094223,0.38353514671325684,0.9230862872840785,0.14523294482888366,-0.08048165742547374,0.34690321817745523
1728333115573821200,1.7168212890625,-0.23286937177181244,1.619238018989563,1.2331434488296509,-0.23782242834568024,-0.20896302163600922,-0.9485647082328796,-0.16453655064105988,-0.488638311624527,0.31334125995635986,0.9214567223488218,0.14200221566276286,-0.0745186604476095,0.3538359749718694
1728333115583852000,1.72685205078125,-0.6085613965988159,1.7885690927505493,1.0698570013046265,-0.2237708568572998,-0.2021961510181427,-0.9534376263618469,-0.1708061248064041,-0.3699169158935547,0.24483472108840942,0.9203121933343804,0.13652133549532927,-0.06814035043498011,0.3602003427247581
1728333115593883100,1.736883056640625,-0.7214695811271667,1.8111308813095093,0.8978205919265747,-0.2084147185087204,-0.1936063915491104,-0.9586865305900574,-0.16313675045967102,-0.15020465850830078,0.18157166242599487,0.9195623319036514,0.1298083150681771,-0.06169711289300508,0.36571633223619676
1728333115603914000,1.7469140625,-0.5944202542304993,1.793079137802124,0.8167688846588135,-0.1926650106906891,-0.18543072044849396,-0.9635847806930542,-0.13724520802497864,0.11209696531295776,0.0704878568649292,0.9189582931215379,0.12313974124396346,-0.05517434907332098,0.37055123521117256
1728333115613945000,1.756945068359375,-0.12127906084060669,1.8846160173416138,0.922753095626831,-0.17648495733737946,-0.18025144934654236,-0.9676582217216492,-0.10226254165172577,0.31491023302078247,0.02326124906539917,0.9180468333285373,0.11778153551078362,-0.047941480113082954,0.3755253656482683
1728333115623976000,1.766975830078125,0.4142630398273468,2.0676097869873047,1.1482354402542114,-0.15916958451271057,-0.1801327019929886,-0.9706787467002869,-0.06916287541389465,0.3881099820137024,-0.004525721073150635,0.9164266554202216,0.11457631878962984,-0.03915209776096674,0.38144678796264236
1728333115634007000,1.777007080078125,0.7269451022148132,2.2537240982055664,1.388620376586914,-0.14033669233322144,-0.18406067788600922,-0.9728449583053589,-0.05081009864807129,0.30268245935440063,0.07355296611785889,0.9139972558899878,0.11291798277993723,-0.02875857521337093,0.388628000461899
1728333115644038000,1.787037841796875,0.7468613982200623,2.3115835189819336,1.4676100015640259,-0.12066388875246048,-0.18950320780277252,-0.9744376540184021,-0.040301017463207245,0.04195070266723633,0.2122306227684021,0.9110033573559836,0.1116740072098841,-0.01760912945207925,0.3966005099598315
1728333115654069000,1.797069091796875,0.3395897448062897,2.3672823905944824,1.328375220298767,-0.10056472569704056,-0.19381161034107208,-0.9758707880973816,-0.052679240703582764,-0.2546289563179016,0.2958323359489441,0.9079670278276001,0.1096437664196733,-0.006545953688271152,0.40439008010686683
1728333115664099800,1.807099853515625,-0.6750168204307556,2.497864246368408,1.1108367443084717,-0.07899810373783112,-0.19114211201667786,-0.9783782362937927,-0.05421105772256851,-0.36388111114501953,0.341156005859375,0.905586000350476,0.10391406684272007,0.003569682997333469,0.4112215970288349
1728333115674131000,1.817130859375,-1.382729172706604,2.5033516883850098,0.9724498391151428,-0.056359101086854935,-0.18009285628795624,-0.9820337295532227,0.010643836110830307,-0.28861141204833984,0.43650150299072266,0.9038357021743185,0.09398941782750378,0.012211937393918028,0.417250549726434
1728333115684162000,1.827162109375,-1.7974356412887573,2.446683645248413,0.8170120120048523,-0.03338416665792465,-0.1638558804988861,-0.9859192371368408,0.10400190949440002,-0.07708041369915009,0.2819855809211731,0.9024742300216712,0.08156436605800237,0.019688385734293185,0.4224926412337864
1728333115694193200,1.837193115234375,-1.773996114730835,2.305828332901001,0.9055773019790649,-0.011089236475527287,-0.14569009840488434,-0.9892681241035461,0.17332075536251068,0.22544775903224945,0.19846612215042114,0.9010867560132175,0.06837640968683395,0.02627931968853522,0.42740713246882256
1728333115704224000,1.84722412109375,-1.3507158756256104,2.0276002883911133,1.1845003366470337,0.009080905467271805,-0.13004885613918304,-0.9914659857749939,0.28262144327163696,0.40324220061302185,0.11596250534057617,0.8990171418275772,0.056734075595108,0.03237658771281298,0.4330141000629671
1728333115714255000,1.857255126953125,-0.9932804703712463,1.73404061794281,1.3418824672698975,0.026270084083080292,-0.11886105686426163,-0.9925633072853088,0.3305720388889313,0.37262994050979614,0.05724531412124634,0.8961930526177705,0.047666218170419855,0.03802991696004477,0.43945389634533116
1728333115724286000,1.867285888671875,-0.9682101011276245,1.5121022462844849,1.3776987791061401,0.0407780222594738,-0.10977617651224136,-0.993119478225708,0.25669214129447937,0.18623796105384827,0.10850650072097778,0.8930458389826956,0.04005930795141533,0.04284274573491092,0.4461266277390974
1728333115734317000,1.877317138671875,-1.276394009590149,1.4294593334197998,1.3910918235778809,0.05389811471104622,-0.09939087927341461,-0.9935876727104187,0.14969998598098755,-0.07690919190645218,0.1935846209526062,0.8897972763602943,0.03211850741642903,0.04663227481694981,0.45282969324488204
1728333115744348200,1.88734814453125,-1.77069091796875,1.3673402070999146,1.4366129636764526,0.06651459634304047,-0.08522989600896835,-0.9941386580467224,0.07374425232410431,-0.28967857360839844,0.2642803192138672,0.8864258320979934,0.02255290820029023,0.0492141960171996,0.4596939474466875
1728333115754379000,1.89737890625,-2.3438236713409424,1.3381284475326538,1.4029548168182373,0.07887063175439835,-0.06581208854913712,-0.9947100877761841,0.047197550535202026,-0.3797750771045685,0.29562872648239136,0.8829382543227833,0.010679206648881764,0.05030806654224663,0.46666398268219683
1728333115764410000,1.90741015625,-2.890143394470215,1.3197721242904663,1.2440211772918701,0.09149302542209625,-0.040802277624607086,-0.9949694275856018,0.03744381666183472,-0.3309323489665985,0.2700548768043518,0.8795130764864008,-0.00371464350001827,0.05001477776145028,0.4732244795746691
1728333115774441000,1.91744091796875,-3.1380202770233154,1.1327420473098755,1.1363575458526611,0.10353217273950577,-0.01161374431103468,-0.9945582747459412,0.0578906312584877,-0.11500370502471924,0.24483299255371094,0.8762094654835336,-0.01976684501639419,0.04827133954394986,0.47909938059474294
1728333115784472000,1.92747216796875,-2.9231083393096924,0.8118785619735718,1.1407674551010132,0.11333701014518738,0.017590489238500595,-0.9934008717536926,0.1382042020559311,0.1454191356897354,0.19205504655838013,0.8728136157304498,-0.03525799534888508,0.04534794850289986,0.4846616899961994
1728333115794503000,1.9375029296875,-2.430718421936035,0.4698687791824341,1.227381706237793,0.120042584836483,0.04296407103538513,-0.9918386340141296,0.18318013846874237,0.34416663646698,0.10667634010314941,0.8692255640053089,-0.04829655176860914,0.041810629243753734,0.49027155131041517
1728333115804534000,1.947533935546875,-1.8979125022888184,0.26838213205337524,1.2817403078079224,0.12436414510011673,0.06286874413490295,-0.9902429580688477,0.15870171785354614,0.43977099657058716,0.057290077209472656,0.8654577847135078,-0.05833756644280791,0.038409077009212464,0.49608923414031214
1728333115814564900,1.95756494140625,-1.443725347518921,0.21236468851566315,1.2917894124984741,0.12760789692401886,0.07767295092344284,-0.9887785911560059,0.05030965805053711,0.42811012268066406,0.10242605209350586,0.8616776268948801,-0.0658570568012275,0.0356867170243855,0.5018976120446336
1728333115824596000,1.967595947265625,-1.3830242156982422,0.17376743257045746,1.2902182340621948,0.13070082664489746,0.0896783322095871,-0.9873576164245605,-0.05687873065471649,0.3585333228111267,0.19068098068237305,0.8578876058034033,-0.0720977891448646,0.03351258280883032,0.507649174265992
1728333115834626800,1.977626708984375,-1.6333250999450684,0.04914402216672897,1.2197551727294922,0.13310782611370087,0.1028570756316185,-0.9857498407363892,-0.1124168336391449,0.2960381805896759,0.29376375675201416,0.8540726639634245,-0.0786434455964295,0.03066420518433556,0.5132589561893613
1728333115844658200,1.987658203125,-1.8520714044570923,-0.12373603880405426,1.075761079788208,0.13406603038311005,0.11863258481025696,-0.9838458299636841,-0.09738384187221527,0.23660726845264435,0.24211609363555908,0.850368952930861,-0.08588805412678424,0.02646370282421526,0.5184551566536609
1728333115854689000,1.99768896484375,-2.1636860370635986,-0.27364909648895264,0.8354219198226929,0.1332443356513977,0.1370096057653427,-0.9815672636032104,-0.10402369499206543,0.1970357745885849,0.12614434957504272,0.8469937549272988,-0.09372114367929979,0.020801681579092623,0.5228625117417002
1728333115864720100,2.00772021484375,-2.5379579067230225,-0.3364172577857971,0.64287269115448,0.13133659958839417,0.15921837091445923,-0.9784682989120483,-0.1779216080904007,0.21721595525741577,0.10543668270111084,0.8439308231106573,-0.10285463077321602,0.013666549880712057,0.5263222170690374
1728333115874751000,2.0177509765625,-2.725827932357788,-0.3186212182044983,0.5279594659805298,0.1290675401687622,0.18430466949939728,-0.9743579030036926,-0.23322397470474243,0.22557689249515533,0.1052631139755249,0.8409727172158894,-0.11309219276464874,0.0055851956964504505,0.5290972789807845
1728333115884782000,2.027781982421875,-2.9147965908050537,-0.20616194605827332,0.44737961888313293,0.1273801028728485,0.21129746735095978,-0.9690859913825989,-0.27049219608306885,0.20871594548225403,0.06153899431228638,0.8380129114197326,-0.12429460122286914,-0.0028011644466909426,0.5312979127234642
1728333115894813200,2.037813232421875,-2.998157262802124,-0.051189668476581573,0.37634992599487305,0.12702327966690063,0.2395297735929489,-0.962543785572052,-0.30776357650756836,0.1894558072090149,0.04765737056732178,0.8349739340309537,-0.13640697935439017,-0.011010499285265827,0.5330014739207519
1728333115904844000,2.047843994140625,-2.842822313308716,0.09624458104372025,0.3002777695655823,0.12818221747875214,0.2672126591205597,-0.9550741910934448,-0.34305644035339355,0.1607811152935028,0.0483664870262146,0.8319846750474426,-0.1487350363563274,-0.018460479580148823,0.5341709936442198
1728333115914875100,2.057875244140625,-2.712681531906128,0.364641934633255,0.13582120835781097,0.13103903830051422,0.29372796416282654,-0.946864664554596,-0.34556227922439575,0.16084662079811096,0.05866581201553345,0.8292580830685135,-0.161092655797913,-0.02483609555309528,0.5345684530060968
1728333115924906000,2.067906005859375,-2.141421318054199,0.37462490797042847,0.12736886739730835,0.13505764305591583,0.3167433440685272,-0.9388467073440552,-0.28996479511260986,0.20158249139785767,0.08429348468780518,0.8269284852181409,-0.1723202572720515,-0.029704939356341272,0.5344274780330441
1728333115934937000,2.07793701171875,-1.2529104948043823,0.36078977584838867,0.21280761063098907,0.13899719715118408,0.33257541060447693,-0.9327772259712219,-0.1255236119031906,0.26781216263771057,-0.0601731538772583,0.8250377729471857,-0.18040499815351058,-0.03264065074197939,0.5345104954802734
1728333115944968000,2.087968017578125,-0.2600269615650177,0.5516161322593689,0.35102832317352295,0.1440759301185608,0.33909860253334045,-0.9296528100967407,-0.021502003073692322,0.33320364356040955,-0.19633901119232178,0.8236741900898097,-0.18470119463162066,-0.032543459787476914,0.5351517650943866
1728333115954999000,2.0979990234375,0.5629305243492126,0.8804650902748108,0.4531693160533905,0.15215177834033966,0.3370305001735687,-0.9291180372238159,-0.020590439438819885,0.3521937429904938,-0.22050964832305908,0.8228453504285723,-0.1860456739905528,-0.02877494480261489,0.5361759769393549
1728333115965030000,2.10802978515625,1.2911103963851929,1.085316777229309,0.5004791021347046,0.16300709545612335,0.32751673460006714,-0.9306779503822327,-0.04859663546085358,0.29678136110305786,-0.19062936305999756,0.8225455770957381,-0.18490458169665328,-0.021709620345319414,0.5373620259894029
1728333115975061000,2.11806103515625,1.7976359128952026,1.2110893726348877,0.4238276779651642,0.17527411878108978,0.31212225556373596,-0.9337337613105774,-0.04465879499912262,0.20898064970970154,-0.1823703646659851,0.8228094780932066,-0.18160771163788028,-0.012319547049906263,0.5383785839407236
1728333115985091800,2.128091796875,2.173546075820923,1.314438819885254,0.331410676240921,0.18820664286613464,0.29284945130348206,-0.9374526739120483,-0.043766871094703674,0.14333829283714294,-0.03506624698638916,0.8236334400861167,-0.1768377898214642,-0.0014386494721917902,0.538845454462061
1728333115995123000,2.138123046875,2.654198408126831,1.5079193115234375,0.3438846468925476,0.20244908332824707,0.26944807171821594,-0.9414946436882019,-0.019923359155654907,0.07964250445365906,0.1772887110710144,0.8248073705775761,-0.17066625066899035,0.01121258976809795,0.5389250518850743
1728333116005154000,2.148154052734375,2.852935791015625,1.614466905593872,0.5385135412216187,0.21845394372940063,0.24219071865081787,-0.9453155994415283,0.017920032143592834,0.026882752776145935,0.4098389148712158,0.8258254609837291,-0.1633586508061852,0.02561563242825851,0.5391384339388606
1728333116015185200,2.15818505859375,2.7747886180877686,1.559561848640442,0.8767946362495422,0.23520433902740479,0.21370914578437805,-0.9481599926948547,0.10445638000965118,-0.030420586466789246,0.6295412182807922,0.8259154252841341,-0.15583466001654134,0.040442232550526175,0.540318213936154
1728333116025216000,2.168216064453125,2.6393344402313232,1.3378177881240845,0.9217091202735901,0.2510495185852051,0.18569357693195343,-0.9499958157539368,0.22769507765769958,-0.16297326982021332,0.5760639905929565,0.8250876755644652,-0.14840533471507608,0.05457057947490363,0.54242820830539
1728333116035247000,2.1782470703125,2.4321625232696533,1.0221070051193237,0.516142725944519,0.26331043243408203,0.15952366590499878,-0.9514303803443909,0.22503194212913513,-0.3093954920768738,0.41113197803497314,0.8245843394211089,-0.14079049143040084,0.06680447625148798,0.54385275772267
1728333116045278000,2.18827783203125,1.6594761610031128,0.971204400062561,-0.07693500816822052,0.27330121397972107,0.13846242427825928,-0.9519110321998596,0.1565236747264862,-0.32613030076026917,0.1744147539138794,0.8250842595587546,-0.13460238847796438,0.07698492705182075,0.5433154495203188
1728333116055309000,2.19830908203125,0.21822769939899445,1.2917355298995972,-0.001025858335196972,0.2837946116924286,0.1306762993335724,-0.9499391317367554,0.08400329947471619,-0.16355900466442108,0.13205277919769287,0.8254781263220204,-0.13417469790233247,0.08383071061453118,0.5418077422952908
1728333116065340200,2.208340087890625,0.0032520112581551075,0.54753577709198,0.21534480154514313,0.2934454381465912,0.12895791232585907,-0.9472379088401794,0.18751168251037598,-0.14485760033130646,-0.028027594089508057,0.8247313678736703,-0.13625174210725602,0.08841104236114136,0.5416984657973618
1728333116075371000,2.21837109375,-1.2182427644729614,0.4689975380897522,-0.060334187000989914,0.2976011633872986,0.13441723585128784,-0.9451801776885986,0.09776937961578369,-0.05366775393486023,-0.1448313593864441,0.8238912963251126,-0.1398600749343953,0.08859497426842004,0.5420271477907734
1728333116085402000,2.228402099609375,-1.471655011177063,0.17821934819221497,-0.04534458369016647,0.30109697580337524,0.14816415309906006,-0.9420127272605896,-0.14773082733154297,0.33535635471343994,-0.013599395751953125,0.8229200501846446,-0.14682411889825028,0.08623402428218108,0.5420416487179816
1728333116095433000,2.238432861328125,-0.6103597283363342,-0.1984459012746811,0.15801359713077545,0.30079078674316406,0.158010333776474,-0.9405092597007751,-0.2230624258518219,0.4375859498977661,-0.19468361139297485,0.8219598902658337,-0.1510679218831221,0.08320971657878849,0.5428044362270135
1728333116105464000,2.248464111328125,0.12159523367881775,0.03922736644744873,-0.06067640334367752,0.30001989006996155,0.15997041761875153,-0.9404241442680359,-0.4129806458950043,0.4729488790035248,-0.2707574963569641,0.8216315129083235,-0.15173289561579334,0.08224999510720475,0.5432622973665093
1728333116115495000,2.258494873046875,0.6280171275138855,0.46445590257644653,-0.2500399351119995,0.30229344964027405,0.15662996470928192,-0.9402583241462708,-0.6748977303504944,0.5509811043739319,-0.11952555179595947,0.8222506685089568,-0.1508598818802442,0.0843334139707591,0.5422483374633852
1728333116125526000,2.268526123046875,0.7505643963813782,0.8322377800941467,-0.173193097114563,0.30817821621894836,0.15074515342712402,-0.9393093585968018,-0.6770135760307312,0.5882532596588135,0.03646212816238403,0.8231562295974925,-0.1498660709504797,0.08880018651087074,0.5404337023354724
1728333116135556900,2.278556884765625,0.7832323312759399,0.6775144934654236,0.080268993973732,0.31553855538368225,0.14365702867507935,-0.9379755258560181,-0.4997425377368927,0.5049483180046082,0.046618103981018066,0.8234475097550559,-0.14885978541596617,0.0940903608093295,0.5393719877665063
1728333116145588000,2.288587890625,0.9683366417884827,0.42610856890678406,-0.01807621493935585,0.32071995735168457,0.13527901470661163,-0.9374637603759766,-0.3201705515384674,0.24411550164222717,-0.17732805013656616,0.823698871386612,-0.14669548865145352,0.09873473253836806,0.5387506308490215
1728333116155618800,2.298618896484375,1.174450159072876,0.13787490129470825,-0.20849435031414032,0.3233109414577484,0.12561465799808502,-0.9379184246063232,-0.27994540333747864,-0.056324511766433716,-0.5311519503593445,0.8246529555884726,-0.143126911370496,0.1027398005147923,0.5375005753245664
1728333116165650200,2.308650146484375,1.5378235578536987,-0.2722420394420624,-0.28644776344299316,0.32238107919692993,0.11378476768732071,-0.9397464990615845,-0.18834781646728516,-0.2620697021484375,-0.6768000721931458,0.8263086941631435,-0.13752043886586596,0.10590033950053397,0.5358051722835709
1728333116175681000,2.318680908203125,1.7483080625534058,-0.4449227452278137,-0.3857437074184418,0.318332314491272,0.0990172028541565,-0.9427937865257263,-0.09488251805305481,-0.2905455529689789,-0.6114053726196289,0.8285349337906057,-0.12968969677650033,0.10855266936518537,0.5337855044507727
1728333116185712000,2.328712158203125,1.5013782978057861,-0.025947002694010735,-0.4555046856403351,0.31541210412979126,0.0848546028137207,-0.9451533555984497,-0.0519079864025116,-0.1403203159570694,-0.2520206570625305,0.8308653871002774,-0.12239099307662551,0.11155156993318788,0.5312622679623311
1728333116195743000,2.338742919921875,0.9998952150344849,0.41723868250846863,-0.44501423835754395,0.31711962819099426,0.07418331503868103,-0.9454797506332397,0.1445961892604828,-0.002116084098815918,0.12368720769882202,0.8326942040397655,-0.11790620999100909,0.11557784589735844,0.5285455699558543
1728333116205774000,2.348774169921875,0.2228834331035614,0.2840857207775116,-0.46438953280448914,0.32049107551574707,0.06989967077970505,-0.9446690082550049,0.5365952253341675,0.07165610045194626,0.2758610248565674,0.8340488805994192,-0.11666995570763772,0.1185479564265478,0.5260201289087787
1728333116215805000,2.358804931640625,-0.07938268035650253,-0.43050989508628845,-0.15296877920627594,0.31979620456695557,0.07063642889261246,-0.9448496699333191,0.8872808814048767,0.13607436418533325,0.1912485957145691,0.8349754730955394,-0.11659289068847029,0.11824241837278301,0.5246339634402847
1728333116225836000,2.3688359375,-0.11133808642625809,-1.0743625164031982,0.18917231261730194,0.3124198913574219,0.07152658700942993,-0.9472474455833435,0.9392129182815552,0.18002977967262268,-0.11113262176513672,0.8352535049123877,-0.11496611974203641,0.11471293333319948,0.525333632880535
1728333116235867100,2.3788671875,0.13460777699947357,-1.282097339630127,-0.048914019018411636,0.30103248357772827,0.07116071879863739,-0.9509550929069519,0.441750168800354,0.17818312346935272,-0.2665131092071533,0.8356327740215483,-0.11171752836932462,0.10973444104469361,0.5264934729531933
1728333116245898000,2.38889794921875,0.13080957531929016,-0.8846824169158936,-0.6252551078796387,0.28992176055908203,0.07069677859544754,-0.9544355869293213,-0.30232706665992737,0.06159690022468567,-0.28697365522384644,0.8372754908978686,-0.10824447790882231,0.10519185686712673,0.5255355309985658
1728333116255929900,2.398929931640625,0.06838987022638321,-0.22462062537670135,-0.5162156820297241,0.2844829559326172,0.07156199216842651,-0.9560064673423767,-0.7048320174217224,-0.013380244374275208,-0.04252868890762329,0.839216786323776,-0.10679521024750735,0.10291530205084219,0.5231810779515251
1728333116265961000,2.4089609375,-0.23432712256908417,0.033588655292987823,-0.1999320238828659,0.2833521068096161,0.07309986650943756,-0.9562259316444397,-0.4889489412307739,-0.008616246283054352,0.1559177041053772,0.8401488192986741,-0.10697361389375476,0.10219437319204354,0.521788240786606
1728333116275991800,2.41899169921875,-0.5938067436218262,-0.027468839660286903,-0.12894174456596375,0.2836013734340668,0.07765896618366241,-0.9557925462722778,-0.1300826072692871,0.006844192743301392,0.36607086658477783,0.8402773859142947,-0.1089672164534466,0.1011428732152444,0.5213734249399958
1728333116286023000,2.42902294921875,-0.7720015048980713,-0.350891649723053,-0.2507147789001465,0.28158891201019287,0.08472136408090591,-0.9557875990867615,0.1619231104850769,-0.0984542965888977,0.20780181884765625,0.840488958237532,-0.11142499480883965,0.09844113117731777,0.5210301159675698
1728333116296053800,2.4390537109375,-1.0164109468460083,-0.543444037437439,-0.27510616183280945,0.2769610583782196,0.0940704196691513,-0.9562653303146362,0.31254708766937256,-0.164825439453125,-0.06547844409942627,0.8409245320771926,-0.1141357819388285,0.09402324454976538,0.5205560496098505
1728333116306084900,2.4490849609375,-1.106512427330017,-0.6153947710990906,-0.17184633016586304,0.27114883065223694,0.10504333674907684,-0.9567884802818298,0.2815703749656677,-0.06880372762680054,-0.1857895851135254,0.8411449213327198,-0.11727195322344128,0.0886173943283427,0.5204513026995292
1728333116316116000,2.459115966796875,-0.8803319931030273,-0.5562683343887329,-0.15983015298843384,0.2652404010295868,0.11513418704271317,-0.9572834968566895,0.10467851161956787,0.06719306111335754,-0.32570594549179077,0.8412172517786799,-0.12002839716149759,0.08337532299228693,0.5205720913953197
1728333116326146800,2.469146728515625,-0.5231298208236694,-0.40167033672332764,-0.1464000940322876,0.26046934723854065,0.1223081648349762,-0.957703709602356,-0.10141164064407349,0.1606508046388626,-0.43337899446487427,0.841394581968144,-0.12181639847759422,0.07942856775607947,0.5204874987391085
1728333116336178000,2.479177978515625,-0.42688292264938354,-0.33263668417930603,-0.15763889253139496,0.25678613781929016,0.12697891891002655,-0.9580904245376587,-0.143199622631073,0.19147199392318726,-0.3745969533920288,0.8416528271460667,-0.12280666380086636,0.0766375345573807,0.5202556899664547
1728333116346208800,2.489208740234375,-0.5367652773857117,-0.3522055745124817,-0.14278379082679749,0.2533941864967346,0.13196717202663422,-0.958319365978241,-0.07814690470695496,0.1710876226425171,-0.07270169258117676,0.8418828644776282,-0.12401662148218455,0.07389303452471238,0.5199933272969395
1728333116356240000,2.499239990234375,-0.699110746383667,-0.5204907059669495,-0.10260148346424103,0.2490098625421524,0.13819487392902374,-0.9585907459259033,0.006376579403877258,0.062122493982315063,0.2132294774055481,0.841966324208576,-0.1255176445647132,0.070355778626423,0.5199885019015309
1728333116366270700,2.509270751953125,-0.8368869423866272,-0.5176103115081787,-0.12941844761371613,0.2437475323677063,0.14586254954338074,-0.9588072299957275,0.045604974031448364,-0.06419751048088074,0.27156662940979004,0.8419559647484871,-0.12741693669934054,0.06604028902453739,0.5201094397758066
1728333116376302000,2.519302001953125,-0.9431712627410889,-0.4623510539531708,-0.20330464839935303,0.2388228327035904,0.1548101305961609,-0.9586435556411743,0.020591914653778076,-0.12619993090629578,0.2322184443473816,0.8419612153365907,-0.12995590908379154,0.06156039031178778,0.5200221787313367
1728333116386333000,2.5293330078125,-1.0482895374298096,-0.4441211521625519,-0.28855273127555847,0.23405887186527252,0.1649710237979889,-0.9581236839294434,-0.010059773921966553,-0.12487095594406128,0.15490108728408813,0.8420825112685383,-0.1330510965407783,0.05688195013208667,0.5195758715731205
1728333116396364000,2.539364013671875,-1.0004572868347168,-0.4483624994754791,-0.3150453269481659,0.22926419973373413,0.1756630837917328,-0.957382082939148,-0.025620341300964355,-0.06404505670070648,0.06245410442352295,0.8423120374372202,-0.13636377869921448,0.05209501948332023,0.518846281252172
1728333116406395000,2.549394775390625,-0.9987834095954895,-0.49023735523223877,-0.2202005535364151,0.22430776059627533,0.18570458889007568,-0.956660807132721,-0.02350202202796936,0.0041147321462631226,-0.014301717281341553,0.842455866374276,-0.1393694546574623,0.04738949560482452,0.5182650684830653
1728333116416426000,2.559426025390625,-1.1303720474243164,-0.5246142148971558,-0.1909846067428589,0.21900606155395508,0.19637104868888855,-0.9557587504386902,0.0012393742799758911,0.03148844838142395,-0.059103310108184814,0.8423337936346069,-0.14258469430531398,0.042311177097443545,0.5180282241480898
1728333116426456800,2.569456787109375,-1.179548740386963,-0.5168255567550659,-0.24035614728927612,0.2136065810918808,0.20790299773216248,-0.954541027545929,0.0005658268928527832,0.021833300590515137,-0.08990776538848877,0.8421581577340945,-0.1461605932189198,0.03696711816687424,0.5177259583316602
1728333116436488000,2.579488037109375,-1.281772494316101,-0.4693973660469055,-0.2781458795070648,0.20821057260036469,0.22025489807128906,-0.9529617428779602,0.004603847861289978,0.009786590933799744,-0.04076683521270752,0.8420110093256091,-0.15010230530239818,0.031439027091785296,0.5172024252507137
1728333116446518800,2.589518798828125,-0.9635789394378662,-0.35157740116119385,-0.2966407537460327,0.2036772519350052,0.23188118636608124,-0.9511817693710327,0.013943672180175781,0.020117715001106262,0.022577643394470215,0.8419289551797483,-0.1539690950575957,0.026507461453687434,0.5164752621071249
1728333116456550000,2.5995498046875,-0.5734687447547913,-0.3918244242668152,-0.3256617486476898,0.19951115548610687,0.2396872639656067,-0.9501290917396545,-0.025179430842399597,0.03410118818283081,0.07120758295059204,0.8421939575041849,-0.15625512533701583,0.022798734141598175,0.5155326685972239
1728333116466581000,2.6095810546875,-0.4267869293689728,-0.49093884229660034,-0.3280484676361084,0.19442953169345856,0.2450680434703827,-0.9498099088668823,-0.05807691812515259,0.07922700047492981,0.20457065105438232,0.8427047654957152,-0.15722671044570127,0.01936027052599847,0.5145421689775265
1728333116476611800,2.61961181640625,-0.27781370282173157,-0.5967976450920105,-0.305698424577713,0.18854010105133057,0.24896961450576782,-0.9499825239181519,-0.0315270870923996,0.10022777318954468,0.11476218700408936,0.8432908139137836,-0.15733487894243653,0.015952517543358653,0.5136651340744204
1728333116486643000,2.629642822265625,-0.3217847943305969,-0.6656708121299744,-0.29581382870674133,0.18162746727466583,0.25239846110343933,-0.9504243731498718,0.0020121484994888306,0.04829123616218567,-0.027038395404815674,0.843881930174068,-0.15696729877611934,0.012210032897281843,0.5129087904967354
1728333116496673800,2.639673828125,-0.40788453817367554,-0.7041201591491699,-0.2857356369495392,0.17441239953041077,0.25633877515792847,-0.9507211446762085,0.03708973526954651,-0.024512022733688354,-0.11049705743789673,0.8443704111614875,-0.1567561279305717,0.008181264448076504,0.5122490842965691
1728333116506705000,2.649704833984375,-0.6538030505180359,-0.6736387610435486,-0.3974997103214264,0.166850745677948,0.2618005573749542,-0.9505899548530579,0.02621878683567047,-0.07372075319290161,-0.14853107929229736,0.8448427489906171,-0.15713641932864914,0.003627810765016252,0.5114055960855912
1728333116516735700,2.65973583984375,-1.0077900886535645,-0.5803221464157104,-0.5022551417350769,0.15969029068946838,0.27066469192504883,-0.9493364095687866,-0.03644496202468872,-0.025593280792236328,-0.04594862461090088,0.8453599280127156,-0.15915205657259146,-0.001552299232541035,0.5099361934008003
1728333116526767000,2.66976708984375,-0.7944999933242798,-0.5842671990394592,-0.42360880970954895,0.1529160887002945,0.2802157402038574,-0.9476791620254517,-0.01212318241596222,0.06702849268913269,0.040406882762908936,0.845795923772042,-0.161601348459356,-0.00673901322965588,0.5083984302186701
1728333116536798000,2.6797978515625,-0.5350803732872009,-0.6512212157249451,-0.40510571002960205,0.14587299525737762,0.28699997067451477,-0.9467587471008301,0.050950199365615845,0.09068557620048523,-0.004336833953857422,0.8462730950613587,-0.16276276596479416,-0.011354111154918443,0.5071502422696679
1728333116546829000,2.6898291015625,-0.42033180594444275,-0.6515748500823975,-0.46106189489364624,0.13839080929756165,0.29212942719459534,-0.9463130831718445,-0.0012599974870681763,0.10713204741477966,0.05645102262496948,0.8469385567295117,-0.1630858768128045,-0.015699313149647745,0.505817913751963
1728333116556860000,2.69985986328125,-0.3209080398082733,-0.6086161732673645,-0.4640078842639923,0.13100047409534454,0.29625260829925537,-0.946083128452301,-0.06702029705047607,0.08816206455230713,0.054267942905426025,0.8477610643943,-0.16300335410051525,-0.019706387032754253,0.5043242343566046
1728333116566891000,2.70989111328125,-0.3237312138080597,-0.532708466053009,-0.44147807359695435,0.12422998994588852,0.29984620213508606,-0.9458642601966858,-0.07308245450258255,0.03612181544303894,0.02147156000137329,0.8485813964769846,-0.16286383756561226,-0.023307670760026763,0.5028338461828954
1728333116576921900,2.719921875,-0.45594704151153564,-0.5211306214332581,-0.4310946762561798,0.11801309138536453,0.3040439486503601,-0.9453201293945312,-0.05111849308013916,0.015993863344192505,-0.005989015102386475,0.8492860334205722,-0.16315497636007795,-0.026839854169262687,0.5013715315994908
1728333116586953000,2.729952880859375,-0.49630749225616455,-0.6088655591011047,-0.4641634225845337,0.11128082126379013,0.309149831533432,-0.9444802403450012,-0.02131492644548416,0.018029093742370605,-0.011376023292541504,0.8499351375321879,-0.16373581567545922,-0.030829419899690624,0.4998504258627139
1728333116596983800,2.73998388671875,-0.5223497152328491,-0.6664862632751465,-0.5098859071731567,0.10367550700902939,0.314474880695343,-0.9435872435569763,0.006142079830169678,0.008141696453094482,-0.055115699768066406,0.8506239614686247,-0.16420875510861951,-0.03523986696562117,0.4982293969232614
1728333116607015000,2.750014892578125,-0.5283914804458618,-0.6711632013320923,-0.5498926639556885,0.09562106430530548,0.3199981153011322,-0.9425804018974304,0.013631932437419891,0.013162314891815186,-0.08639603853225708,0.8513952832647806,-0.16468378895085217,-0.039862857528451666,0.496403325125351
1728333116617045800,2.760045654296875,-0.34428131580352783,-0.694421112537384,-0.5212463736534119,0.08745351433753967,0.3247866630554199,-0.9417353868484497,0.0014747753739356995,0.021008014678955078,0.002938389778137207,0.8522073379980802,-0.16482079419019574,-0.04434427331129277,0.4945812427934461
1728333116627076900,2.770076904296875,-0.20301532745361328,-0.6720014214515686,-0.5260605812072754,0.07922481000423431,0.3276754915714264,-0.9414628148078918,-0.013108417391777039,0.0035928189754486084,0.037196457386016846,0.8531180084422842,-0.16409967886650542,-0.04837249062932587,0.49287024856361644
1728333116637108000,2.78010791015625,-0.2042853981256485,-0.528809666633606,-0.5259961485862732,0.0717194676399231,0.3299340307712555,-0.9412756562232971,-0.05108951777219772,0.033621907234191895,0.04038149118423462,0.8541185415603033,-0.16330487690388534,-0.05190071816091278,0.49103921771233455
1728333116647138800,2.790138916015625,-0.2011156976222992,-0.4561895430088043,-0.4177700877189636,0.06558514386415482,0.3321850001811981,-0.9409313201904297,-0.042818956077098846,0.05935552716255188,0.09766960144042969,0.854993328017164,-0.1628647195186868,-0.05485823389219871,0.4893386058836018
1728333116657170000,2.800169921875,-0.4008285403251648,-0.4650304317474365,-0.3464447855949402,0.059965599328279495,0.3351111114025116,-0.9402683973312378,0.010469041764736176,0.010698825120925903,0.1324223279953003,0.8555543388518217,-0.1628486153445911,-0.057845721657282696,0.4880174016070383
1728333116667200800,2.81020068359375,-0.5865164399147034,-0.4726713001728058,-0.367679238319397,0.05433783307671547,0.3401031792163849,-0.9388169646263123,0.0285785011947155,-0.0301055908203125,0.09772199392318726,0.8558585419319198,-0.16377436436054088,-0.06139615804845647,0.48673883103481713
1728333116677231900,2.82023193359375,-0.645422101020813,-0.4546603560447693,-0.39743900299072266,0.048642296344041824,0.34609055519104004,-0.9369392991065979,0.010928086936473846,-0.04556870460510254,0.0311318039894104,0.8561473123936142,-0.16516203477972713,-0.06520620068123466,0.4852644313876275
1728333116687263000,2.830262939453125,-0.6208797097206116,-0.443325400352478,-0.35203343629837036,0.04305785894393921,0.3523411750793457,-0.9348806142807007,-0.014493327587842941,0.008773356676101685,-0.009287476539611816,0.856366362949838,-0.16671059391096713,-0.06904545001254923,0.4838152632139233
1728333116697294000,2.840294189453125,-0.4461374282836914,-0.36956408619880676,-0.3378334641456604,0.037994325160980225,0.3575757145881653,-0.9331109523773193,-0.05244433879852295,0.08878964185714722,-0.046671152114868164,0.8566041263978298,-0.16793255321692005,-0.07240984379353083,0.48247783295050334
1728333116707325000,2.850324951171875,-0.1574116349220276,-0.29395216703414917,-0.32023900747299194,0.033676933497190475,0.36047109961509705,-0.9321622252464294,-0.0958869606256485,0.12080633640289307,-0.05494403839111328,0.8570296282102128,-0.16827816843557494,-0.07484206574225662,0.4812289958794138
1728333116717356000,2.86035595703125,-0.12287949025630951,-0.22686444222927094,-0.2646180987358093,0.030185304582118988,0.3616655766963959,-0.9318191409111023,-0.07945586740970612,0.09551829099655151,-0.045475780963897705,0.8575476585467234,-0.1680479440335456,-0.07648745372460397,0.4801266081712915
1728333116727387000,2.870386962890625,-0.13620488345623016,-0.28925272822380066,-0.21038226783275604,0.02699986658990383,0.3630152642726898,-0.9313919544219971,-0.016364431008696556,0.04491323232650757,0.02025914192199707,0.8578849115570532,-0.16794435893795392,-0.07809434620125348,0.4793009742058092
1728333116737418000,2.88041796875,-0.26669076085090637,-0.2856074273586273,-0.32827988266944885,0.023270538076758385,0.36480870842933655,-0.9307916760444641,0.01995767652988434,-0.015290886163711548,-0.007700145244598389,0.8582386775958802,-0.16792306464458287,-0.08003759324248691,0.47835374671539277
1728333116747448800,2.89044873046875,-0.4697105586528778,-0.20932677388191223,-0.3472602367401123,0.019656628370285034,0.3684224486351013,-0.9294506907463074,-0.03012409433722496,0.01863199472427368,0.0766826868057251,0.8586696459038818,-0.16881847534858854,-0.08231033265531142,0.4768772967393331
1728333116757480000,2.90047998046875,-0.30454927682876587,-0.21682330965995789,-0.18335118889808655,0.01675265282392502,0.37227103114128113,-0.9279728531837463,-0.0048202089965343475,0.07366710901260376,0.14855390787124634,0.8588657428172498,-0.16997170630818123,-0.08439895903706619,0.4757480101500306
1728333116767510800,2.9105107421875,-0.19623985886573792,-0.15925899147987366,-0.2050492912530899,0.014211274683475494,0.37444162368774414,-0.927141547203064,0.02302023582160473,0.06209704279899597,0.01024097204208374,0.8590138167491205,-0.1704086017193683,-0.08596580772259861,0.4750432393306146
1728333116777542000,2.9205419921875,-0.21180656552314758,-0.09956156462430954,-0.18794433772563934,0.01226767897605896,0.3764002323150635,-0.9263759255409241,-0.053786780685186386,0.07890680432319641,0.004302561283111572,0.8592898853556269,-0.17091859857563377,-0.0871714448646192,0.4741402095565347
1728333116787572700,2.93057275390625,-0.08617127686738968,-0.14502035081386566,-0.13313142955303192,0.010558754205703735,0.37785783410072327,-0.9258034229278564,-0.02484092116355896,0.07653367519378662,-0.047829389572143555,0.8594534889149867,-0.17122787712592744,-0.08820035992451838,0.4735413729128017
1728333116797603800,2.940603759765625,-0.12765267491340637,-0.12341304868459702,-0.21550911664962769,0.008606602437794209,0.37873679399490356,-0.9254644513130188,-0.003159155137836933,0.054399192333221436,-0.14698433876037598,0.8597275297803628,-0.17122109905821684,-0.089169076919864,0.47286468773217327
1728333116807635000,2.950635009765625,-0.15811417996883392,-0.13111160695552826,-0.17363038659095764,0.006679614540189505,0.3801276385784149,-0.9249099493026733,-0.05265427380800247,0.05444270372390747,-0.01928865909576416,0.8600292438949637,-0.17147488684087747,-0.09022965383607008,0.47202217047667927
1728333116817665800,2.960665771484375,-0.17499995231628418,-0.13283734023571014,-0.09236429631710052,0.004920841660350561,0.38175058364868164,-0.9242522716522217,-0.024528320878744125,0.04464101791381836,-0.00429081916809082,0.8601273446874688,-0.17184558808194306,-0.0913397691566626,0.4714945249017496
1728333116827697000,2.97069677734375,-0.04744452238082886,-0.11466867476701736,-0.045592259615659714,0.0035146514419466257,0.38277876377105713,-0.9238333702087402,-0.018803896382451057,0.03540363907814026,0.009877681732177734,0.860129000979069,-0.17199798545486553,-0.09219553829491782,0.47126936853822804
1728333116837727700,2.980727783203125,-0.012292659841477871,-0.0528620220720768,-0.05755571275949478,0.0025294723454862833,0.3830311596393585,-0.9237319827079773,-0.03251292183995247,0.04322311282157898,0.001094043254852295,0.8601865337744135,-0.1718897846147792,-0.0926710241298322,0.4711106214842552
1728333116847759000,2.990759033203125,0.0827995017170906,-0.022930920124053955,-0.0149712348356843,0.0020555921364575624,0.3827572464942932,-0.9238466620445251,-0.03339708596467972,0.08941072225570679,0.031253278255462646,0.8602967743568702,-0.17166281154903834,-0.09278223536183396,0.47097011346033896
1728333116857790000,3.0007900390625,0.19711250066757202,-0.048994213342666626,0.08616763353347778,0.0018832966452464461,0.38143736124038696,-0.9243927597999573,-0.002524095820263028,0.10495179891586304,0.03448498249053955,0.860323286591122,-0.17098737879149434,-0.09255772076190061,0.47121145077717186
1728333116867821000,3.010821044921875,0.18271011114120483,-0.053845103830099106,0.11993012577295303,0.0017896339995786548,0.3796047866344452,-0.9251469969749451,0.019999975338578224,0.08476594090461731,-0.055184364318847656,0.8601992027412423,-0.1700546011260765,-0.09223838967069016,0.47183790227982486
1728333116877852000,3.020851806640625,0.10766010731458664,-0.03251052275300026,0.06077705696225166,0.001696371124126017,0.3782457709312439,-0.9257037043571472,-0.01068373117595911,0.06210765242576599,-0.07849246263504028,0.8600943706026951,-0.16935534189605814,-0.09201591235558673,0.47232377151507465
1728333116887883000,3.030883056640625,0.03395872563123703,-0.04704594612121582,0.1003713309764862,0.00162406824529171,0.3776393234729767,-0.925951361656189,-0.055350206792354584,0.044662922620773315,0.001970648765563965,0.8599537801226855,-0.16901779182029492,-0.09196362456354389,0.47271059351992023
1728333116897913900,3.040913818359375,0.07364515215158463,0.0004957374185323715,0.18417036533355713,0.001672651618719101,0.37764522433280945,-0.9259488582611084,-0.05774863436818123,0.04004886746406555,0.0462644100189209,0.8596103604981741,-0.16896577903023657,-0.09206592388487578,0.4733334067740051
1728333116907945000,3.050945068359375,0.21862371265888214,0.07091200351715088,0.22786805033683777,0.002657658886164427,0.37674784660339355,-0.9263120293617249,-0.05951184034347534,0.04859092831611633,0.033520281314849854,0.8592193772064638,-0.16870027317769165,-0.0915652353496804,0.47423428821072133
1728333116917975800,3.060975830078125,0.2994391918182373,0.11191509664058685,0.2278376817703247,0.0038236835971474648,0.3751188814640045,-0.9269688129425049,-0.041619639843702316,0.061267197132110596,0.006970703601837158,0.858887518563967,-0.1681406764393489,-0.09079810855992947,0.47518069764467297
1728333116928007000,3.0710068359375,0.34443292021751404,0.10518476366996765,0.23452967405319214,0.00513064581900835,0.37392035126686096,-0.9274466037750244,0.004284098744392395,0.07339102029800415,-0.02027672529220581,0.8585244104659182,-0.16781910595462526,-0.09007459799593814,0.47608741286196105
1728333116938037800,3.081037841796875,0.3566112816333771,0.10708066076040268,0.25624561309814453,0.00693450728431344,0.3726252019405365,-0.9279560446739197,0.03374549746513367,0.05443781614303589,-0.024604380130767822,0.8581027000007067,-0.16756565282781008,-0.08912766057227008,0.4771141245987922
1728333116948068900,3.09106884765625,0.29125669598579407,0.13147926330566406,0.23253950476646423,0.009146797470748425,0.3707365095615387,-0.9286930561065674,0.011559437029063702,0.027014344930648804,-0.019747495651245117,0.8577215437051079,-0.1671403955456251,-0.08784965256464011,0.4781844515635635
1728333116958100000,3.101099853515625,0.3186712861061096,0.19873075187206268,0.21307365596294403,0.010975824669003487,0.36891841888427734,-0.9293969869613647,-0.03410807624459267,0.031441718339920044,-0.026779770851135254,0.8574598304066486,-0.16667917835149415,-0.08671537480889083,0.47902121618794336
1728333116968130800,3.111130859375,0.35658159852027893,0.25564858317375183,0.23535099625587463,0.01216958835721016,0.3672107756137848,-0.9300581216812134,-0.07144992053508759,0.05046805739402771,-0.030696213245391846,0.8572585917135721,-0.16612590039018274,-0.08586682766960615,0.47972573606718766
1728333116978162000,3.121161865234375,0.4261518716812134,0.30546751618385315,0.25014936923980713,0.015678714960813522,0.36347097158432007,-0.9314736127853394,-0.07807183265686035,0.06290540099143982,-0.021224141120910645,0.8571253995196637,-0.16519869423141326,-0.08350206301382054,0.4807005106655707
1728333116988192800,3.13119287109375,0.48442038893699646,0.350571870803833,0.23472462594509125,0.019667973741889,0.3591172993183136,-0.9330852031707764,-0.06021050363779068,0.04875016212463379,-0.06325268745422363,0.8570495042176783,-0.1641183505229781,-0.08076243826041833,0.481673097333977
1728333116998224000,3.141223876953125,0.5022808909416199,0.35259562730789185,0.20890793204307556,0.02376408316195011,0.3544257879257202,-0.9347821474075317,-0.04294431954622269,0.017720848321914673,-0.02676570415496826,0.8570664609345338,-0.16292950480054164,-0.07786464766278141,0.4825229140392835
1728333117008255000,3.1512548828125,0.5320004820823669,0.3848678469657898,0.20427057147026062,0.027945268899202347,0.34946465492248535,-0.936532735824585,-0.016134902834892273,-0.014412134885787964,0.02080702781677246,0.8571292025001277,-0.16165116286322675,-0.07485012685216168,0.48331767645164675
1728333117018286000,3.1612861328125,0.5931469202041626,0.4847313165664673,0.1925947517156601,0.032691434025764465,0.34408214688301086,-0.9383702874183655,-0.012381922453641891,-0.018200218677520752,0.03562980890274048,0.8572582528736478,-0.16033633805483685,-0.07146418594237257,0.4840386264574567
1728333117028317000,3.17131689453125,0.6135507822036743,0.5859618186950684,0.199102982878685,0.03847768157720566,0.3382878601551056,-0.9402557015419006,-0.045023638755083084,0.005843609571456909,0.07543331384658813,0.8574650009422645,-0.1591120379851401,-0.06749449286539819,0.48464595855849585
1728333117038348000,3.18134814453125,0.6534329652786255,0.6331290602684021,0.2717960774898529,0.04506343603134155,0.33216843008995056,-0.9421430230140686,-0.052158698439598083,0.02972427010536194,0.0978284478187561,0.8575932150970004,-0.15793831663428423,-0.06311884711328698,0.4853921108952509
1728333117048379000,3.19137890625,0.6565236449241638,0.6866936087608337,0.2586917281150818,0.052168723195791245,0.3257703185081482,-0.9440085291862488,-0.027190014719963074,0.02240470051765442,0.046593427658081055,0.8576550603616009,-0.1567715214657379,-0.058467212630221296,0.48624304899827525
1728333117058410000,3.201409912109375,0.6539915204048157,0.7366427779197693,0.21377086639404297,0.059722982347011566,0.3194085657596588,-0.9457332491874695,-0.031387344002723694,0.0077551305294036865,0.05681723356246948,0.8577972723055267,-0.15575907595161478,-0.05359567320219389,0.4868782975758522
1728333117068440800,3.21144091796875,0.6599715352058411,0.740668535232544,0.22349247336387634,0.06739870458841324,0.31296873092651367,-0.9473689794540405,-0.014664269983768463,0.00615355372428894,0.018734395503997803,0.8579772558336339,-0.15475762312358032,-0.04863726414064926,0.48740099957168354
1728333117078472000,3.221471923828125,0.574493408203125,0.7646811604499817,0.2215486317873001,0.07525156438350677,0.30687177181243896,-0.9487712979316711,-0.0006207525730133057,0.018567681312561035,-0.021046817302703857,0.858084986534597,-0.15396345072528658,-0.04369921191399904,0.487930218023139
1728333117088502800,3.231502685546875,0.523515522480011,0.8039907217025757,0.18159109354019165,0.08333860337734222,0.3014560043811798,-0.9498310089111328,-0.03245047479867935,0.02535673975944519,-0.024702012538909912,0.8581704903522287,-0.15355010334616928,-0.03881825520986482,0.4883225721337701
1728333117098534000,3.241533935546875,0.47014424204826355,0.8335395455360413,0.14408420026302338,0.09166236966848373,0.29648473858833313,-0.9506286382675171,-0.06524933129549026,0.01534387469291687,-0.06969606876373291,0.8583137549737114,-0.15341312768634607,-0.03391294825882299,0.4884792880995046
1728333117108564700,3.251564697265625,0.38045087456703186,0.8532869815826416,0.13752590119838715,0.10012136399745941,0.29225867986679077,-0.9510838985443115,-0.07801130414009094,0.0050130486488342285,-0.04220223426818848,0.8584400033612164,-0.1536555262351786,-0.029120911106867105,0.48849031965449147
1728333117118595800,3.261595947265625,0.3655118942260742,0.8901139497756958,0.15638907253742218,0.10889247059822083,0.28855210542678833,-0.9512518644332886,-0.07202716916799545,-0.00949937105178833,0.025852084159851074,0.8584748616690208,-0.15421397443035093,-0.02433340344901509,0.48851507938906125
1728333117128627000,3.271626953125,0.3876563310623169,0.9263312816619873,0.11856099218130112,0.11797057092189789,0.2847326397895813,-0.9513202905654907,-0.056187666952610016,-0.0168493390083313,0.04905283451080322,0.8585243815436182,-0.15480501055641235,-0.01937188551087088,0.48846301135038006
1728333117138657800,3.28165771484375,0.32624009251594543,0.975156307220459,0.11842036992311478,0.1273760050535202,0.28113678097724915,-0.9511768817901611,-0.04447491466999054,0.015249967575073242,0.08238720893859863,0.8586190703245661,-0.15558674749997958,-0.014293944275070282,0.48822315720839554
1728333117148689000,3.29168896484375,0.32822558283805847,0.9400578141212463,0.15850389003753662,0.13696497678756714,0.27785050868988037,-0.9508100152015686,0.000013247132301330566,0.04353010654449463,0.0836377739906311,0.8585789827325043,-0.15655547900728434,-0.009239837244654943,0.48810569367105805
1728333117158720000,3.301719970703125,0.34105029702186584,0.9052358865737915,0.11404826492071152,0.14609172940254211,0.2743197977542877,-0.9504766464233398,0.016841694712638855,0.015749752521514893,0.02779299020767212,0.8585424863417782,-0.1572988972155937,-0.00432810229587038,0.48799912244829996
1728333117168751000,3.311751220703125,0.26651352643966675,0.9491895437240601,0.09480959177017212,0.15520820021629333,0.2712993919849396,-0.9498984217643738,-0.023143291473388672,0.009996384382247925,-0.008506059646606445,0.8585473972744908,-0.1582736380981448,0.00048334595409563663,0.48769411180677225
1728333117178782000,3.321781982421875,0.2634623646736145,0.9634491801261902,0.10224513709545135,0.1645754724740982,0.26854148507118225,-0.9491050243377686,-0.046289265155792236,0.03114113211631775,-0.00624769926071167,0.8584977930247759,-0.15943325813618528,0.005339538045211974,0.48737483580636787
1728333117188813000,3.33181298828125,0.15321840345859528,1.0405546426773071,0.11461525410413742,0.1743544340133667,0.26629534363746643,-0.9479911923408508,-0.07332593202590942,0.08230692148208618,-0.021063923835754395,0.8583880983138994,-0.1609323075173658,0.01025613050814436,0.4869965517338366
1728333117198844000,3.341843994140625,0.1531883031129837,1.0793840885162354,0.20601867139339447,0.1849069446325302,0.2646995186805725,-0.9464372992515564,-0.06617821753025055,0.133844792842865,-0.05475282669067383,0.8580304041551694,-0.16293269750761716,0.015306080665547365,0.48682914862639465
1728333117208875000,3.351875,0.20633655786514282,1.1459239721298218,0.1497809737920761,0.19587095081806183,0.2625156044960022,-0.9448387026786804,-0.03408193588256836,0.1003078818321228,-0.12992936372756958,0.8576402801988229,-0.1647815104993284,0.020681209111958015,0.4866956285582813
1728333117218905900,3.36190576171875,0.209758460521698,1.2336828708648682,0.1303982138633728,0.20758941769599915,0.26033398509025574,-0.9429384469985962,-0.06208151578903198,0.06559374928474426,-0.01619851589202881,0.8573323549434586,-0.16682747391291902,0.026445833897455036,0.48626186755779954
1728333117228937000,3.37193701171875,0.3705451190471649,1.2216033935546875,0.16822069883346558,0.21957392990589142,0.2572898864746094,-0.9410575032234192,-0.04263293743133545,0.025180816650390625,0.09272986650466919,0.8570303454414555,-0.16855766152914398,0.03255086865867779,0.4858271065701786
1728333117238967800,3.3819677734375,0.5010738372802734,1.2446776628494263,0.12890951335430145,0.23159940540790558,0.25268250703811646,-0.9394217729568481,-0.02832174301147461,-0.017880260944366455,0.10409462451934814,0.8568058930000361,-0.16959372476187556,0.03907784041175829,0.48538103732751736
1728333117248999000,3.3919990234375,0.3542914092540741,1.288440227508545,-0.0004772469401359558,0.2436738759279251,0.24832700192928314,-0.9375269412994385,-0.05119942128658295,-0.006093710660934448,0.07009530067443848,0.8567549795770906,-0.17074027895615948,0.04565398652612092,0.4844940929016246
1728333117259030500,3.402030517578125,0.1496836543083191,1.349632740020752,-0.00659532705321908,0.2559998631477356,0.246138334274292,-0.9348154664039612,-0.07159727811813354,0.07130551338195801,-0.003645777702331543,0.8566947099949916,-0.17291800867298912,0.0518807752616017,0.48319974981856256
1728333117269062000,3.412061767578125,0.34258362650871277,1.3779646158218384,0.12944507598876953,0.2689574360847473,0.24377232789993286,-0.9317923188209534,-0.04768964648246765,0.12256067991256714,-0.050309062004089355,0.8563698392275385,-0.17520171323466713,0.05837968783559631,0.4822105254950214
1728333117279092700,3.4220927734375,0.5664235949516296,1.355724573135376,0.09313472360372543,0.28199106454849243,0.2390737384557724,-0.9291527271270752,-0.05748841166496277,0.0701913833618164,-0.06898564100265503,0.8560404581714758,-0.17645811018373841,0.0654688329994942,0.4814262017137298
1728333117289123800,3.432123779296875,0.4637746810913086,1.3302587270736694,-0.029173873364925385,0.2946292757987976,0.23419691622257233,-0.9264693260192871,-0.12075531482696533,-0.0010731518268585205,0.053407251834869385,0.8559519130663797,-0.17749510959452083,0.07253155478532906,0.4801885521988111
1728333117299154700,3.44215478515625,0.5544098019599915,1.2959073781967163,-0.13881488144397736,0.30661430954933167,0.22967678308486938,-0.923707902431488,-0.1184733510017395,-0.08111721277236938,0.20341676473617554,0.8561190535851321,-0.17847313724207448,0.07933090489897685,0.4784499149951589
1728333117309185800,3.452185791015625,0.3537346124649048,1.197960376739502,-0.1598684936761856,0.31782448291778564,0.22581934928894043,-0.9208654761314392,-0.0704183578491211,-0.13908839225769043,0.13035345077514648,0.8563938694890412,-0.17951473868153353,0.08568379521005053,0.47646874214079343
1728333117319216600,3.462216552734375,0.2481786012649536,1.0613590478897095,-0.1575097292661667,0.3279126286506653,0.22352972626686096,-0.9178822040557861,-0.01225396990776062,-0.13757698237895966,0.05504351854324341,0.856534064701423,-0.18098286592880597,0.09112676218544596,0.4746478656227079
1728333117329247700,3.472247802734375,0.015191561542451382,1.0143179893493652,-0.12135893106460571,0.33702924847602844,0.22283220291137695,-0.9147443175315857,-0.011818557977676392,-0.08828021585941315,-0.0787706971168518,0.8565028499472527,-0.18294225699762223,0.09570781358435239,0.47304872721815194
1728333117339278600,3.482278564453125,0.2881077826023102,0.9471487998962402,-0.14315396547317505,0.3458552658557892,0.22214359045028687,-0.9116119742393494,-0.0073541998863220215,-0.024618566036224365,-0.18946224451065063,0.8564064432332569,-0.18483803399271437,0.10014449623953334,0.47156551525564355
1728333117349309700,3.492309814453125,0.40676528215408325,0.8394055366516113,-0.3258441686630249,0.3534088134765625,0.21934939920902252,-0.9093888401985168,-0.005248934030532837,0.002742275595664978,-0.16067945957183838,0.8568799225476491,-0.18534172847375113,0.10466144176299345,0.46952252578762566
1728333117359340500,3.502340576171875,0.19199062883853912,0.7240398526191711,-0.17804297804832458,0.36007267236709595,0.21767938137054443,-0.9071732759475708,-0.004252910614013672,0.11760197579860687,0.23279589414596558,0.8573742768983571,-0.18610971655644257,0.1085197595770197,0.4674355161565192
1728333117369371600,3.51237158203125,0.2482427954673767,0.3603425621986389,0.007825955748558044,0.3648737668991089,0.2159511148929596,-0.9056667685508728,0.10866755247116089,0.0996006429195404,0.3281216025352478,0.8574260083747114,-0.18649018540073692,0.1113015568773287,0.46653415309355345
1728333117379402800,3.52240283203125,0.15189068019390106,0.19929319620132446,-0.1449958086013794,0.3671601712703705,0.21421371400356293,-0.9051551818847656,0.12133479118347168,-0.03464828431606293,0.1173134446144104,0.8576003627369629,-0.18622316882695766,0.11288638131392692,0.46593928361177445
1728333117389433600,3.53243359375,0.04891490191221237,0.13741075992584229,-0.31798356771469116,0.36816221475601196,0.21422258019447327,-0.9047459959983826,0.0023670494556427,-0.05131974816322327,0.14642995595932007,0.8581667208291016,-0.18633165898591533,0.1136112534393244,0.46467527629490013
1728333117399464700,3.542464599609375,0.0029580651316791773,0.03634220361709595,-0.21162649989128113,0.3683963418006897,0.2149897664785385,-0.9044686555862427,-0.04794645309448242,0.029440760612487793,0.17412203550338745,0.8587878662817616,-0.18658054446737335,0.1138128937818478,0.46337650979070216
1728333117409495600,3.55249560546875,0.07907865941524506,-0.07813920080661774,0.0379021018743515,0.3680160939693451,0.21512554585933685,-0.9045911431312561,-0.02707362174987793,0.08771564066410065,0.12242567539215088,0.8590087990963006,-0.18649582700270576,0.11368258602438396,0.4630329360508524
1728333117419526700,3.562526611328125,0.31985533237457275,-0.20405267179012299,0.011280875653028488,0.3668253421783447,0.21302634477615356,-0.9055711030960083,0.0017508268356323242,0.011720359325408936,-0.0125044584274292,0.859170498179742,-0.1852264475899239,0.1136029174316727,0.4632621034152651
1728333117429557800,3.572557861328125,0.23670092225074768,-0.2846485376358032,-0.2221774160861969,0.3644145727157593,0.2106601595878601,-0.9070966839790344,-0.015110284090042114,-0.07485693693161011,-0.031089961528778076,0.8598328739612147,-0.18342229015950828,0.11317214391530808,0.46285627314103117
1728333117439588900,3.5825888671875,0.060168758034706116,-0.4873792827129364,-0.23123028874397278,0.3604784905910492,0.2102820873260498,-0.9087556004524231,0.005503654479980469,-0.049271360039711,0.11534440517425537,0.8607358067317684,-0.182089722717234,0.11164917669070679,0.46207327699601763
1728333117449619700,3.59261962890625,0.042776450514793396,-0.736640989780426,-0.13072340190410614,0.3544809818267822,0.21038910746574402,-0.9110870957374573,0.08684903383255005,-0.021500572562217712,0.14555370807647705,0.8615425470432921,-0.18050957284792563,0.10896216879893479,0.4618311271269008
1728333117459650800,3.60265087890625,-0.1482507735490799,-0.8697295784950256,-0.08891736716032028,0.3468509614467621,0.2111445516347885,-0.9138448238372803,0.09751558303833008,0.0013340860605239868,0.16192227602005005,0.8621817965137795,-0.17887318927106508,0.10527090378059785,0.462130862569478
1728333117469681700,3.612681640625,-0.37983912229537964,-0.9712895154953003,-0.07434827834367752,0.3382536470890045,0.21388109028339386,-0.916427493095398,0.06442591547966003,0.02299635112285614,0.15867608785629272,0.8625992116602834,-0.1779457335899779,0.10060595548536541,0.4627489568966906
1728333117479712800,3.622712646484375,-0.40861937403678894,-1.1028562784194946,-0.06068013235926628,0.3285653293132782,0.2178119719028473,-0.9190227389335632,0.07089459896087646,-0.00078621506690979,0.05406302213668823,0.8628978032806872,-0.1773142919185313,0.09512242390464327,0.4635933959540618
1728333117489743600,3.63274365234375,-0.3944335877895355,-1.218157172203064,-0.10449898988008499,0.31765246391296387,0.2217004895210266,-0.9219250679016113,0.0714162290096283,-0.008168995380401611,0.017414569854736328,0.8632769783165137,-0.1763456714497092,0.08910482859485012,0.46445194102649856
1728333117499774700,3.642774658203125,-0.4235887825489044,-1.3214260339736938,-0.09416033327579498,0.3056643307209015,0.2258799821138382,-0.9249581098556519,0.041595250368118286,0.045467063784599304,0.05334562063217163,0.8637038869860021,-0.17523286728734266,0.0825492178790786,0.46528992597401986
1728333117509805600,3.6528056640625,-0.40675002336502075,-1.45542311668396,-0.019730569794774055,0.2926226258277893,0.2298591136932373,-0.9281900525093079,0.039713889360427856,0.0852806568145752,0.029569506645202637,0.8640342300203497,-0.17378409576102732,0.07552521127894532,0.4664117843191704
1728333117519836700,3.662836669921875,-0.4818700850009918,-1.5423567295074463,0.06616462767124176,0.27869176864624023,0.23388247191905975,-0.9314665198326111,0.04642733931541443,0.08446164429187775,0.02332448959350586,0.8641434286189261,-0.17216215243556102,0.06802150832024297,0.4679631646469775
1728333117529867800,3.67286767578125,-0.4962109327316284,-1.682705044746399,0.11842357367277145,0.26384058594703674,0.23825697600841522,-0.9346773624420166,0.05671611428260803,0.057183682918548584,0.016418755054473877,0.8639976524551372,-0.17049023786778011,0.05995335159433314,0.4699432707024488
1728333117539898600,3.682898681640625,-0.4260067939758301,-1.7402335405349731,0.025283774361014366,0.24786962568759918,0.24234995245933533,-0.9379910230636597,0.05056184530258179,0.000447884202003479,-0.03526026010513306,0.8638995316156336,-0.1683864111110256,0.05148308151156565,0.47188251441236684
1728333117549929700,3.6929296875,-0.510499119758606,-1.6538053750991821,-0.08409731090068817,0.2317190021276474,0.2467534840106964,-0.9409670829772949,-0.009367823600769043,-0.012683644890785217,0.04036283493041992,0.864009452843637,-0.16633962493922583,0.04298365490300156,0.4732559385709536
1728333117559960600,3.702960693359375,-0.49876949191093445,-1.5906668901443481,-0.057872362434864044,0.2162385731935501,0.25183337926864624,-0.9433031678199768,-0.05371710658073425,0.03347545862197876,0.1278887391090393,0.8640760526446201,-0.16476052579321568,0.034675513205443306,0.47436728549880425
1728333117569991700,3.71299169921875,-0.3449709415435791,-1.5043634176254272,0.024277368560433388,0.20150358974933624,0.2558554410934448,-0.94548100233078,-0.06812645494937897,0.07555019855499268,0.06395024061203003,0.8640098045759097,-0.16289212063718997,0.02693806668951993,0.47563407565884275
1728333117580022500,3.7230224609375,-0.24724039435386658,-1.3463822603225708,0.09467136859893799,0.18809685111045837,0.2584577202796936,-0.9475331902503967,-0.0992601215839386,0.1279405951499939,0.007210373878479004,0.8638084803469215,-0.16071327584170841,0.020115527663343867,0.4770761039255345
1728333117590054000,3.733053955078125,-0.14806874096393585,-1.2359553575515747,0.19361713528633118,0.17625008523464203,0.2601276636123657,-0.9493521451950073,-0.11489441990852356,0.15753591060638428,0.0007590055465698242,0.8634099959070756,-0.1585019529482378,0.014179363476328134,0.47874766290615584
1728333117600084700,3.743084716796875,-0.03436800464987755,-1.1507930755615234,0.23201805353164673,0.16543956100940704,0.26051825284957886,-0.9511887431144714,-0.07521426677703857,0.10167962312698364,-0.13744956254959106,0.862885780088801,-0.155964246060083,0.008988292094606224,0.480648051842246
1728333117610115800,3.75311572265625,-0.08813049644231796,-1.0677826404571533,0.19874851405620575,0.15541847050189972,0.26063740253448486,-0.9528447985649109,-0.04317474365234375,0.021238207817077637,-0.20486998558044434,0.8623544883134412,-0.1534914272997393,0.004239364629305656,0.48245952654076146
1728333117620146700,3.763146728515625,-0.21838891506195068,-0.9743449091911316,0.1404399275779724,0.14610359072685242,0.26181864738464355,-0.95399409532547,-0.025696411728858948,-0.024742841720581055,-0.13992375135421753,0.8618477699243868,-0.15166669083268156,-0.00040442674554119805,0.48395826142363396
1728333117630177800,3.773177734375,-0.3311709761619568,-0.866692066192627,0.11162851750850677,0.1375996172428131,0.2642727792263031,-0.9545817375183105,-0.021953165531158447,-0.0406399667263031,-0.12668657302856445,0.861328295746115,-0.15061374699165372,-0.004964090292567838,0.48518490716519314
1728333117640208600,3.783208740234375,-0.262481153011322,-0.7546302676200867,0.08230551332235336,0.13009926676750183,0.2671416997909546,-0.9548348188400269,-0.037081629037857056,-0.03854978084564209,-0.10876381397247314,0.8608146959331803,-0.1499958458257434,-0.009156700292651919,0.4862258495821952
1728333117650239700,3.79323974609375,-0.17371484637260437,-0.5636938214302063,0.00863821990787983,0.12381376326084137,0.26893121004104614,-0.9551681280136108,-0.0797920823097229,-0.02787289023399353,-0.06962734460830688,0.8605249794783846,-0.14919847582651308,-0.012479922446994538,0.48690957221635855
1728333117660270600,3.8032705078125,-0.1078583300113678,-0.3516417443752289,0.06517046689987183,0.11957328021526337,0.27043458819389343,-0.9552839398384094,-0.1262107789516449,0.03414610028266907,0.027000248432159424,0.8603035562141002,-0.14879223021749494,-0.014795644754733304,0.487360022542255
1728333117670301700,3.8133017578125,0.23158352077007294,-0.20014341175556183,0.08871041983366013,0.11715073138475418,0.2696845829486847,-0.9557960033416748,-0.09678018093109131,0.038497209548950195,-0.0737907886505127,0.860120772472554,-0.14782951613862164,-0.0157621175436178,0.4879451249708106
1728333117680332500,3.82333251953125,0.27285531163215637,-0.03743971511721611,-0.01579361967742443,0.11613903194665909,0.26703011989593506,-0.9566643238067627,-0.08681157976388931,-0.009049803018569946,-0.18527287244796753,0.8602188259976216,-0.14637429686067485,-0.015569167087778538,0.4882169099155161
1728333117690363600,3.83336376953125,0.2193019539117813,0.004278704524040222,-0.07923677563667297,0.11594406515359879,0.2646827697753906,-0.9573400616645813,-0.07424173504114151,-0.029529601335525513,-0.11359798908233643,0.8605345495831338,-0.1452737386395452,-0.015016843699216909,0.48800661499394404
1728333117700394800,3.843394775390625,0.035910025238990784,-0.012013716623187065,-0.01674330234527588,0.11576442420482635,0.26342466473579407,-0.9577087759971619,-0.01627703756093979,-0.04011228680610657,-0.13079220056533813,0.8607527039305795,-0.14466635253599225,-0.01474010614065516,0.4878107192161405
1728333117710425600,3.853425537109375,-0.12094557285308838,0.007280565798282623,-0.010811110958456993,0.11570252478122711,0.26387956738471985,-0.9575909972190857,0.010152049362659454,-0.010049611330032349,-0.1416063904762268,0.8607354912537288,-0.14485555574410422,-0.014878541495747574,0.4877807353808489
1728333117720456700,3.863456787109375,-0.29377272725105286,0.04443912208080292,0.009796695783734322,0.11597205698490143,0.2657966911792755,-0.9570280313491821,-0.025182195007801056,0.03545758128166199,-0.06135880947113037,0.8606050145959883,-0.1457864155341834,-0.015241924854619482,0.4877224356150756
1728333117730487600,3.873487548828125,-0.2870643138885498,0.09421753883361816,0.1229509487748146,0.11677531898021698,0.2688564360141754,-0.9560751914978027,-0.03248569369316101,0.049930185079574585,0.008122920989990234,0.8602112775889738,-0.1473620742550973,-0.015710698754519727,0.4879286661329628
1728333117740519000,3.883518798828125,0.17560826241970062,0.10939888656139374,0.12282044440507889,0.11815018206834793,0.26919418573379517,-0.9558112025260925,-0.015565268695354462,0.002244412899017334,-0.02650386095046997,0.8598439151108335,-0.14785387685591986,-0.015285037374351234,0.4884406134918083
1728333117750549800,3.8935498046875,0.2698017954826355,0.2173100709915161,-0.0233633890748024,0.11975091695785522,0.2667255401611328,-0.9563039541244507,-0.06889329850673676,-0.013627976179122925,-0.011515259742736816,0.8599199648186225,-0.14714888654126468,-0.013972724903360462,0.48855879143229075
1728333117760580900,3.903580810546875,0.3015293776988983,0.2559967637062073,0.016025295481085777,0.1221279427409172,0.2641059160232544,-0.956730306148529,-0.10064348578453064,0.07627186179161072,0.08568233251571655,0.8601760598236371,-0.14657913979406137,-0.012223591216782294,0.48832603675811864
1728333117770611700,3.91361181640625,0.34095388650894165,0.22375331819057465,0.12546151876449585,0.12458858639001846,0.2608000934123993,-0.9573196768760681,-0.01744130253791809,0.08432319760322571,0.053297460079193115,0.8602493597688007,-0.1457168429401746,-0.010332116024691924,0.4884987158876742
1728333117780642800,3.923642822265625,0.2014428675174713,0.20887663960456848,0.1318131536245346,0.127053901553154,0.2579372823238373,-0.9577711820602417,0.02973020076751709,0.05999481678009033,0.026206910610198975,0.8601329605415567,-0.14505341857882897,-0.008597100327893794,0.48893438125202554
1728333117790673700,3.933673583984375,0.09917907416820526,0.12964312732219696,0.12453126162290573,0.12904316186904907,0.2564021646976471,-0.9579174518585205,0.022995486855506897,0.053091853857040405,0.07113766670227051,0.8599302186537472,-0.14486680370012714,-0.007409045935977528,0.4893657074205981
1728333117800704800,3.943704833984375,-0.09528973698616028,0.061603620648384094,0.15734541416168213,0.13023285567760468,0.2561294138431549,-0.9578293561935425,0.019349128007888794,0.04126438498497009,0.10365766286849976,0.8596043040563711,-0.14504333840355502,-0.006909337028310832,0.4898930575844475
1728333117810735600,3.953735595703125,-0.1377871334552765,0.067496657371521,0.2191310077905655,0.13133175671100616,0.25717034935951233,-0.9574003219604492,-0.0016472339630126953,0.05230841040611267,0.13635540008544922,0.8590432683589504,-0.14578486319156267,-0.0068268869118191956,0.4906577401122191
1728333117820766700,3.9637666015625,-0.03235658258199692,0.08870767056941986,0.22137179970741272,0.13264736533164978,0.25762248039245605,-0.9570973515510559,-0.02540852129459381,0.040473222732543945,0.09003192186355591,0.8584317319907383,-0.14631725054518502,-0.006525731953066507,0.4915727972224946
1728333117830797600,3.973797607421875,-0.015975145623087883,0.12380499392747879,0.21608968079090118,0.13423429429531097,0.2575441896915436,-0.9568971395492554,-0.04922749102115631,0.04491552710533142,0.08519303798675537,0.8578920566324233,-0.14668307644928946,-0.005958119032893007,0.4924124259861847
1728333117840828700,3.98382861328125,0.04547596350312233,0.09720934182405472,0.26705512404441833,0.13532491028308868,0.257741242647171,-0.9566904902458191,-0.033029913902282715,0.06969711184501648,0.08056133985519409,0.8573287184015677,-0.1470457617415694,-0.005684444560433339,0.49328789224324837
1728333117850859500,3.993859619140625,0.029255516827106476,0.06467168778181076,0.33994582295417786,0.13687126338481903,0.2569223940372467,-0.9566907286643982,0.0022584497928619385,0.0667470395565033,0.0840253233909607,0.8566096498868407,-0.14706968456371786,-0.00501457226509772,0.4945353765196122
1728333117860890600,4.003890625,-0.002737038303166628,-0.008241934701800346,0.37663885951042175,0.13808098435401917,0.25625768303871155,-0.9566951990127563,0.021999046206474304,0.04656824469566345,0.09251368045806885,0.8557344888708852,-0.14707637553853922,-0.004577180681108237,0.49605072040149906
1728333117870921700,4.013921630859375,-0.10427311807870865,-0.07568734139204025,0.3991148769855499,0.13872118294239044,0.2562476396560669,-0.9566052556037903,0.027645468711853027,0.017205119132995605,0.04087954759597778,0.8547181804075964,-0.14722876203202306,-0.004590062175800476,0.4977546448034768
1728333117880952600,4.02395263671875,-0.21386592090129852,-0.10884556174278259,0.3284494876861572,0.13870970904827118,0.2572406828403473,-0.9563403725624084,0.02021065354347229,0.00505790114402771,-0.03415340185165405,0.8536821026413718,-0.1476598363840923,-0.0051377512811864095,0.4993968724362602
1728333117890983700,4.033983642578125,-0.3337635099887848,-0.13515940308570862,0.29301056265830994,0.13838374614715576,0.25941920280456543,-0.9557989239692688,-0.022279545664787292,0.01890110969543457,-0.010494351387023926,0.8527130719304511,-0.14853767717161467,-0.006089682265050639,0.5007795012817294
1728333117901014800,4.044014892578125,-0.44836917519569397,-0.15771238505840302,0.3219335377216339,0.1377103626728058,0.2627280652523041,-0.9549920558929443,-0.03846713900566101,0.030591607093811035,0.030645132064819336,0.8516453353566155,-0.14982571214736248,-0.007498473999963804,0.5021916655212564
1728333117911046000,4.0540458984375,-0.5212288498878479,-0.09246599674224854,0.35616686940193176,0.13738857209682465,0.26697906851768494,-0.9538587927818298,-0.03466632962226868,0.036106258630752563,-0.013380587100982666,0.8504091348879664,-0.1516214012289724,-0.009031432352870145,0.5037198028383142
1728333117921076700,4.06407666015625,-0.4544796645641327,-0.05579320713877678,0.33097338676452637,0.13769273459911346,0.27110666036605835,-0.9526499509811401,-0.036267489194869995,0.02230459451675415,-0.017747998237609863,0.8491495747583097,-0.15352383856684326,-0.01026956727022765,0.5052424865270978
1728333117931107800,4.07410791015625,-0.4054858982563019,-0.01592148095369339,0.24952168762683868,0.13805823028087616,0.2748401463031769,-0.9515265822410583,-0.0482906848192215,-0.0005328953266143799,-0.01159292459487915,0.8480790843567144,-0.15526836228037594,-0.011333495912482276,0.5064831760344282
1728333117941138700,4.084138671875,-0.3094291388988495,0.001128077507019043,0.21565398573875427,0.13870970904827118,0.2778471112251282,-0.950558066368103,-0.05353507399559021,0.012619197368621826,-0.010318398475646973,0.8472292022964548,-0.15676804039683692,-0.012031488372759391,0.5074266479333841
1728333117951169800,4.094169677734375,-0.19931115210056305,-0.007138107903301716,0.21999786794185638,0.13926279544830322,0.28001636266708374,-0.9498403668403625,-0.03695254027843475,0.03185802698135376,0.03998929262161255,0.8464655207305318,-0.15786828065852263,-0.012546789115217246,0.508346719586065
1728333117961200600,4.10420068359375,-0.12142273783683777,-0.003388642333447933,0.21423505246639252,0.13987557590007782,0.28121745586395264,-0.9493953585624695,-0.01353272795677185,0.026964306831359863,0.05150717496871948,0.8457804351642945,-0.15855288276712234,-0.01277874790979549,0.5092673280099118
1728333117971231700,4.114231689453125,-0.09413978457450867,-0.038029443472623825,0.17015334963798523,0.14021749794483185,0.2818300426006317,-0.9491632580757141,-0.003803834319114685,0.003127843141555786,0.03267461061477661,0.8452064889446983,-0.15890423127589004,-0.012954455541915608,0.5101055900071778
1728333117981262600,4.1242626953125,-0.1540292203426361,-0.07005049288272858,0.12239993363618851,0.14012692868709564,0.28284841775894165,-0.9488736391067505,-0.0001274794340133667,-0.01272207498550415,-0.009851276874542236,0.8447221924720492,-0.15932293889390745,-0.01339280369190344,0.5107655258605834
1728333117991293700,4.134293701171875,-0.13143841922283173,-0.0651603490114212,0.0663747489452362,0.13972921669483185,0.28413325548171997,-0.9485483765602112,-0.006016358733177185,-0.01695185899734497,-0.04923909902572632,0.8443517226898232,-0.15978076183243417,-0.013996893680638379,0.5112186772384336
1728333118001324500,4.144324462890625,0.025360776111483574,-0.015272414311766624,-0.008167923428118229,0.1394437849521637,0.2845695912837982,-0.9484595656394958,-0.04380160570144653,0.004035145044326782,-0.13172531127929688,0.8442265985281384,-0.15989563894548783,-0.014268481959122852,0.5113818123812763
1728333118011355600,4.154355712890625,0.060246989130973816,0.02584812417626381,-0.037233661860227585,0.13941991329193115,0.2841387391090393,-0.9485922455787659,-0.08454924821853638,0.045557886362075806,-0.12498557567596436,0.8443432797197173,-0.15969970076252102,-0.014137793821070513,0.5112539754914952
