time,seconds_elapsed,rotationRateX,rotationRateY,rotationRateZ,gravityX,gravityY,gravityZ,accelerationX,accelerationY,accelerationZ,quaternionW,quaternionX,quaternionY,quaternionZ
1728333410473904600,0.091904541015625,-0.173015296459198,-0.0779581069946289,0.7136582136154175,-0.061975058168172836,-0.21408577263355255,-0.9748468399047852,-0.11221923679113388,0.004201263189315796,-0.09880733489990234,0.9936917296973616,0.10772242534768178,-0.031184247915920338,-4.4820409259910156e-18
1728333410483934700,0.101934814453125,-0.11527650058269501,-0.40363895893096924,0.2633519768714905,-0.06595557183027267,-0.21264007687568665,-0.9749020934104919,0.07334086298942566,-0.043432772159576416,-0.06298553943634033,0.9937027395430247,0.10707398455750215,-0.032926042250895085,0.0024196895458519214
1728333410493965600,0.111965576171875,-0.23671378195285797,-0.26572757959365845,-0.1713387370109558,-0.06927744299173355,-0.21100735664367676,-0.9750264286994934,0.39836376905441284,-0.0479951947927475,0.020055055618286133,0.9937343101190618,0.10624792309154704,-0.03461455650078397,0.0022687270802741635
1728333410503996700,0.12199658203125,-0.2886446416378021,-0.03356465697288513,-0.07068642973899841,-0.07033143937587738,-0.2085723727941513,-0.9754747748374939,0.14181891083717346,-0.10934434831142426,0.011165082454681396,0.9938488445254097,0.10498116402337185,-0.035235806094934825,0.0013969520646798723
1728333410514027500,0.132027587890625,-0.25768378376960754,0.06481501460075378,0.3075287640094757,-0.07031087577342987,-0.20584924519062042,-0.9760545492172241,-0.20097509026527405,-0.15692831575870514,-0.02949965000152588,0.993993656645458,0.10361556741731404,-0.035164517187138165,0.0019507598540650154
1728333410524058600,0.14205859375,-0.19073458015918732,0.08304488658905029,0.4409736394882202,-0.07031664252281189,-0.20347809791564941,-0.9765511751174927,-0.12379037588834763,-0.12228165566921234,-0.011745333671569824,0.9941127470496612,0.10247995881919657,-0.03496083551562257,0.003935477956381429
1728333410534089500,0.15208935546875,-0.12400700151920319,0.06018985062837601,0.31313925981521606,-0.0703258141875267,-0.20173348486423492,-0.9769124388694763,-0.030733108520507812,-0.09125037491321564,-0.012330174446105957,0.9941941178025928,0.10166052008818521,-0.03476963937646177,0.005854143737945858
1728333410544119600,0.16211962890625,0.006345939356833696,0.010281949304044247,0.22078217566013336,-0.07045049220323563,-0.20106665790081024,-0.9770408868789673,-0.01367117464542389,-0.04905526340007782,0.0006309747695922852,0.994218032176329,0.10136717956987903,-0.034702208609303016,0.007139231708083216
1728333410554150700,0.172150634765625,0.10617026686668396,-0.03674105927348137,0.23726661503314972,-0.07100102305412292,-0.2016141414642334,-0.9768882393836975,-0.014112457633018494,-0.021240323781967163,0.015202999114990234,0.9941709328392232,0.10168782055896591,-0.03486370735427872,0.008260848173797946
1728333410564181500,0.182181396484375,0.13910825550556183,-0.03348401188850403,0.26134636998176575,-0.0718407854437828,-0.20276819169521332,-0.9765878915786743,0.012484140694141388,-0.021093353629112244,0.005915284156799316,0.99408428527255,0.10232371484287336,-0.03515535021366056,0.009509159511535253
1728333410574212900,0.192212890625,0.14687135815620422,0.00999443419277668,0.25358644127845764,-0.07243550568819046,-0.2040925920009613,-0.9762680530548096,0.01683253049850464,-0.027764543890953064,0.00713658332824707,0.9939905779546779,0.10304688523167865,-0.03531735760772786,0.010797354532303708
1728333410584243700,0.20224365234375,0.10279471427202225,0.06466619670391083,0.2556176483631134,-0.07252709567546844,-0.20525537431240082,-0.976017415523529,-0.034589558839797974,-0.038290008902549744,0.020130574703216553,0.9939125893819517,0.10368502702053489,-0.03522349339157799,0.012098887490434543
1728333410594273500,0.2122734375,0.02281872183084488,0.10556313395500183,0.2836860120296478,-0.072172611951828,-0.20577369630336761,-0.9759345650672913,-0.09303425252437592,-0.06110237538814545,0.01661449670791626,0.9938738351545537,0.1039948239547606,-0.03489682506768526,0.013493616777697068
1728333410604305000,0.222304931640625,-0.04463168978691101,0.11049851775169373,0.29815152287483215,-0.07167227566242218,-0.20553939044475555,-0.9760208129882812,-0.11533939838409424,-0.08271424472332001,0.01700592041015625,0.9938738941991907,0.10392363994857064,-0.03448866082432472,0.014999064348686073
1728333410614335700,0.232335693359375,-0.09781448543071747,0.09078728407621384,0.284419983625412,-0.07123936712741852,-0.20471592247486115,-0.9762255549430847,-0.1057472825050354,-0.09136547148227692,0.028532683849334717,0.993901749587522,0.10355222577461963,-0.03411975762622626,0.016494074077142644
1728333410624366800,0.242366943359375,-0.11279503256082535,0.07538329064846039,0.24687610566616058,-0.07093199342489243,-0.20357142388820648,-0.9764872193336487,-0.08487545698881149,-0.08814595639705658,0.03053385019302368,0.9939443148462371,0.1030131794911931,-0.033832900671899,0.017842150685641305
1728333410634397700,0.252397705078125,-0.07546097785234451,0.05171769857406616,0.23943042755126953,-0.0707644671201706,-0.2025393396615982,-0.9767139554023743,-0.07228663563728333,-0.06194111704826355,0.025496304035186768,0.9939788525747997,0.10252767963844481,-0.03363159178200263,0.019049900543504996
1728333410644427800,0.262427734375,0.01461245771497488,0.04249623790383339,0.24456633627414703,-0.070767842233181,-0.20217140018939972,-0.9767899513244629,-0.06950616091489792,-0.019813328981399536,0.01663064956665039,0.9939738901715528,0.10238184857342107,-0.03351082100491951,0.020267656715393545
1728333410654459000,0.272458984375,0.08323612809181213,0.05639974772930145,0.24449841678142548,-0.07076022773981094,-0.20260141789913177,-0.9767014384269714,-0.06571433693170547,0.016825810074806213,0.00702059268951416,0.9939252201709787,0.10264258954638238,-0.033373529012870315,0.021524419233395625
1728333410664489000,0.282489013671875,0.12178537994623184,0.06293967366218567,0.23798033595085144,-0.07063475996255875,-0.2035559117794037,-0.9765120148658752,-0.06661800295114517,0.03747938573360443,-0.004094064235687256,0.9938498056028858,0.10316783625958846,-0.03317210011902875,0.02277158639427123
1728333410674520000,0.29252001953125,0.11728537827730179,0.05654670298099518,0.234800785779953,-0.07049205154180527,-0.20469588041305542,-0.9762840270996094,-0.07916609197854996,0.04821716248989105,-0.002201080322265625,0.9937637892453017,0.10378595468145327,-0.03296165805532963,0.02399095900911311
1728333410684551000,0.302551025390625,0.058819398283958435,0.04837825521826744,0.21995367109775543,-0.07042630761861801,-0.2055077701807022,-0.9761181473731995,-0.08515225350856781,0.040804535150527954,0.003385603427886963,0.9936929072655832,0.10423672654249215,-0.032796616426766526,0.02516761402478901
1728333410694581000,0.3125810546875,-0.027618752792477608,0.03874970227479935,0.20114615559577942,-0.07037117332220078,-0.20560811460018158,-0.9761010408401489,-0.08195727318525314,0.021495714783668518,0.00402456521987915,0.9936607544993793,0.10432233924741194,-0.03265489063831492,0.026242724707900164
1728333410704612000,0.322612060546875,-0.10638520866632462,0.011540984734892845,0.1727515310049057,-0.0704556554555893,-0.2049112766981125,-0.9762414693832397,-0.07888206094503403,0.0020458251237869263,0.011046767234802246,0.9936710453092625,0.10400006059240624,-0.032607686186887926,0.02717800406263241
1728333410714643000,0.332642822265625,-0.15307754278182983,-0.009843507781624794,0.1399001032114029,-0.07072515785694122,-0.20358461141586304,-0.9764994978904724,-0.0727074071764946,-0.008558183908462524,0.014310717582702637,0.9937149318487671,0.10335480598111582,-0.03268086472578466,0.027934039473846574
1728333410724674000,0.342674072265625,-0.14293329417705536,-0.017619404941797256,0.1210973784327507,-0.07110577821731567,-0.20210400223731995,-0.9767793416976929,-0.06410230696201324,-0.005644276738166809,0.014956831932067871,0.9937676276921251,0.10262906479742785,-0.032826660831637,0.028557352762670126
1728333410734705000,0.352704833984375,-0.1180446594953537,-0.014571629464626312,0.1186603233218193,-0.07313218712806702,-0.2003190815448761,-0.976997435092926,-0.0572236031293869,0.007005617022514343,0.00519561767578125,0.9938035985567255,0.10177745508423836,-0.033803003149303755,0.029206336115845177
1728333410744736000,0.362736083984375,-0.07049871236085892,-0.012421127408742905,0.1224590614438057,-0.07495542615652084,-0.19841927289962769,-0.977246880531311,-0.05623959004878998,0.025522083044052124,-0.004869818687438965,0.9938463475951586,0.10086646901422117,-0.03467727779931781,0.02987938921041654
1728333410754766000,0.37276611328125,-0.0025489525869488716,-0.014125497080385685,0.12719762325286865,-0.07697417587041855,-0.19695767760276794,-0.9773856401443481,-0.05258814990520477,0.04548381268978119,-0.004288613796234131,0.9938595781563322,0.10018431903950262,-0.03564117075590624,0.030591304095731166
1728333410764797000,0.382796875,0.025540471076965332,-0.013121484778821468,0.1254655122756958,-0.0791863426566124,-0.19621266424655914,-0.9773587584495544,-0.048285529017448425,0.05346684157848358,-0.0018435120582580566,0.9938300628538304,0.09987181610344958,-0.03669126225181074,0.03132305621659292
1728333410774828000,0.392828125,0.021527888253331184,-0.021241838112473488,0.13186535239219666,-0.08179450035095215,-0.1959785670042038,-0.9771909117698669,-0.044838130474090576,0.046412065625190735,-0.005581915378570557,0.9937642532609401,0.09982801617884753,-0.03793304317815238,0.032062618846946146
1728333410784859000,0.40285888671875,-0.016325484961271286,-0.036008529365062714,0.15698854625225067,-0.08563323318958282,-0.1963328719139099,-0.9767908453941345,-0.0440511628985405,0.03475770354270935,0.0046381354331970215,0.9936357530291257,0.10011268004676563,-0.03977474968452754,0.032912934373025934
1728333410794890000,0.412889892578125,-0.07721113413572311,-0.03832419961690903,0.18324784934520721,-0.09118621796369553,-0.19730761647224426,-0.9760915637016296,-0.039398446679115295,0.0182611346244812,0.01889246702194214,0.9934256015935655,0.10075669310323329,-0.042453484251127764,0.03393054813259225
1728333410804920000,0.422920166015625,-0.1468605250120163,-0.04739253222942352,0.1958925426006317,-0.09613513946533203,-0.1972493678331375,-0.9756283760070801,-0.029856622219085693,-0.0023201704025268555,0.024181842803955078,0.9932719299280516,0.10087276562189817,-0.044838588474409226,0.03500110384313463
1728333410814951000,0.432950927734375,-0.19256442785263062,-0.0748380571603775,0.20580002665519714,-0.09967468678951263,-0.19507750868797302,-0.975709855556488,-0.02163262665271759,-0.016424402594566345,0.03611940145492554,0.9932544378439251,0.09989122034485987,-0.0465490843199555,0.03606180421544238
1728333410824982000,0.44298193359375,-0.2100459486246109,-0.10670411586761475,0.21848280727863312,-0.1029622033238411,-0.1912669986486435,-0.9761227965354919,-0.011661767959594727,-0.01709163188934326,0.05235570669174194,0.993317540238812,0.09807894786964824,-0.048157240445819295,0.0371707691211645
1728333410835012900,0.453012939453125,-0.23139545321464539,-0.12479044497013092,0.2180795967578888,-0.10618503391742706,-0.1860821396112442,-0.9767794609069824,0.0030051544308662415,-0.01141221821308136,0.05176115036010742,0.993439564429802,0.09557419441651539,-0.04975770264179186,0.03830790294370302
1728333410845044000,0.4630439453125,-0.24053435027599335,-0.15278372168540955,0.21932382881641388,-0.10912378877401352,-0.18093466758728027,-0.9774224758148193,0.014168396592140198,-0.007740125060081482,0.04451531171798706,0.9935587427512291,0.09308505634864282,-0.0512244835909977,0.039397936426070077
1728333410855074000,0.473073974609375,-0.2291404753923416,-0.16139501333236694,0.21945032477378845,-0.11178579181432724,-0.17690886557102203,-0.9778584837913513,0.015899620950222015,-0.0011457949876785278,0.03942769765853882,0.9936266467422675,0.09116006111161805,-0.052541494183197625,0.04043728955538462
1728333410865105000,0.48310498046875,-0.2460896372795105,-0.1697906255722046,0.22015979886054993,-0.11445870250463486,-0.1737903356552124,-0.9781084656715393,0.015963278710842133,-0.003715023398399353,0.03624439239501953,0.9936478920260385,0.08969713630072136,-0.05385352820218041,0.041449572230284316
1728333410875136000,0.493135986328125,-0.2690940201282501,-0.1663489043712616,0.2204817682504654,-0.11710185557603836,-0.17132380604743958,-0.9782307147979736,0.013296373188495636,-0.01329214870929718,0.024571597576141357,0.9936372652950819,0.08856514471344662,-0.055144031289127746,0.042429386370336886
1728333410885166800,0.503166748046875,-0.2973296642303467,-0.16270384192466736,0.21574480831623077,-0.11943969875574112,-0.1693185418844223,-0.9782971739768982,0.009759575128555298,-0.023384571075439453,0.03524297475814819,0.9936146283207193,0.08765826266782399,-0.056279973699605745,0.04334153664627891
1728333410895198000,0.513197998046875,-0.3144679069519043,-0.15936210751533508,0.20716489851474762,-0.12153864651918411,-0.1673557013273239,-0.9783764481544495,0.008028566837310791,-0.030443832278251648,0.04511833190917969,0.993596683715748,0.08676626437392043,-0.05730099631544597,0.04420200029294162
1728333410905228800,0.523228759765625,-0.32824575901031494,-0.15057015419006348,0.21385209262371063,-0.12332175672054291,-0.16399310529232025,-0.9787226319313049,0.005325593054294586,-0.040291428565979004,0.04969125986099243,0.993644227103641,0.08516120549302494,-0.058191492354447254,0.04508199418956218
1728333410915259000,0.5332587890625,-0.3343571722507477,-0.1229475885629654,0.24078170955181122,-0.1249345913529396,-0.16052986681461334,-0.9790921807289124,0.000041462481021881104,-0.04735574126243591,0.036419451236724854,0.9936930502942485,0.08350794181583068,-0.058994339864321205,0.04604388841619211
1728333410925290000,0.5432900390625,-0.33617693185806274,-0.08256927132606506,0.2829704284667969,-0.1262681484222412,-0.15694724023342133,-0.9795018434524536,-0.010801494121551514,-0.04741358757019043,0.016733288764953613,0.993742251882689,0.0818004368747254,-0.05964690030934012,0.047193251673939465
1728333410935320800,0.55332080078125,-0.33872997760772705,-0.05966353043913841,0.3267565369606018,-0.1273368000984192,-0.153328537940979,-0.9799365997314453,-0.010083794593811035,-0.04767534136772156,0.0005816817283630371,0.9937855360566457,0.08008323711378704,-0.060153029016701734,0.04856434322356331
1728333410945352000,0.56335205078125,-0.3580586612224579,-0.06351499259471893,0.36184927821159363,-0.12836052477359772,-0.14954762160778046,-0.9803872108459473,0.0027960091829299927,-0.0467260479927063,-0.028371334075927734,0.9938201855798798,0.07829813724459418,-0.06062834953028074,0.05014912176716759
1728333410955382800,0.5733828125,-0.38177722692489624,-0.08198997378349304,0.3981153964996338,-0.12953293323516846,-0.14548353850841522,-0.9808443784713745,0.026108920574188232,-0.04506808519363403,-0.02573215961456299,0.9938456204995718,0.07638667072148467,-0.061179020090269494,0.051893425135593196
1728333410965412900,0.583412841796875,-0.38737040758132935,-0.09207244217395782,0.42723652720451355,-0.13087786734104156,-0.14120307564735413,-0.9812913537025452,0.044681042432785034,-0.042771995067596436,-0.012437283992767334,0.993857089635135,0.07438378589390736,-0.06181737920940079,0.05379255350913105
1728333410975444000,0.59344384765625,-0.38531923294067383,-0.08234667778015137,0.4725981652736664,-0.1322546750307083,-0.1368778795003891,-0.9817194938659668,0.05010141432285309,-0.04393862187862396,-0.013413012027740479,0.9938496817758506,0.0723747033663137,-0.06246727747377501,0.05587938488316478
1728333410985474800,0.603474853515625,-0.3943667709827423,-0.06614933162927628,0.5182332992553711,-0.1335640251636505,-0.1324225515127182,-0.9821531772613525,0.04591760039329529,-0.04079507291316986,-0.01749587059020996,0.9938265693976273,0.07031553427901072,-0.0630803018388287,0.05818246834266672
1728333410995506200,0.613506103515625,-0.3882670998573303,-0.059503525495529175,0.567470908164978,-0.1347866654396057,-0.12789928913116455,-0.9825855493545532,0.04167759418487549,-0.029952749609947205,-0.014255940914154053,0.9937821559462398,0.06823985191556071,-0.06364399048876823,0.060742629571876164
1728333411005537000,0.623537109375,-0.394984632730484,-0.054979875683784485,0.6196582317352295,-0.13599607348442078,-0.12331221252679825,-0.983005166053772,0.04776981472969055,-0.024346955120563507,-0.03422200679779053,0.9937117499438987,0.06615227269706618,-0.06419729087690326,0.06355693353126345
1728333411015568100,0.633568115234375,-0.4204727113246918,-0.07791566103696823,0.6569232940673828,-0.13730135560035706,-0.11849632114171982,-0.983415961265564,0.06689736247062683,-0.027392826974391937,-0.046338677406311035,0.9936160346186577,0.06397226295841942,-0.06480407630331694,0.06659621613144202
1728333411025597700,0.64359765625,-0.46511635184288025,-0.10615502297878265,0.6937103271484375,-0.13888798654079437,-0.113279327750206,-0.9838078618049622,0.08850353956222534,-0.02656733989715576,-0.04315441846847534,0.9934957987857111,0.061616275368703975,-0.06557058462770776,0.0697850747786452
1728333411035629000,0.653629150390625,-0.4961701035499573,-0.1347004771232605,0.7420163154602051,-0.14077959954738617,-0.10759460180997849,-0.9841770529747009,0.10646264255046844,-0.01989244669675827,-0.04237323999404907,0.9933470560958881,0.05905526113694139,-0.06651271086113898,0.07314494282275692
1728333411045660000,0.663659912109375,-0.5092198848724365,-0.13549090921878815,0.792741060256958,-0.14282295107841492,-0.1016252264380455,-0.9845170974731445,0.11962965130805969,-0.017057500779628754,-0.03318309783935547,0.9931605049388161,0.056382512103725975,-0.06754600184882219,0.0767516823172021
1728333411055691000,0.67369091796875,-0.5322498679161072,-0.14404483139514923,0.8360203504562378,-0.1449052393436432,-0.09539049863815308,-0.9848365783691406,0.12583181262016296,-0.022376708686351776,-0.037563323974609375,0.9929367966151428,0.05360368888068399,-0.06861739169931408,0.08058928804117274
1728333411065722000,0.68372216796875,-0.5561472177505493,-0.1704026758670807,0.8651087284088135,-0.14713676273822784,-0.08885706961154938,-0.9851168394088745,0.1303826868534088,-0.025034405291080475,-0.03877842426300049,0.992674296239492,0.05070379673444966,-0.06979043259331509,0.08459356947369961
1728333411075752000,0.693751953125,-0.5646194219589233,-0.21692325174808502,0.8977531790733337,-0.14969687163829803,-0.0820959210395813,-0.9853177666664124,0.1364828199148178,-0.023799948394298553,-0.029712140560150146,0.9923636366046741,0.04772624122685771,-0.07115702023314686,0.08873091653323568
1728333411085783000,0.703782958984375,-0.5768912434577942,-0.23517654836177826,0.932025134563446,-0.15258987247943878,-0.07514974474906921,-0.9854282736778259,0.13333337008953094,-0.01892055571079254,-0.027068674564361572,0.9920002989148544,0.044695500183063785,-0.07271991353417201,0.09300173555994103
1728333411095814000,0.71381396484375,-0.5726131796836853,-0.22645241022109985,0.9832097887992859,-0.15544521808624268,-0.0680549219250679,-0.9854974746704102,0.11554355919361115,-0.00994788110256195,-0.023154258728027344,0.9915866769448703,0.04162022878274872,-0.07429004484242693,0.09749088603613136
1728333411105845000,0.723844970703125,-0.5334106087684631,-0.2202187478542328,1.0544503927230835,-0.1581963300704956,-0.06104963645339012,-0.9855185747146606,0.09238524734973907,-0.004486735910177231,-0.025360941886901855,0.9911072913739922,0.03862489657208525,-0.0758210365259742,0.10230140318228907
1728333411115875800,0.733875732421875,-0.49047303199768066,-0.2180018275976181,1.106722354888916,-0.1609007716178894,-0.054353948682546616,-0.9854727983474731,0.07870176434516907,-0.010373711585998535,-0.04824918508529663,0.9905522836087693,0.03582371322170223,-0.07733223612871964,0.10743627444874056
1728333411125906000,0.743906005859375,-0.47001782059669495,-0.21661831438541412,1.13120436668396,-0.163533017039299,-0.04789622500538826,-0.9853745102882385,0.07613074779510498,-0.02351478487253189,-0.07674401998519897,0.9899347773676289,0.03317019047411178,-0.07881934243902929,0.11276690709853544
1728333411135937000,0.75393701171875,-0.4576764404773712,-0.23075202107429504,1.1548062562942505,-0.16615331172943115,-0.04152445122599602,-0.985225260257721,0.07772870361804962,-0.027674034237861633,-0.06961482763290405,0.9892615125776368,0.030585902717528184,-0.08032358144457816,0.11821223280123246
1728333411145967900,0.7639677734375,-0.44363731145858765,-0.24691955745220184,1.1918405294418335,-0.16886639595031738,-0.03519553691148758,-0.9850103855133057,0.08761341869831085,-0.02480190247297287,-0.05673772096633911,0.9885235260687598,0.028058928419133416,-0.08189941746854114,0.12379994388677264
1728333411155999000,0.7739990234375,-0.43502259254455566,-0.2595806419849396,1.2262935638427734,-0.1716606467962265,-0.028871793299913406,-0.984732985496521,0.10081417858600616,-0.020459750667214394,-0.053169846534729004,0.9877134763552035,0.025574827963870693,-0.08354303714081407,0.12957041068946576
1728333411166029800,0.78402978515625,-0.4133226275444031,-0.25585246086120605,1.2504433393478394,-0.17442160844802856,-0.022635173052549362,-0.9844108819961548,0.10165253281593323,-0.020699666813015938,-0.052957892417907715,0.9868385571812004,0.023164567173995922,-0.0851937246983662,0.13548065867372058
1728333411176061000,0.79406103515625,-0.39368191361427307,-0.2567247152328491,1.2643077373504639,-0.1771019995212555,-0.016522808000445366,-0.9840537905693054,0.09523867070674896,-0.03134389594197273,-0.07499772310256958,0.9859037244539545,0.02084053874829114,-0.08682611310055353,0.14149384234737353
1728333411186091000,0.804091064453125,-0.374228298664093,-0.27693864703178406,1.2679370641708374,-0.1797930896282196,-0.010572907514870167,-0.9836476445198059,0.09072764217853546,-0.042573340237140656,-0.09108990430831909,0.9849113867113849,0.01862389461173115,-0.08848353727943843,0.14755775596862178
1728333411196121900,0.814121826171875,-0.358102411031723,-0.30167144536972046,1.2577379941940308,-0.18263749778270721,-0.004747836384922266,-0.9831688404083252,0.09424342215061188,-0.04357663169503212,-0.0970313549041748,0.9838654844859307,0.01650106645776027,-0.0902401611859754,0.15360025244861633
1728333411206153000,0.824153076171875,-0.30727437138557434,-0.32455068826675415,1.2567827701568604,-0.18564966320991516,0.0007629672763869166,-0.9826157093048096,0.09719455242156982,-0.031341467052698135,-0.09955286979675293,0.9827669304566415,0.014567936825441542,-0.09208650321285242,0.15961481519508097
1728333411216183800,0.834183837890625,-0.25025683641433716,-0.33085593581199646,1.2643674612045288,-0.18872718513011932,0.0057604955509305,-0.9820126295089722,0.09673206508159637,-0.015587043017148972,-0.11356836557388306,0.9816119630133894,0.012921484310317378,-0.09395055033333906,0.16566301427547137
1728333411226215000,0.84421484375,-0.18978841602802277,-0.3379593789577484,1.280504584312439,-0.19180864095687866,0.010219549760222435,-0.9813791513442993,0.09448820352554321,-0.00445161946117878,-0.13814294338226318,0.9803955298433255,0.011574186402500608,-0.09579390730440313,0.1717964739372802
1728333411236245000,0.854244873046875,-0.13958163559436798,-0.3620195984840393,1.2896291017532349,-0.194968119263649,0.014207558706402779,-0.9807066917419434,0.09017086029052734,0.0038436977192759514,-0.15819406509399414,0.9791154244023059,0.010498642320514857,-0.09765471050522853,0.17800638266059035
1728333411246275800,0.86427587890625,-0.06787789613008499,-0.3895875811576843,1.3099863529205322,-0.19835160672664642,0.017703291028738022,-0.9799710512161255,0.08742029964923859,0.013287419453263283,-0.1796663999557495,0.9777586464466061,0.009722599893605278,-0.09959895708624714,0.18431921257262773
1728333411256307000,0.874306884765625,0.008444909006357193,-0.40061214566230774,1.3232669830322266,-0.20187270641326904,0.02049786038696766,-0.9791972637176514,0.0886373519897461,0.020609423518180847,-0.19899487495422363,0.9763302204163572,0.009342435444487568,-0.1015583336160425,0.19073011204387308
1728333411266337800,0.884337890625,0.09181703627109528,-0.39262107014656067,1.3353058099746704,-0.2053609937429428,0.022579984739422798,-0.9784258008003235,0.09465859830379486,0.02319648675620556,-0.2091657519340515,0.9748382994147834,0.009347470434088442,-0.10343953184793066,0.1972385666850999
1728333411276369000,0.894368896484375,0.1466209590435028,-0.3944169580936432,1.320847988128662,-0.20878376066684723,0.02399051934480667,-0.977667510509491,0.10992217063903809,0.019512394443154335,-0.19255954027175903,0.9732958712018277,0.009707060978591498,-0.10522362344746289,0.20378600424145107
1728333411286399000,0.90439892578125,0.15559953451156616,-0.4168833792209625,1.2959532737731934,-0.21227766573429108,0.0250947754830122,-0.9768871068954468,0.13102471828460693,0.0020049382001161575,-0.16926157474517822,0.9717245767414963,0.01023884816959974,-0.10701217641527516,0.21022587586013264
1728333411296429800,0.914429931640625,0.12569677829742432,-0.4644429683685303,1.2741987705230713,-0.21613162755966187,0.02625066414475441,-0.9760112762451172,0.14545302093029022,-0.013738356530666351,-0.1456317901611328,0.9701140846178744,0.010795670037811178,-0.10898537549234548,0.2165278022162145
1728333411306461000,0.9244609375,0.0992441177368164,-0.5292478203773499,1.2530063390731812,-0.22050127387046814,0.027780048549175262,-0.9749910235404968,0.1532406508922577,-0.0318998247385025,-0.12011700868606567,0.968453076062845,0.011241264449378617,-0.11125705332720182,0.22269744427414503
1728333411316491800,0.93449169921875,0.10602359473705292,-0.5632078647613525,1.234916090965271,-0.22536075115203857,0.029353300109505653,-0.9738330841064453,0.14886854588985443,-0.046534597873687744,-0.10206413269042969,0.9667393921781565,0.011741992155248411,-0.11377861155383609,0.22876089246735912
1728333411326523000,0.94452294921875,0.13005755841732025,-0.5921540260314941,1.218705654144287,-0.230490043759346,0.030875379219651222,-0.9725847244262695,0.12892766296863556,-0.04102237522602081,-0.12028026580810547,0.9649865028456873,0.01232201802457537,-0.11642940594139412,0.2347196591654276
1728333411336553700,0.9545537109375,0.23855580389499664,-0.5976173877716064,1.225157380104065,-0.23580405116081238,0.03175249323248863,-0.9712817668914795,0.10029086470603943,-0.002547074109315872,-0.11110049486160278,0.9631775713926125,0.013276363040806611,-0.11909184263333927,0.24068601732330527
1728333411346583800,0.964583740234375,0.3464660346508026,-0.5841886401176453,1.2392308712005615,-0.24100297689437866,0.0316217765212059,-0.9700090885162354,0.07445341348648071,0.04725099727511406,-0.11745429039001465,0.961311206561531,0.014755743350351137,-0.12156367151435912,0.24674929319043368
1728333411356615000,0.974614990234375,0.4908026456832886,-0.5835933089256287,1.2790621519088745,-0.24616505205631256,0.030441459268331528,-0.9687497615814209,0.050532251596450806,0.09515372663736343,-0.1316988468170166,0.9593555327324906,0.016800994941068747,-0.1238662605373184,0.2530055994901198
1728333411366645800,0.984645751953125,0.5826667547225952,-0.5383307337760925,1.3087737560272217,-0.2510889768600464,0.028152110055088997,-0.96755450963974,0.028936386108398438,0.11268660426139832,-0.10706096887588501,0.9573030440266261,0.0194207005203,-0.12587917633600437,0.2595151270823408
1728333411376677000,0.994677001953125,0.5379014611244202,-0.5109313726425171,1.3240967988967896,-0.2556398808956146,0.025775345042347908,-0.9664283990859985,0.010980576276779175,0.0867125391960144,-0.11226117610931396,0.9551916121380079,0.022076625213448334,-0.12766524399924328,0.26612630510858865
1728333411386708000,1.0047080078125,0.44397252798080444,-0.5036556124687195,1.3176612854003906,-0.26004794239997864,0.02415218949317932,-0.9652935862541199,-0.008155673742294312,0.04599255323410034,-0.08161193132400513,0.953036025451386,0.024372417234729233,-0.12945727307876245,0.2727068614820803
1728333411396737800,1.01473779296875,0.4037090837955475,-0.5501537322998047,1.2764222621917725,-0.2646523118019104,0.0232696495950222,-0.9640631079673767,-0.006374180316925049,-0.01155080646276474,-0.05217224359512329,0.9508620506039791,0.026341496591851574,-0.1314327608909611,0.2790929318179442
1728333411406769200,1.02476904296875,0.38930830359458923,-0.5836597681045532,1.230067491531372,-0.2696775794029236,0.02252785488963127,-0.9626871347427368,0.00020751357078552246,-0.04761321842670441,-0.041509032249450684,0.9486735000642252,0.028303720770394912,-0.1336238792297145,0.2852403141027602
1728333411416800000,1.034800048828125,0.42676153779029846,-0.5698299407958984,1.182380199432373,-0.2748272716999054,0.021680817008018494,-0.9612491130828857,0.004517942667007446,-0.02944745495915413,-0.021798372268676758,0.946500741421776,0.030333469984635847,-0.13585033680219044,0.2911370074266818
1728333411426831000,1.0448310546875,0.6085883378982544,-0.5710545182228088,1.1915004253387451,-0.27991658449172974,0.019801847636699677,-0.9598200917243958,-0.003194838762283325,0.05269274860620499,0.011440515518188477,0.9442984703015018,0.03287904128682346,-0.13787288108823167,0.2970022258724491
1728333411436862000,1.054862060546875,0.8215087652206421,-0.551220715045929,1.222063660621643,-0.28497982025146484,0.01602317951619625,-0.9583995938301086,-0.008293986320495605,0.13603073358535767,0.011683225631713867,0.9419789675694439,0.03640043343391007,-0.13955363874665638,0.30310948821129363
1728333411446893000,1.06489306640625,0.9063677191734314,-0.5240077376365662,1.2407273054122925,-0.2898274064064026,0.010941722430288792,-0.9570164084434509,-0.013303577899932861,0.18015943467617035,-0.023162484169006348,0.9395570254250589,0.040570965893297596,-0.14087514666283124,0.3094200655772414
1728333411456923000,1.0749228515625,0.9572756886482239,-0.5267190933227539,1.256736397743225,-0.29458102583885193,0.005427055060863495,-0.9556111097335815,-0.04059338569641113,0.19611111283302307,-0.020386815071105957,0.9370443574105172,0.04497540532589073,-0.14202697863114042,0.3158377222484955
1728333411466954000,1.0849541015625,0.9245781898498535,-0.5515655875205994,1.2366844415664673,-0.2995510399341583,-0.00021733019093517214,-0.9540802240371704,-0.06933006644248962,0.16887280344963074,0.00232851505279541,0.934450875266565,0.049502481416481274,-0.14321095992045388,0.3222446942314411
1728333411476985000,1.094985107421875,0.8313564658164978,-0.6026803851127625,1.1865408420562744,-0.30498412251472473,-0.005204228684306145,-0.952343225479126,-0.09125599265098572,0.12185774743556976,0.007061183452606201,0.931844468018206,0.05378257891637096,-0.1446921895037585,0.3283859656197353
1728333411487016000,1.105015869140625,0.7824168801307678,-0.589712917804718,1.1435792446136475,-0.31062716245651245,-0.00952240638434887,-0.9504841566085815,-0.125011146068573,0.10917764157056808,0.04244881868362427,0.9292731026936907,0.057761188699784506,-0.14636113062268277,0.3342056423753406
1728333411497047000,1.115047119140625,0.8754943609237671,-0.5518078207969666,1.1682435274124146,-0.31611955165863037,-0.013962455093860626,-0.948616623878479,-0.1497769057750702,0.1251838505268097,0.02083641290664673,0.9266711593469933,0.061794633183623895,-0.14789563742519507,0.33998350317188797
1728333411507076900,1.125076904296875,1.0188381671905518,-0.48997533321380615,1.2139465808868408,-0.3211717903614044,-0.019447170197963715,-0.9468212723731995,-0.15059930086135864,0.13166038691997528,-0.0002002716064453125,0.9239436738227941,0.06631531409431084,-0.14896863833011642,0.34603276290343393
1728333411517108000,1.13510791015625,1.1264941692352295,-0.4162119925022125,1.2343794107437134,-0.32562756538391113,-0.025935789570212364,-0.9451423287391663,-0.12183627486228943,0.11661885678768158,-0.020174503326416016,0.9211038074712207,0.07126422393958985,-0.14949999538957634,0.35233347443419805
1728333411527139000,1.14513916015625,1.1893974542617798,-0.3624829947948456,1.2501142024993896,-0.3295498788356781,-0.03314371407032013,-0.9435562491416931,-0.08869338035583496,0.0949724018573761,-0.00714266300201416,0.9181842611176643,0.07649101609760256,-0.14956939869605618,0.358769846166065
1728333411537170000,1.155169921875,1.1482431888580322,-0.3412116467952728,1.2646933794021606,-0.3332217335700989,-0.040363859385252,-0.9419841170310974,-0.04507404565811157,0.04124893993139267,0.028791308403015137,0.9151834989989677,0.08170013420970004,-0.14944242498489854,0.36528238079343256
1728333411547201000,1.165200927734375,0.9575120806694031,-0.3231343626976013,1.2354739904403687,-0.3368052542209625,-0.046463873237371445,-0.9404271841049194,-0.0016192495822906494,-0.034438151866197586,0.057584166526794434,0.9121853427459252,0.08635255766370313,-0.14943104343196129,0.37166040155232677
1728333411557230800,1.17523095703125,0.691098153591156,-0.31063389778137207,1.167145848274231,-0.34024927020072937,-0.05042622983455658,-0.9389822483062744,0.02176797389984131,-0.09541720151901245,0.07101649045944214,0.9093425659751004,0.08991071876260533,-0.14974962884028473,0.37760713633891774
1728333411567262000,1.185261962890625,0.5586308836936951,-0.36624443531036377,1.1388832330703735,-0.3439612090587616,-0.052488505840301514,-0.9375156760215759,0.021970391273498535,-0.11277937144041061,0.06785619258880615,0.9066291062555558,0.0925754043677969,-0.15057209671103902,0.38312081295756456
1728333411577292800,1.195292724609375,0.5731391310691833,-0.3464701473712921,1.1335334777832031,-0.3478694558143616,-0.05403098464012146,-0.9359847903251648,0.01541110873222351,-0.09338410198688507,0.05408775806427002,0.9039029946624046,0.09503935950596576,-0.15157551642406192,0.3885249437766389
1728333411587324000,1.205323974609375,0.6809620261192322,-0.31784144043922424,1.1202256679534912,-0.351549357175827,-0.05612713471055031,-0.9344853162765503,0.002672523260116577,-0.03991162031888962,-0.03687399625778198,0.9011498560024791,0.09773175751429353,-0.1523346610986763,0.39391818045949367
1728333411597355000,1.21535498046875,0.9115706086158752,-0.2414560616016388,1.1094422340393066,-0.35478201508522034,-0.05982496589422226,-0.9330330491065979,-0.032669007778167725,0.05195150151848793,-0.06846237182617188,0.8983353981842453,0.10110442946985948,-0.15251677986720458,0.3993869068781593
1728333411607385900,1.2253857421875,1.1615593433380127,-0.0941329300403595,1.108283519744873,-0.35699743032455444,-0.06584645062685013,-0.9317816495895386,-0.06144419312477112,0.134923055768013,-0.0942041277885437,0.8954370153736136,0.10537993974398807,-0.15167146622730882,0.405072068643005
1728333411617416000,1.235416015625,1.3439393043518066,0.01923091523349285,1.0878019332885742,-0.35799574851989746,-0.07386372238397598,-0.9307971000671387,-0.0719967782497406,0.17637233436107635,-0.1311841607093811,0.8924996787496638,0.11033038279569965,-0.14976202546555864,0.4109050209273119
1728333411627446800,1.24544677734375,1.4577596187591553,0.09461754560470581,1.038489818572998,-0.3582595884799957,-0.08351819217205048,-0.9298788905143738,-0.07016125321388245,0.16852498054504395,-0.09421473741531372,0.8895399456901678,0.11585586330527975,-0.14709850943811786,0.4167229265811198
1728333411637478000,1.255477783203125,1.3245211839675903,0.15544366836547852,0.9662156105041504,-0.3578653931617737,-0.09326706826686859,-0.929103672504425,-0.05099371075630188,0.11598747223615646,-0.08253884315490723,0.8867091725603388,0.12120185327349052,-0.14407736559324685,0.4222541097350683
1728333411647508700,1.2655087890625,1.202146291732788,0.1733052283525467,0.9463518857955933,-0.35721883177757263,-0.10186821222305298,-0.9284490346908569,-0.03198695182800293,0.08274901658296585,-0.06094616651535034,0.8840297810927433,0.12587768414234268,-0.1411747293815385,0.42745266534918597
1728333411657539800,1.275539794921875,1.107117772102356,0.22074490785598755,0.9719981551170349,-0.3563447594642639,-0.10953201353549957,-0.9279122352600098,-0.007516145706176758,0.052113257348537445,-0.006429195404052734,0.8813640469496062,0.13003535551927747,-0.1383281574900862,0.4326124410411205
1728333411667570400,1.2855703125,0.9192911982536316,0.33286529779434204,0.9549816250801086,-0.3548594117164612,-0.11588168144226074,-0.927710235118866,0.01352044939994812,0.0033481717109680176,0.004294037818908691,0.8787798892038603,0.13340410774427783,-0.13545567092479366,0.4377225808751195
1728333411677601300,1.295601318359375,0.7451810240745544,0.4475420117378235,0.9035876393318176,-0.3522951602935791,-0.12056033313274384,-0.9280912280082703,-0.00097617506980896,-0.01632620394229889,0.05565464496612549,0.8764462321218617,0.13567181272815695,-0.13246718180523187,0.44259174437522825
1728333411687632400,1.30563232421875,0.6777405142784119,0.5840513706207275,0.8843502998352051,-0.34846892952919006,-0.12429364770650864,-0.9290427565574646,-0.03022351861000061,-0.019184686243534088,0.1204642653465271,0.8743193883489716,0.13713861507298936,-0.12911860437999725,0.4473106588886632
1728333411697663200,1.315663330078125,0.6515098214149475,0.7288268804550171,0.9220036864280701,-0.3434697687625885,-0.1276223361492157,-0.9304520487785339,-0.04839101433753967,-0.05945034325122833,0.14605873823165894,0.8722486935133114,0.13810564569707384,-0.1253028466299747,0.4521150445578586
1728333411707694300,1.3256943359375,0.5679675340652466,0.9124014973640442,0.9744695425033569,-0.3369537591934204,-0.13034914433956146,-0.9324544072151184,-0.04996320605278015,-0.12671563029289246,0.18579602241516113,0.8701688714692272,0.13841545642684988,-0.1208881924977823,0.45720141276144044
1728333411717724400,1.335724365234375,0.4517148733139038,1.102216124534607,1.0199116468429565,-0.3288182318210602,-0.13204427063465118,-0.9351164698600769,-0.050850749015808105,-0.20044468343257904,0.2203947901725769,0.8681165467078915,0.13783013364994434,-0.11595087756627194,0.46252764210444985
1728333411727755300,1.34575537109375,0.2565818727016449,1.3201314210891724,1.0500966310501099,-0.3187564015388489,-0.1322540044784546,-0.9385644793510437,-0.056716471910476685,-0.28524166345596313,0.24430477619171143,0.8661403054866481,0.13605359738555584,-0.11048615570785522,0.46806319389532663
1728333411737786400,1.355786376953125,-0.0825861319899559,1.5213176012039185,1.0927634239196777,-0.30672746896743774,-0.1299869865179062,-0.9428794384002686,-0.05048063397407532,-0.37478893995285034,0.21277683973312378,0.864324107510353,0.13260989987748353,-0.10476111967560148,0.4736913773531124
1728333411747817200,1.365817138671875,-0.5003407597541809,1.7075436115264893,1.2053850889205933,-0.292800635099411,-0.12397655844688416,-0.9481021165847778,-0.04763805866241455,-0.43165695667266846,0.23728662729263306,0.8626050556322536,0.12697174536191577,-0.09913185794204456,0.4795450485110681
1728333411757848300,1.375848388671875,-0.8791844844818115,1.8276116847991943,1.3628442287445068,-0.2774350643157959,-0.11384011805057526,-0.9539759755134583,-0.022186338901519775,-0.45448869466781616,0.27792006731033325,0.8607902805171948,0.11913041149063396,-0.09391458567157791,0.4858270034680338
1728333411767879200,1.385879150390625,-1.191031813621521,1.9657608270645142,1.534757375717163,-0.26077505946159363,-0.1001402735710144,-0.9601917862892151,0.017031341791152954,-0.4658081531524658,0.2962208390235901,0.8586977788585382,0.10941225421098047,-0.08906772009318031,0.4926804494131487
1728333411777909200,1.3959091796875,-1.4174903631210327,2.1135120391845703,1.7038291692733765,-0.24250663816928864,-0.08353489637374878,-0.9665466547012329,0.04583626985549927,-0.46597981452941895,0.2980438470840454,0.8562459111997662,0.09804390819391606,-0.08434490473213342,0.5001161398682055
1728333411787940400,1.4059404296875,-1.5027426481246948,2.2466211318969727,1.9256726503372192,-0.22271326184272766,-0.06515943259000778,-0.9727039933204651,0.05418010056018829,-0.44607099890708923,0.3280201554298401,0.8532332614142012,0.08556585642517942,-0.07953924371815774,0.5082763881571937
1728333411797971200,1.41597119140625,-1.520535945892334,2.393775224685669,2.1349270343780518,-0.2011393904685974,-0.046151433140039444,-0.9784747958183289,0.06674012541770935,-0.43488186597824097,0.35738104581832886,0.8495019747344478,0.07240532814605345,-0.07429707798487595,0.5172848579108308
1728333411808002300,1.426002197265625,-1.4439024925231934,2.6171000003814697,2.320671319961548,-0.1773681789636612,-0.027381010353565216,-0.983763575553894,0.08132950961589813,-0.434441477060318,0.39036452770233154,0.8450597536464804,0.05878529895845828,-0.06828243934128504,0.5270254700820118
1728333411818033200,1.436033203125,-1.2457046508789062,2.8257100582122803,2.473517894744873,-0.15088346600532532,-0.010202656500041485,-0.9884989261627197,0.08691878616809845,-0.42172786593437195,0.4163706302642822,0.839876871497452,0.045090203746593796,-0.06097066800640013,0.5374533681213503
1728333411828063200,1.446063232421875,-1.2879652976989746,3.0456786155700684,2.437312126159668,-0.12176486104726791,0.005450274795293808,-0.9925439953804016,0.11531054228544235,-0.3948698043823242,0.3600519299507141,0.834235556469202,0.031207562672703856,-0.0524793570869768,0.548017305258771
1728333411838094300,1.45609423828125,-1.4860397577285767,3.168915033340454,2.239211082458496,-0.09035085886716843,0.021622441709041595,-0.995675265789032,0.14574041962623596,-0.2951819896697998,0.295205295085907,0.8286477392364173,0.016276965493103968,-0.04355959206340558,0.5578356180998214
1728333411848125200,1.466125244140625,-1.7014164924621582,3.161348581314087,2.048487424850464,-0.058021701872348785,0.03922142833471298,-0.9975445866584778,0.20262938737869263,-0.07330955564975739,0.2684643864631653,0.8233216201378744,0.00028885340629101623,-0.03503760527245695,0.5664923202019865
1728333411858156300,1.47615625,-1.6697427034378052,2.987950325012207,2.0162410736083984,-0.026220418512821198,0.057073455303907394,-0.9980255961418152,0.34720444679260254,0.232309490442276,0.18488478660583496,0.8179490539805961,-0.01582629299262144,-0.02714268823434728,0.5744318872157554
1728333411868187100,1.486187255859375,-1.221916913986206,2.674896001815796,2.1774234771728516,0.0035989824682474136,0.07200907170772552,-0.9973974823951721,0.5359824299812317,0.5565767288208008,0.09903627634048462,0.812063089349089,-0.03032554305079609,-0.019535091300136632,0.5824534714404525
1728333411878218500,1.496218505859375,-0.47964924573898315,2.3380377292633057,2.3089210987091064,0.03028757870197296,0.08003053069114685,-0.9963321685791016,0.6681073307991028,0.7839373350143433,0.03141212463378906,0.8054783295498492,-0.041258220273746024,-0.011475109933906952,0.5910759399569334
1728333411888248300,1.506248291015625,-0.03295645862817764,2.2305874824523926,2.271080255508423,0.05484757944941521,0.08120466768741608,-0.9951871633529663,0.6549761891365051,0.8277156352996826,0.018319547176361084,0.7986560396684435,-0.04899357666397239,-0.002456412433051262,0.599785107758271
1728333411898279200,1.516279052734375,0.06804312020540237,2.2782459259033203,2.126636505126953,0.07908331602811813,0.07928094267845154,-0.9937103986740112,0.4530975818634033,0.7121161222457886,0.10378730297088623,0.7919471631395125,-0.05560972296488072,0.0072358995115051955,0.6080089153953248
1728333411908310500,1.526310546875,-0.3773421347141266,2.318565607070923,1.8048149347305298,0.10351733863353729,0.07848560810089111,-0.991526186466217,0.20583948493003845,0.4551600217819214,0.28881317377090454,0.7857158554017728,-0.06293988597534823,0.016597590440049815,0.6151533269007399
1728333411918341400,1.53634130859375,-1.2923580408096313,2.3708114624023438,1.471928596496582,0.1281341314315796,0.0846773162484169,-0.9881353378295898,0.008508443832397461,0.1864255666732788,0.44762325286865234,0.7801229972608721,-0.07324097986268786,0.0238349272309345,0.6208668160363692
1728333411928372500,1.54637255859375,-2.202436685562134,2.282311201095581,1.211077332496643,0.15247149765491486,0.10001923888921738,-0.9832337498664856,-0.1009577214717865,0.07867641746997833,0.6227754354476929,0.7749155986152737,-0.08716161416584095,0.02803539176686551,0.6253978684600863
1728333411938402300,1.55640234375,-2.926927328109741,2.6379811763763428,0.897196888923645,0.1772933304309845,0.12366488575935364,-0.9763575792312622,-0.09211865067481995,0.07367701083421707,0.6752711534500122,0.7699516015202207,-0.10458276227253974,0.029726590046156135,0.6287712094472733
1728333411948433400,1.566433349609375,-3.706380844116211,1.6496648788452148,0.4529906213283539,0.2009464055299759,0.15430229902267456,-0.9673734307289124,-0.08092066645622253,0.19820620119571686,0.7075163125991821,0.7656482692039926,-0.12444424466560204,0.02875615447552552,0.630451837752899
1728333411958464500,1.576464599609375,-4.935538291931152,0.5439985990524292,0.6460322737693787,0.2112080603837967,0.19544769823551178,-0.9577010869979858,-0.19489631056785583,0.43501490354537964,1.2445510625839233,0.7609251955080298,-0.1441868016218047,0.01896397979435055,0.6323315470459365
1728333411968495400,1.586495361328125,-4.583324909210205,-0.34251919388771057,0.5981848835945129,0.2140335887670517,0.24015629291534424,-0.9468445181846619,-0.12307582795619965,0.6740435361862183,1.2612671852111816,0.7551158165403508,-0.16295944389575975,0.00468522581929876,0.6349979050410902
1728333411978526500,1.5965263671875,-4.018333435058594,-0.5954382419586182,0.49669548869132996,0.20982593297958374,0.2795476019382477,-0.9369238018989563,-0.03526526689529419,0.7299737930297852,0.16858279705047607,0.7498111087768885,-0.1772632634986801,-0.0107626640877963,0.6373736265656926
1728333411988556300,1.606556396484375,-2.9551265239715576,0.42751917243003845,1.0376263856887817,0.21085014939308167,0.311550498008728,-0.9265411496162415,-0.4571879506111145,0.7847476601600647,-0.30026543140411377,0.7441917067801429,-0.1903787987783683,-0.022030502011108368,0.6398821343810338
1728333411998587400,1.61658740234375,-0.616723358631134,1.0901315212249756,1.1543024778366089,0.22150661051273346,0.3258928656578064,-0.9190912246704102,-0.6887916326522827,0.9452099800109863,-0.41806697845458984,0.73879955939588,-0.19970133938164966,-0.02395351449263054,0.6432112757430892
1728333412008618200,1.6266181640625,1.8013203144073486,1.1547411680221558,0.6646171808242798,0.23567277193069458,0.31826457381248474,-0.9182406663894653,-0.8630988001823425,0.9673341512680054,-0.4268215298652649,0.7364284637722202,-0.20150151362597904,-0.016637110369701173,0.6455952769713798
1728333412018649300,1.6366494140625,3.781338691711426,0.5606937408447266,-0.32092052698135376,0.24410969018936157,0.2913641333580017,-0.9249418377876282,-1.2482142448425293,0.9812798500061035,-0.2615510821342468,0.7387033114907734,-0.1936821176929525,-0.004040403090386587,0.6455913729371565
1728333412028680400,1.646680419921875,4.335150718688965,0.637910008430481,-1.05643630027771,0.24694038927555084,0.2542896568775177,-0.9350706934928894,-1.4108654260635376,0.9693889021873474,-0.11596989631652832,0.7450102853085511,-0.1798630846397572,0.010673322161013235,0.6422577606977962
1728333412038711300,1.656711181640625,4.173348426818848,1.823380470275879,0.08608054369688034,0.2581501603126526,0.21631963551044464,-0.9415754675865173,-1.3730030059814453,0.8079417943954468,0.043458402156829834,0.7503191842976424,-0.16850400143474045,0.028612576747578156,0.638599187185792
1728333412048741400,1.666741455078125,3.171046733856201,0.7520735263824463,0.7673733830451965,0.2709443271160126,0.17877255380153656,-0.9458485841751099,-0.9480377435684204,0.31889280676841736,0.22632044553756714,0.7515892898602836,-0.15799632582988696,0.045965973051331474,0.6387783711522246
1728333412058772200,1.676772216796875,0.8369279503822327,1.0375580787658691,0.26780346035957336,0.28036290407180786,0.15797238051891327,-0.9468058943748474,-0.3633400797843933,-0.49928098917007446,0.027769029140472412,0.7511631411289872,-0.15307032823061484,0.05627201497269837,0.6396536130666718
1728333412068803300,1.68680322265625,-0.5591884255409241,0.3253781497478485,-0.10578742623329163,0.2875825762748718,0.15763749182224274,-0.944693922996521,-0.33306893706321716,-0.8884267210960388,0.23783057928085327,0.7507911971842754,-0.1553942699335584,0.05920849882539131,0.6392647081546436
1728333412078834200,1.696834228515625,-0.9138309359550476,-0.7047556638717651,-0.2760566473007202,0.28508850932121277,0.16505834460258484,-0.9441823363304138,-0.2104576826095581,-1.0566141605377197,0.2605886459350586,0.7509027887008306,-0.15744172443476034,0.05586536799691237,0.6389335164522079
1728333412088865300,1.706865234375,-1.1387567520141602,-0.9263170957565308,-0.34211528301239014,0.27651306986808777,0.17609460651874542,-0.9447386860847473,0.16052928566932678,-0.9580923318862915,-0.2575470209121704,0.7512199480580295,-0.15884724154423027,0.04897146426042459,0.6387784016967714
1728333412098895400,1.716895263671875,-0.7181863188743591,-0.511671781539917,-0.5439280271530151,0.2684269845485687,0.18649040162563324,-0.9450758099555969,0.25263020396232605,-0.3640874922275543,-0.5048295259475708,0.7520290897468539,-0.16014353830033903,0.04261631335558313,0.637957594180177
1728333412108926200,1.72692626953125,0.18206702172756195,0.3155028820037842,-0.7276674509048462,0.2662932872772217,0.1905544251203537,-0.9448686838150024,0.20489823818206787,0.3289615511894226,-0.6733105778694153,0.7539168743887424,-0.1609003365819263,0.0409478631366682,0.6356441551604913
1728333412118957300,1.736957275390625,0.6708313822746277,0.5318325757980347,-0.5189656615257263,0.26970961689949036,0.18816159665584564,-0.9443790912628174,0.2402392327785492,0.8683264255523682,-0.7332789301872253,0.7562628209604358,-0.16094267716832442,0.043679475029930435,0.6326578178696531
1728333412128988200,1.74698828125,1.0998445749282837,-0.4507705569267273,0.13011139631271362,0.27017727494239807,0.1803029477596283,-0.9457774758338928,0.5884196758270264,1.0725198984146118,-0.5699390172958374,0.7576119859227198,-0.1579021363061474,0.04667083219487934,0.6315953333686204
1728333412139019300,1.757019287109375,1.5270535945892334,-1.4097918272018433,0.6477766633033752,0.26158633828163147,0.16652148962020874,-0.9507066607475281,1.232508659362793,0.7442145347595215,-0.49875617027282715,0.757563154395214,-0.1496340602990315,0.04750066717674952,0.6336018011756188
1728333412149049300,1.76704931640625,1.6132700443267822,-1.7458136081695557,0.6455934047698975,0.24732543528079987,0.14937247335910797,-0.9573494791984558,1.5284467935562134,0.16457708179950714,-0.5254996418952942,0.756905891442212,-0.13825179031140208,0.04702887828153128,0.6369992319325208
1728333412159080200,1.777080078125,1.3163756132125854,-1.7201509475708008,0.04981548711657524,0.2310083657503128,0.13434500992298126,-0.9636319279670715,1.0592138767242432,-0.12406061589717865,-0.4154115915298462,0.7570890982772864,-0.12700024050083236,0.04533171239934448,0.6392432035418139
1728333412169111300,1.787111328125,1.1403182744979858,-1.6018669605255127,-0.7047373652458191,0.2143254280090332,0.12308686226606369,-0.968975841999054,0.20365869998931885,-0.02379794418811798,-0.11195671558380127,0.7593052368044855,-0.11699032968920736,0.04272389424973047,0.6387044187205725
1728333412179142100,1.79714208984375,0.6842623949050903,-0.9546202421188354,-0.8078158497810364,0.20057691633701324,0.11561846733093262,-0.9728315472602844,-0.4802703857421875,0.029797770082950592,0.2007063627243042,0.7627283511781885,-0.10937500531351697,0.040265657050301745,0.6361297654274585
1728333412189173200,1.80717333984375,0.1256415694952011,-0.2475413829088211,-0.12522584199905396,0.1942918598651886,0.1126534566283226,-0.9744536280632019,-0.8310257792472839,-0.04310392588376999,0.3066222667694092,0.764613452773536,-0.1060622436983848,0.039038312122475785,0.6345020837080358
1728333412199204000,1.8172041015625,-0.22606712579727173,0.06570866703987122,0.2786710262298584,0.19381192326545715,0.11302785575389862,-0.9745058417320251,-0.774347722530365,-0.135610893368721,0.3327517509460449,0.7641960308846802,-0.10607766013371814,0.03866018732922236,0.6350253415075411
1728333412209234200,1.827234130859375,-0.366660475730896,-0.018463734537363052,-0.054628632962703705,0.1943199187517166,0.11567775905132294,-0.9740936160087585,-0.47396761178970337,-0.19477933645248413,0.2522919178009033,0.7635627791619457,-0.10731090389290823,0.037915046929715104,0.6356244856586126
1728333412219265300,1.837265380859375,-0.37263941764831543,-0.16221968829631805,-0.5425508618354797,0.19297736883163452,0.11984680593013763,-0.973856508731842,-0.18868952989578247,-0.12514162063598633,0.10682159662246704,0.7643949878615012,-0.10844773731601468,0.036205544075464134,0.6345300502016865
1728333412229296000,1.847296142578125,-0.39114251732826233,-0.3558887243270874,-0.4481423795223236,0.1899394989013672,0.12456819415092468,-0.9738612771034241,0.03842365741729736,-0.014521822333335876,0.10281330347061157,0.7659401437275101,-0.1092174311564439,0.03377756856574714,0.632666010739744
1728333412239327200,1.8573271484375,-0.41873157024383545,-0.6500251889228821,-0.09642881155014038,0.18452982604503632,0.12904669344425201,-0.9743180871009827,0.25368744134902954,0.0881011039018631,0.058989107608795166,0.7666344097944953,-0.10917970943423704,0.03034400632343192,0.6320052832398154
1728333412249358300,1.8673583984375,-0.35109633207321167,-0.7391537427902222,-0.057623621076345444,0.1775878369808197,0.1328858882188797,-0.9750917553901672,0.37935811281204224,0.1255979835987091,-0.052160441875457764,0.7667026131599837,-0.10843044188330439,0.026400202335359262,0.6322284701832276
1728333412259388200,1.87738818359375,-0.35634851455688477,-0.7575712203979492,-0.16134442389011383,0.17000097036361694,0.1364663988351822,-0.9759490489959717,0.2311527132987976,0.07306726276874542,-0.22301024198532104,0.7669601425384936,-0.10736526678766113,0.02231959167971247,0.6322551833567877
1728333412269419300,1.887419189453125,-0.4796576499938965,-0.6849225759506226,-0.16414180397987366,0.16262583434581757,0.14074498414993286,-0.9765980243682861,-0.016736432909965515,-0.015928104519844055,-0.25878405570983887,0.7673759639175166,-0.10664030933519017,0.018133843146152403,0.6320072127936668
1728333412279450400,1.897450439453125,-0.6005598902702332,-0.5792204141616821,-0.03569275885820389,0.1563398540019989,0.1461562067270279,-0.9768296480178833,-0.14327819645404816,-0.03664389252662659,-0.15698987245559692,0.7674374879920266,-0.10672457802339057,0.013965194178753054,0.6320241564060306
1728333412289481500,1.9074814453125,-0.9739934206008911,-0.5571497082710266,-0.08840443938970566,0.15056435763835907,0.15368153154850006,-0.9765819907188416,-0.14578823745250702,-0.023722440004348755,-0.025920450687408447,0.7672287609691063,-0.10780863441063622,0.009290276459202251,0.6321795397453166
1728333412299512300,1.91751220703125,-1.3993233442306519,-0.4392942786216736,-0.11384934931993484,0.14550717175006866,0.16567417979240417,-0.9753869771957397,-0.09028549492359161,0.018438339233398438,0.08804261684417725,0.7669368212264708,-0.11088008972259425,0.0034821481461065275,0.6320611935173409
1728333412309542400,1.92754248046875,-1.2057621479034424,-0.4388769567012787,-0.0675758570432663,0.1412196159362793,0.17886702716350555,-0.9736855626106262,-0.012404799461364746,0.07496289908885956,0.2602609395980835,0.766449600074779,-0.11467907737408797,-0.0024332733078239193,0.6319791539807081
1728333412319573500,1.937573486328125,-0.8364750742912292,-0.5736820697784424,-0.19014623761177063,0.13596677780151367,0.18884757161140442,-0.9725480079650879,0.11604750156402588,0.04407781362533569,0.08102273941040039,0.7662376159691812,-0.11690670095367395,-0.007669486868894418,0.6317861783933012
1728333412329604400,1.947604248046875,-0.5957290530204773,-0.7043801546096802,-0.2693084478378296,0.12927745282649994,0.19607505202293396,-0.9720298051834106,0.1471356302499771,0.015060782432556152,-0.09333884716033936,0.766556109145485,-0.11759547446904767,-0.012506444277733366,0.6311945224089353
1728333412339635500,1.957635498046875,-0.3468518555164337,-0.7944487929344177,-0.19810377061367035,0.12140994518995285,0.2009751945734024,-0.972043514251709,0.1085859090089798,0.07362192869186401,-0.12285083532333374,0.7669679256067263,-0.11699272566230032,-0.017057142054979813,0.6306994847750115
1728333412349666300,1.967666259765625,-0.10286770015954971,-0.7677945494651794,-0.19637377560138702,0.11328597366809845,0.20323088765144348,-0.9725551605224609,0.0761215016245842,0.09680265188217163,-0.20629310607910156,0.7673690124214975,-0.11526684747498725,-0.02088029681569581,0.6304143806117755
1728333412359697400,1.977697509765625,-0.1787819117307663,-0.699268102645874,-0.25855886936187744,0.10566294938325882,0.2046375423669815,-0.9731180667877197,0.006870746612548828,0.0246562659740448,-0.317638099193573,0.7679429844061058,-0.11337948440793535,-0.02420837055442417,0.6299386666984299
1728333412369727500,1.9877275390625,-0.40473514795303345,-0.7532634139060974,-0.27406778931617737,0.09804639965295792,0.20766544342041016,-0.9732738137245178,-0.05867859721183777,-0.034905463457107544,-0.2171100378036499,0.7685494095824823,-0.11214757194739666,-0.02803572291911532,0.6292605145076073
1728333412379758300,1.99775830078125,-0.520322322845459,-0.8016874194145203,-0.2342018485069275,0.08987272530794144,0.21265599131584167,-0.9729852676391602,-0.04629349708557129,-0.03394508361816406,0.017998695373535156,0.7689607779076884,-0.11151729416245999,-0.032730143962266325,0.6286429344279133
1728333412389789400,2.00778955078125,-0.33609575033187866,-0.793714165687561,-0.24283422529697418,0.08152572065591812,0.21696124970912933,-0.9727699756622314,0.010866381227970123,-0.011303320527076721,0.061972856521606445,0.7693212993298078,-0.11056561342132895,-0.037286334095190006,0.6281159959042577
1728333412399820300,2.0178203125,-0.20229043066501617,-0.7889118790626526,-0.2919325530529022,0.07321545481681824,0.21972952783107758,-0.9728095531463623,0.04085938632488251,0.0003326982259750366,-0.0640861988067627,0.7698721157993745,-0.10903391910216277,-0.04131376102218696,0.6274564835108265
1728333412409851400,2.027851318359375,-0.13651540875434875,-0.8549132943153381,-0.28512418270111084,0.06455464661121368,0.2214300036430359,-0.9730372428894043,0.044591598212718964,0.021947652101516724,-0.1260838508605957,0.7705299993763628,-0.10698095048063859,-0.04512716770612331,0.6267392565607365
1728333412419881200,2.037881103515625,-0.24570389091968536,-0.9148664474487305,-0.3026147484779358,0.055205512791872025,0.22331608831882477,-0.9731815457344055,0.07383819669485092,0.013713911175727844,-0.13813132047653198,0.7711362526650472,-0.10478945170809773,-0.04927891368459382,0.6260507330505563
1728333412429912300,2.047912353515625,-0.5108015537261963,-0.9567182660102844,-0.3720625340938568,0.045308101922273636,0.22703517973423004,-0.9728320240974426,0.09554591029882431,-0.04421967267990112,-0.1704937219619751,0.771753171146802,-0.10317123343579425,-0.05421874001054385,0.625150369805946
1728333412439943400,2.057943359375,-0.7706761956214905,-1.0012890100479126,-0.4146627187728882,0.03481777757406235,0.23352161049842834,-0.9717280268669128,0.0741606205701828,-0.07714958488941193,-0.10207873582839966,0.7723770964956399,-0.10249429877197712,-0.060256972808281906,0.6239370836723465
1728333412449974300,2.067974365234375,-0.8139277696609497,-0.9689195156097412,-0.47145330905914307,0.024056371301412582,0.24139702320098877,-0.9701282382011414,0.046241000294685364,-0.08027949929237366,0.0023090243339538574,0.7730257157523638,-0.10231872199122215,-0.06683389458360739,0.6224912060077076
1728333412460005400,2.07800537109375,-0.7739124894142151,-0.813511073589325,-0.5558461546897888,0.014094776473939419,0.24914990365505219,-0.9683623313903809,0.01648397371172905,-0.07486405968666077,0.058145105838775635,0.7739408205727016,-0.10240751631495339,-0.07301726217376169,0.6206422200186352
1728333412470035200,2.08803515625,-0.5309765338897705,-0.6645200252532959,-0.5169933438301086,0.005555979907512665,0.2556849718093872,-0.9667441844940186,-0.06744549423456192,-0.022622257471084595,0.17215800285339355,0.7750124022725832,-0.10250252154809261,-0.07823770870338465,0.6186499957738012
1728333412480066300,2.09806640625,-0.20205865800380707,-0.5571672320365906,-0.41560786962509155,-0.001583159901201725,0.25907769799232483,-0.9658551812171936,-0.1327093094587326,0.04998904466629028,0.2338910698890686,0.7760339314103584,-0.10177567587975568,-0.08193971308444868,0.6170081128355231
1728333412490097400,2.108097412109375,-0.051755182445049286,-0.4635466933250427,-0.3964807987213135,-0.0075661963783204556,0.26016029715538025,-0.9655358195304871,-0.14378559589385986,0.08119404315948486,0.15166246891021729,0.7770023051368602,-0.10047488038782985,-0.0844801833146485,0.6156583495139571
1728333412500128300,2.118128173828125,-0.030073387548327446,-0.4593660235404968,-0.38275033235549927,-0.013062314130365849,0.2603854835033417,-0.9654163718223572,-0.1347036510705948,0.08159446716308594,0.07311290502548218,0.777994739161183,-0.09898851440230642,-0.08656262161497263,0.6143551849736693
1728333412510159400,2.128159423828125,-0.20972144603729248,-0.5372501611709595,-0.42492493987083435,-0.01889326609671116,0.2612833082675934,-0.9650772213935852,-0.07717593014240265,0.03734642267227173,-0.005931079387664795,0.7789380923055068,-0.09767635619294261,-0.08899837788349756,0.6130203428612676
1728333412520190200,2.138190185546875,-0.5552863478660583,-0.5901482105255127,-0.5248733758926392,-0.025689922273159027,0.2648926377296448,-0.9639356136322021,0.02279089204967022,-0.05509960651397705,-0.09447497129440308,0.779960654724133,-0.09720422082723638,-0.09264729701335012,0.6112521101098045
1728333412530220300,2.14822021484375,-0.7158142924308777,-0.5763700008392334,-0.5249316692352295,-0.03280021622776985,0.270862877368927,-0.962058961391449,0.05007330700755119,-0.08339342474937439,-0.017646849155426025,0.7809967624819645,-0.09763342985850086,-0.0971505827411897,0.6091579705580795
1728333412540251100,2.158251220703125,-0.8937430381774902,-0.5582035183906555,-0.4569321572780609,-0.039633236825466156,0.2784461975097656,-0.9596337676048279,0.038229573518037796,-0.0552101731300354,0.05103391408920288,0.781825692207388,-0.09881195972416484,-0.10207510795757341,0.6070957690950397
1728333412550282200,2.1682822265625,-0.7265031933784485,-0.4749331474304199,-0.4380500614643097,-0.04588901251554489,0.28616753220558167,-0.9570801258087158,0.01625658944249153,-0.019031941890716553,0.17558598518371582,0.782479399026102,-0.10022492313653049,-0.10684056999945396,0.6051991485172459
1728333412560313300,2.178313232421875,-0.4771628677845001,-0.38313546776771545,-0.4846271574497223,-0.05137332156300545,0.29160481691360474,-0.9551582932472229,-0.0037870556116104126,-0.003198474645614624,0.1768837571144104,0.7833468056827937,-0.10098171498048573,-0.11056011605772934,0.6032800306472487
1728333412570344200,2.18834423828125,-0.3477902412414551,-0.3205333352088928,-0.45673641562461853,-0.05610394850373268,0.29521363973617554,-0.9537826180458069,-0.04001101851463318,0.0066204071044921875,0.11268764734268188,0.7843884038494898,-0.10125173159001095,-0.11338777255414101,0.60135346901774
1728333412580374300,2.198374267578125,-0.29907694458961487,-0.3610045611858368,-0.37889912724494934,-0.060598667711019516,0.29794231057167053,-0.952658474445343,-0.03531793877482414,0.05439835786819458,0.06049233675003052,0.7853009909835987,-0.10121271470541598,-0.11587386629122817,0.5996927281891548
1728333412590405000,2.208405029296875,-0.4398100972175598,-0.3742623031139374,-0.330581396818161,-0.06521701067686081,0.3010794222354889,-0.9513663649559021,0.022324711084365845,0.06981590390205383,-0.0233040452003479,0.7859672993601627,-0.10127292335604406,-0.11857749755693309,0.598279649524269
1728333412600436200,2.218436279296875,-0.6798269748687744,-0.43682944774627686,-0.29070988297462463,-0.07002385705709457,0.3061474859714508,-0.9494052529335022,0.057572826743125916,0.04846674203872681,-0.0318569540977478,0.7863835744739102,-0.10205744067592558,-0.12199033777021304,0.596911588359963
1728333412610467000,2.228467041015625,-0.9024999737739563,-0.540000319480896,-0.27422305941581726,-0.07555360347032547,0.31338009238243103,-0.9466174244880676,0.06362137198448181,0.016499638557434082,-0.007774055004119873,0.7865035212935643,-0.1035005549082711,-0.12640774190535306,0.5955845645222972
1728333412620498400,2.23849853515625,-1.0690844058990479,-0.5799267888069153,-0.34115707874298096,-0.08193124085664749,0.32256019115448,-0.9429963827133179,0.06392601132392883,-0.03430643677711487,-0.01586592197418213,0.7865298186120412,-0.1055245156372943,-0.13178155796779534,0.5940278793694972
1728333412630528300,2.2485283203125,-0.9853407144546509,-0.5557956695556641,-0.3848313093185425,-0.0885164737701416,0.33202242851257324,-0.9391090869903564,0.019928358495235443,-0.06600072979927063,0.010413408279418945,0.7866872630898988,-0.1076680678810743,-0.13730634414001788,0.5921803721383233
1728333412640559000,2.25855908203125,-0.811893105506897,-0.5006299614906311,-0.3548659682273865,-0.09483268857002258,0.34004196524620056,-0.9356164932250977,-0.04385429620742798,-0.05476367473602295,0.07122135162353516,0.7869390708061395,-0.10932232647950828,-0.14226871072409572,0.5903685569128384
1728333412650590500,2.268590576171875,-0.6256276369094849,-0.39249396324157715,-0.2751239836215973,-0.10011610388755798,0.3464261293411255,-0.9327195286750793,-0.07543610781431198,-0.00043314695358276367,0.11542826890945435,0.7871670437307619,-0.11059199847459801,-0.14632038851300674,0.5888358819885094
1728333412660621300,2.278621337890625,-0.4377141296863556,-0.34027427434921265,-0.23556672036647797,-0.10439757257699966,0.3510960638523102,-0.9305012822151184,-0.0606260821223259,0.07593637704849243,0.10320031642913818,0.7873495745432469,-0.11141472102603525,-0.1494526926919243,0.5876488002568082
1728333412670653400,2.2886533203125,-0.36237332224845886,-0.37995320558547974,-0.21635255217552185,-0.10853349417448044,0.3543952405452728,-0.9287757873535156,-0.02075408399105072,0.08485949039459229,0.11064529418945312,0.7875371119637113,-0.11169101126747488,-0.15210925698837569,0.5866625913070014
1728333412680684300,2.298684326171875,-0.4955882728099823,-0.4437980055809021,-0.19855916500091553,-0.11314435303211212,0.3579491376876831,-0.9268606901168823,0.019882775843143463,0.042288899421691895,0.051708102226257324,0.7876007584690271,-0.11191549198873779,-0.15506312875082678,0.585760370375941
1728333412690714400,2.30871435546875,-0.7504482865333557,-0.5211856961250305,-0.23400157690048218,-0.11836133897304535,0.36343610286712646,-0.9240697026252747,0.06359768658876419,-0.023302435874938965,-0.06308245658874512,0.7874858632891367,-0.11277772067790716,-0.15889096018586538,0.584722905588346
1728333412700745500,2.318745361328125,-0.9883524775505066,-0.6084040403366089,-0.34162604808807373,-0.12472283840179443,0.3711014986038208,-0.9201781749725342,0.06854011863470078,-0.08461776375770569,-0.09161686897277832,0.7873775986854857,-0.11429062139394743,-0.16385533584309384,0.5832027391402193
1728333412710776300,2.3287763671875,-1.1679186820983887,-0.5701613426208496,-0.3642948865890503,-0.1316002756357193,0.38058075308799744,-0.9153358340263367,0.018410712480545044,-0.09849151968955994,-0.0776757001876831,0.7873199133785977,-0.11650831328876196,-0.16958156339477926,0.5812014853898005
1728333412720807400,2.338807373046875,-1.1572562456130981,-0.49212318658828735,-0.23840591311454773,-0.1376420110464096,0.39093998074531555,-0.9100662469863892,-0.037940725684165955,-0.03205329179763794,-0.07928311824798584,0.7870647448772612,-0.11934781010550151,-0.17527970233689014,0.5792772267924678
1728333412730838300,2.34883837890625,-0.9533753395080566,-0.4480883479118347,-0.1011149138212204,-0.14261561632156372,0.40027308464050293,-0.9052304625511169,-0.04792073369026184,0.04304048418998718,0.014880120754241943,0.7864761564107126,-0.12196694283271657,-0.18030204514154213,0.577988188625117
1728333412740868400,2.358868408203125,-0.7033240795135498,-0.34497106075286865,-0.08590693026781082,-0.1466258466243744,0.40761420130729675,-0.9013054370880127,-0.022029399871826172,0.07392263412475586,0.056823015213012695,0.7858638486648118,-0.12397175427801982,-0.18433198337842352,0.5771227318763397
1728333412750899200,2.368899169921875,-0.5575831532478333,-0.21669431030750275,-0.0985255166888237,-0.14954501390457153,0.41307830810546875,-0.8983332514762878,-0.01956799626350403,0.09215542674064636,0.050356507301330566,0.7854863321265129,-0.12551920183796414,-0.18729204415044137,0.576348749595059
1728333412760930300,2.378930419921875,-0.44287142157554626,-0.13477766513824463,-0.06898680329322815,-0.15143613517284393,0.4173743426799774,-0.8960278034210205,-0.023734629154205322,0.09312370419502258,0.12350577116012573,0.785277642364677,-0.12688798708435084,-0.189434821503467,0.5756326305655051
1728333412770961400,2.38896142578125,-0.41005727648735046,-0.1713138371706009,0.02530374936759472,-0.15294304490089417,0.4209591746330261,-0.8940927386283875,0.003956392407417297,0.07562282681465149,0.16333407163619995,0.784948658145675,-0.12800443104923112,-0.1912289295642968,0.5752407816075635
1728333412780992300,2.3989921875,-0.6331868171691895,-0.17565937340259552,0.1225578561425209,-0.1541135609149933,0.42585259675979614,-0.8915708065032959,0.037856996059417725,0.03471866250038147,0.1616361141204834,0.7842018025964692,-0.1296879689472972,-0.19337947192573515,0.575163231507622
1728333412791022300,2.409022216796875,-0.38869717717170715,-0.20766231417655945,-0.016777923330664635,-0.1556020826101303,0.43066635727882385,-0.8889963626861572,0.06334759294986725,0.02369457483291626,0.05148714780807495,0.7834797281605792,-0.13125633593326524,-0.19563641473452636,0.5750284247909783
1728333412801053200,2.41905322265625,-0.21856974065303802,-0.1349456012248993,-0.1613209843635559,-0.15762338042259216,0.4330156147480011,-0.8874977827072144,0.0206911563873291,0.0210554301738739,-0.15598976612091064,0.7834194266150639,-0.13175362976619168,-0.19721073753075394,0.5744588276225103
1728333412811084300,2.429084228515625,-0.1311432123184204,-0.036881886422634125,-0.06679262220859528,-0.15893633663654327,0.43445903062820435,-0.8865577578544617,-0.11668302118778229,0.04915300011634827,-0.2430962324142456,0.7835738475326427,-0.13210667552978086,-0.19816397215237,0.5738387876700788
1728333412821115100,2.439115234375,0.04567989706993103,0.06244171783328056,0.09852975606918335,-0.15877819061279297,0.43472614884376526,-0.8864551186561584,-0.1788834035396576,0.12653782963752747,-0.11720699071884155,0.783519040716126,-0.13225778610204914,-0.1981926452664092,0.5738687913340724
1728333412831146200,2.449146240234375,0.12497258931398392,0.11340130120515823,0.11470526456832886,-0.15744824707508087,0.4341184198856354,-0.8869900107383728,-0.1570352464914322,0.13404256105422974,-0.04152262210845947,0.7833231203488952,-0.13228556552964196,-0.19749816649185903,0.5743692282719275
1728333412841177300,2.45917724609375,0.3376041054725647,0.1386106312274933,-0.051556941121816635,-0.15617023408412933,0.43210890889167786,-0.8881963491439819,-0.11694666743278503,0.07956400513648987,-0.010393738746643066,0.7835098605599918,-0.13177659447720041,-0.19630783515819014,0.5746392764962495
1728333412851207200,2.469207275390625,0.3188011050224304,0.11383843421936035,-0.022779356688261032,-0.15530948340892792,0.428874135017395,-0.8899134397506714,-0.06225016713142395,0.03217014670372009,-0.03841602802276611,0.7840277722373767,-0.13069168157708572,-0.1948408672977658,0.5746800815653822
1728333412861238300,2.47923828125,0.30185839533805847,0.020713336765766144,0.09131099283695221,-0.15453286468982697,0.4262521266937256,-0.8913072943687439,0.004829034209251404,0.062135905027389526,0.035838544368743896,0.7841700573409042,-0.12974279171393466,-0.1936831166765108,0.57509220226499
1728333412871269400,2.489269287109375,0.4181346893310547,0.03307652845978737,-0.0007052137516438961,-0.15414060652256012,0.42294642329216003,-0.8929484486579895,0.08390454947948456,0.12157869338989258,0.048603355884552,0.7842847870002373,-0.12836039397243706,-0.19248213777242595,0.575648805638357
1728333412881300500,2.499300537109375,0.3596642315387726,0.09833047538995743,0.0004873494617640972,-0.15362510085105896,0.4194847047328949,-0.8946686387062073,0.024230733513832092,0.1266883909702301,-0.0949859619140625,0.7846225614030893,-0.12701903545168614,-0.19113308899489315,0.5759355719705347
1728333412891331300,2.509331298828125,0.7315912246704102,0.11614569276571274,0.01718137413263321,-0.15253961086273193,0.4146600067615509,-0.8971002101898193,-0.09778067469596863,0.0967840850353241,-0.09702521562576294,0.7850348374814426,-0.1252407773004307,-0.18911545045378747,0.5764289708499136
1728333412901361200,2.519361083984375,0.8249964118003845,0.18797838687896729,-0.049022942781448364,-0.15135738253593445,0.40751683712005615,-0.9005670547485352,-0.08898366987705231,0.03393515944480896,-0.13072878122329712,0.7856958673184753,-0.12251411630877966,-0.18629754927533096,0.5770316809330068
1728333412911392500,2.529392578125,1.4246957302093506,0.30724725127220154,-0.10511790961027145,-0.14946134388446808,0.3976406157016754,-0.9052862524986267,-0.10186602175235748,0.0410495400428772,-0.06418091058731079,0.7868214678901327,-0.11890703108739463,-0.18225800423687444,0.5775422767666387
1728333412921423400,2.53942333984375,1.927849292755127,0.41813477873802185,-0.0969928726553917,-0.14663782715797424,0.3817806541919708,-0.9125463962554932,-0.11936849355697632,0.13477513194084167,0.003992259502410889,0.7884373943178958,-0.11303411590187458,-0.17592639795099996,0.5784805331567049
1728333412931454500,2.549454345703125,1.9277284145355225,0.5568806529045105,-0.07948418706655502,-0.1424548476934433,0.363802433013916,-0.9205185770988464,-0.09639081358909607,0.20208501815795898,-0.02757108211517334,0.7902029571675763,-0.10670186133454083,-0.16839071931532673,0.5795158286262829
1728333412941485300,2.5594853515625,1.8889038562774658,0.5570699572563171,0.15201722085475922,-0.13719810545444489,0.34589019417762756,-0.9281899929046631,-0.10193748772144318,0.29857999086380005,0.16915678977966309,0.7916171425454882,-0.1006721931489537,-0.16053073131339485,0.5808935294659479
1728333412951515400,2.569515380859375,1.6447604894638062,0.41710755228996277,0.38817888498306274,-0.13160525262355804,0.3297220766544342,-0.934860110282898,-0.07144330441951752,0.2754262089729309,0.23365771770477295,0.7920461338976887,-0.09530725273875797,-0.15325297675354088,0.5831749283313455
1728333412961546500,2.57954638671875,1.5338993072509766,0.2902997136116028,0.214438796043396,-0.12736180424690247,0.31525424122810364,-0.9404221177101135,0.010266020894050598,0.11499777436256409,0.006248533725738525,0.7920946538266549,-0.09025989825022247,-0.1471125386284592,0.5854887605405082
1728333412971577300,2.589577392578125,1.129289984703064,0.24698658287525177,-0.06297418475151062,-0.12466294318437576,0.3023712635040283,-0.9450030326843262,0.0288531556725502,-0.1315338909626007,-0.25740480422973633,0.7926911051138976,-0.08563234760337343,-0.14200554212916858,0.5866364870373835
1728333412981608400,2.5996083984375,0.6208263039588928,0.25768136978149414,-0.18248406052589417,-0.12266914546489716,0.2940450608730316,-0.9478870034217834,0.025531835854053497,-0.338295578956604,-0.34587520360946655,0.7936222990350077,-0.08286016495179248,-0.13853047112425163,0.5866063551667807
1728333412991639300,2.609639404296875,0.43148350715637207,0.20555981993675232,-0.2029200941324234,-0.1210852563381195,0.2889561057090759,-0.9496539831161499,0.09197163581848145,-0.3596806228160858,-0.0764232873916626,0.7945673586740303,-0.08136287484588503,-0.13620969584429238,0.5860799774343564
1728333413001670400,2.61967041015625,0.46857789158821106,0.18793413043022156,-0.20434196293354034,-0.11989809572696686,0.28455275297164917,-0.951133131980896,0.1066078394651413,-0.19925612211227417,0.10753566026687622,0.7954822591070958,-0.08003553305098483,-0.13426749800342933,0.5854695155624556
1728333413011700500,2.629700439453125,0.7863300442695618,0.28418344259262085,-0.11827366054058075,-0.11823315918445587,0.2783592641353607,-0.9531720876693726,0.020836450159549713,0.040061116218566895,0.13639962673187256,0.7963792294811517,-0.07807755074804218,-0.13159730440887943,0.5851205797238166
1728333413021731300,2.6397314453125,0.9320279359817505,0.4425904154777527,0.01056634820997715,-0.11491528898477554,0.26990076899528503,-0.9560062885284424,-0.08747714757919312,0.20251134037971497,0.06876873970031738,0.7971185030199861,-0.07560309885200377,-0.12759710575123576,0.5853248203299657
1728333413031762400,2.649762451171875,0.9574267864227295,0.5039989352226257,0.1185641810297966,-0.11013665795326233,0.26081642508506775,-0.9590853452682495,-0.15097159147262573,0.24060264229774475,-0.02336704730987549,0.7975781759611205,-0.07323822312878059,-0.12285555819987197,0.5860134233825337
1728333413041793300,2.659793212890625,0.8201340436935425,0.506118893623352,0.13561508059501648,-0.10496646910905838,0.2522108256816864,-0.9619624614715576,-0.14437726140022278,0.1576402187347412,-0.021054506301879883,0.7978196192601622,-0.0711597307786902,-0.1181315843420029,0.58691146544273
1728333413051824400,2.669824462890625,0.4936369061470032,0.49805140495300293,0.04082252457737923,-0.09987234324216843,0.24585364758968353,-0.9641480445861816,-0.07909785211086273,-0.016559839248657227,0.01586008071899414,0.7980774435129748,-0.07002328180852774,-0.11411707210271443,0.5874916156307534
1728333413061854500,2.6798544921875,0.21254564821720123,0.4923531413078308,-0.08949980139732361,-0.0952044427394867,0.24243170022964478,-0.9654858708381653,-0.018564939498901367,-0.13179023563861847,0.06082278490066528,0.7985648791756645,-0.07004605121196424,-0.1111333135303447,0.587398429539307
1728333413071885300,2.68988525390625,0.15040931105613708,0.5078554153442383,-0.11307170242071152,-0.0906541720032692,0.24076218903064728,-0.9663412570953369,0.011461198329925537,-0.12990710139274597,0.09938263893127441,0.7992120878719706,-0.07079988171238027,-0.10870490608781258,0.5868821880896937
1728333413081916400,2.69991650390625,0.22535671293735504,0.5613275170326233,-0.09162820130586624,-0.08579850196838379,0.2387453317642212,-0.9672845005989075,0.0026382431387901306,-0.059561386704444885,0.10778743028640747,0.7998755109074197,-0.07149756335084481,-0.10604647806033056,0.5863798306511281
1728333413091947300,2.709947265625,0.19688725471496582,0.6109818816184998,-0.003622173797339201,-0.0802137702703476,0.2366311252117157,-0.9682827591896057,-0.022264115512371063,0.010149255394935608,0.10771751403808594,0.8004209206548287,-0.07234444900557994,-0.10307721209353189,0.5860611572412118
1728333413101978400,2.719978271484375,0.1980937421321869,0.5590229034423828,0.0817294716835022,-0.0743987187743187,0.23466850817203522,-0.969224214553833,-0.03753961622714996,0.07175847887992859,0.15837210416793823,0.8006670571079885,-0.07326960116971289,-0.10009731412935305,0.5861266031219522
1728333413112008400,2.730008544921875,0.03340332210063934,0.5148671865463257,0.06143565848469734,-0.06910286843776703,0.23342446982860565,-0.9699164032936096,-0.00020240247249603271,0.06380146741867065,0.15755373239517212,0.8007607349111208,-0.07431919974161548,-0.09756261374966053,0.5862936427202338
1728333413122039300,2.740039306640625,-0.28424641489982605,0.4953066408634186,-0.00044821854680776596,-0.06412599235773087,0.23457029461860657,-0.9699817895889282,0.03604996204376221,0.0006134063005447388,0.10787546634674072,0.8008730879448374,-0.07628111245516941,-0.09586608221614673,0.5861682978571392
1728333413132070400,2.7500703125,-0.6764780879020691,0.4123497009277344,-0.041565559804439545,-0.059744708240032196,0.23917828500270844,-0.9691358804702759,0.05481626093387604,-0.04502548277378082,0.08690321445465088,0.8009750160435626,-0.07951980547879318,-0.09543936241777483,0.585667820262353
1728333413142101200,2.760101318359375,-1.126230239868164,0.3295729160308838,-0.03539342060685158,-0.056255221366882324,0.24783003330230713,-0.9671688675880432,0.05688096955418587,-0.07125534117221832,0.10068327188491821,0.8009060681469364,-0.08417360464851903,-0.09659385251766595,0.584921984968012
1728333413152132400,2.77013232421875,-1.4004716873168945,0.27619409561157227,0.0010045352391898632,-0.05339449644088745,0.26020967960357666,-0.9640746712684631,0.04509386047720909,-0.08021703362464905,0.06932979822158813,0.800546493888433,-0.09018123841830558,-0.09914643218385254,0.5840913353043923
1728333413162162200,2.780162109375,-1.5240720510482788,0.27943938970565796,-0.010338665917515755,-0.05079111456871033,0.27429500222206116,-0.9603033661842346,0.016520019620656967,-0.09855955839157104,0.05368715524673462,0.800003024316871,-0.09682908849269038,-0.10233501143057876,0.5832210448753933
1728333413172193300,2.790193359375,-1.559406042098999,0.3408662676811218,-0.04407878592610359,-0.04791667312383652,0.2892058789730072,-0.956066906452179,-0.03091008961200714,-0.11647641658782959,0.046139538288116455,0.7994665446970836,-0.10394137658233073,-0.10565385898791733,0.582139575752514
1728333413182224400,2.800224365234375,-1.3449233770370483,0.3471817970275879,-0.002857048064470291,-0.04465217515826225,0.30314549803733826,-0.9518975615501404,-0.0584208108484745,-0.06655797362327576,0.07686704397201538,0.7989565099682245,-0.1107922052262044,-0.108518680808262,0.5810482661250027
1728333413192255200,2.810255126953125,-1.0933822393417358,0.3458973467350006,0.14197523891925812,-0.04121195152401924,0.31483742594718933,-0.9482504725456238,-0.04606817662715912,0.01681232452392578,0.14182347059249878,0.7982524518250584,-0.11671930543991592,-0.11068589333902587,0.580446474993278
1728333413202286300,2.820286376953125,-0.6336901187896729,0.35576242208480835,0.24714933335781097,-0.03724054619669914,0.32317012548446655,-0.9456078410148621,-0.0020506903529167175,0.10580018162727356,0.12743157148361206,0.7973385393862266,-0.12132738896004537,-0.1116948757745989,0.5805643470548173
1728333413212316200,2.830316162109375,-0.3235969543457031,0.3999578654766083,0.26679012179374695,-0.03291882947087288,0.32755425572395325,-0.9442587494850159,0.03990750014781952,0.14223331212997437,0.05274873971939087,0.7965222639261378,-0.12435331125798779,-0.11138620769532026,0.581103782242099
1728333413222347300,2.84034716796875,-0.1611385941505432,0.4104446470737457,0.28375259041786194,-0.028073957189917564,0.32993850111961365,-0.9435848593711853,0.020612547174096107,0.13090738654136658,0.04562044143676758,0.7957873619246782,-0.12668698637646272,-0.11026316892127697,0.5818202752218226
1728333413232378400,2.85037841796875,-0.11090285331010818,0.3628281354904175,0.24698315560817719,-0.02354174479842186,0.33106282353401184,-0.9433149695396423,0.02216859720647335,0.11897987127304077,0.02606344223022461,0.795152638921654,-0.12840468331574223,-0.10887946702519888,0.5825716074457991
1728333413242409200,2.8604091796875,-0.30289074778556824,0.31214678287506104,0.22427891194820404,-0.019635457545518875,0.33300650119781494,-0.9427200555801392,0.0025610066950321198,0.07966741919517517,-0.00894010066986084,0.7945280694315175,-0.13029784122967233,-0.10799277753180546,0.583168251135792
1728333413252440600,2.870440673828125,-0.484960675239563,0.24722769856452942,0.24166402220726013,-0.01622326485812664,0.33682459592819214,-0.9414276480674744,-0.03951694816350937,0.043775349855422974,-0.048379480838775635,0.7937381354541784,-0.13283071560380932,-0.10789896933376879,0.5836894999338327
1728333413262471400,2.880471435546875,-0.6297367215156555,0.22655640542507172,0.2396394908428192,-0.013217451050877571,0.3420303165912628,-0.9395959377288818,-0.052502021193504333,-0.004292309284210205,-0.11709046363830566,0.7927862242364148,-0.13581970033779195,-0.10842063378447346,0.5841984562981218
1728333413272501200,2.890501220703125,-0.7421876192092896,0.24520225822925568,0.2609120011329651,-0.010154664516448975,0.3486822843551636,-0.9371859431266785,-0.07253257185220718,-0.03403085470199585,-0.14695096015930176,0.7917063830225046,-0.1394379641884944,-0.10938039137976525,0.5846314669626784
1728333413282532400,2.900532470703125,-0.43739187717437744,0.27371421456336975,0.2929074764251709,-0.006793031003326178,0.354248583316803,-0.9351266026496887,-0.09414371848106384,0.0034632086753845215,-0.07849949598312378,0.7906417479956557,-0.1426823906994915,-0.10990188266147151,0.5851913515046401
1728333413292563500,2.9105634765625,-0.07336892932653427,0.34253641963005066,0.360590398311615,-0.002751759486272931,0.35654833912849426,-0.934272825717926,-0.0756935402750969,0.08247750997543335,-0.052665650844573975,0.7896440984098172,-0.14472274958047404,-0.10917377988808297,0.5861728819372038
1728333413302594300,2.92059423828125,0.1536417156457901,0.41965264081954956,0.3031529188156128,0.0020185085013508797,0.35607627034187317,-0.9344547390937805,-0.06126825511455536,0.14226046204566956,-0.014596164226531982,0.7889136048335018,-0.1458285752100096,-0.10726915408474205,0.5872329834158408
1728333413312625400,2.93062548828125,0.27559876441955566,0.4089946746826172,0.27425363659858704,0.006967707071453333,0.3539709448814392,-0.9352304339408875,-0.07883647084236145,0.16588068008422852,0.0069315433502197266,0.7884567129825648,-0.1463334912858932,-0.10474387540379783,0.5881761210355895
1728333413322655500,2.940655517578125,0.08940020948648453,0.3173254430294037,0.2996482253074646,0.011352240107953548,0.3519945442676544,-0.9359331727027893,-0.04237321764230728,0.1267956793308258,0.04451477527618408,0.7879640637546484,-0.14672360530181275,-0.10249675917576104,0.5891341256544497
1728333413332686300,2.950686279296875,-0.09923015534877777,0.23619119822978973,0.27143415808677673,0.015000365674495697,0.35213804244995117,-0.9358278512954712,0.0216513779014349,0.05801820755004883,0.07384359836578369,0.7872136462183346,-0.1477711570051757,-0.10124109574683914,0.5900918454772449
1728333413342717400,2.960717529296875,-0.08628379553556442,0.217885360121727,0.21175485849380493,0.017862088978290558,0.3530479967594147,-0.9354346990585327,0.04106748104095459,0.02524787187576294,0.044290900230407715,0.7865521735245703,-0.14892972754436806,-0.10051167849634277,0.5908069874089363
1728333413352748300,2.970748291015625,0.21425074338912964,0.2618568241596222,0.2504183351993561,0.020883312448859215,0.35244542360305786,-0.9355993270874023,-0.023477179929614067,0.03943076729774475,-0.06588077545166016,0.7860486688953479,-0.14951065818993275,-0.09923155267172995,0.59154636588253
1728333413362779400,2.980779296875,0.5729700922966003,0.3255237638950348,0.25788530707359314,0.024566128849983215,0.3487185537815094,-0.9369054436683655,-0.07919245958328247,0.10826686024665833,-0.12455689907073975,0.7857103133570403,-0.14897391932334486,-0.09671627218926432,0.5925469211811774
1728333413372809500,2.9908095703125,0.8646999597549438,0.27645477652549744,0.21622496843338013,0.028275465592741966,0.34167131781578064,-0.9393940567970276,-0.11259540170431137,0.21370279788970947,-0.12119859457015991,0.7857190581355755,-0.14707765055677088,-0.09311889687210581,0.593584577741455
1728333413382840300,3.00084033203125,0.9703732132911682,0.23953744769096375,0.30005887150764465,0.03147585317492485,0.33317121863365173,-0.9423407912254333,-0.1502959132194519,0.29922929406166077,-0.08817672729492188,0.7857463050807555,-0.1444182715609088,-0.08929139126137632,0.5947883582504782
1728333413392871400,3.010871337890625,1.1979460716247559,0.193831205368042,0.3504924774169922,0.03454504907131195,0.3225054442882538,-0.9459370374679565,-0.0967855155467987,0.29381227493286133,-0.015626072883605957,0.7856432721895048,-0.1407949215439046,-0.084901534244951,0.5964337578346877
1728333413402902300,3.02090234375,1.2319371700286865,0.319854199886322,0.2914043962955475,0.03797658532857895,0.31090444326400757,-0.9496821761131287,-0.043118659406900406,0.16654303669929504,-0.07012373208999634,0.7856107962726495,-0.1369256905733041,-0.08006419910129035,0.5980440286976765
1728333413412933400,3.030933349609375,1.390123963356018,0.43244171142578125,0.2691539525985718,0.0423322431743145,0.2982812523841858,-0.9535388350486755,-0.07236140966415405,0.07079830765724182,-0.015668928623199463,0.7858415258433515,-0.13297596519629154,-0.07448479620479806,0.5993516741797829
1728333413422963500,3.04096337890625,1.556140661239624,0.5079310536384583,0.3860909640789032,0.04786134511232376,0.28388512134552,-0.9576630592346191,-0.08257496356964111,0.04929053783416748,0.02776193618774414,0.7859998122090621,-0.1286696050970582,-0.0679161465083642,0.6008625740676681
1728333413432994300,3.050994384765625,1.5614871978759766,0.49169960618019104,0.33067962527275085,0.05361678823828697,0.2684237062931061,-0.9618076682090759,-0.015042439103126526,0.018700897693634033,-0.016204416751861572,0.786062975160514,-0.12401937918132346,-0.06095383271438693,0.6025021719651652
1728333413443025400,3.061025390625,1.238831877708435,0.48509764671325684,0.2769671380519867,0.059174712747335434,0.25471726059913635,-0.9652033448219299,0.03987022116780281,-0.03566211462020874,-0.00034230947494506836,0.7861571294476023,-0.1200775110426527,-0.05458687669047413,0.6037868251452526
1728333413453056300,3.07105615234375,1.1036418676376343,0.380972295999527,0.1904173493385315,0.06386949867010117,0.24335499107837677,-0.9678321480751038,0.05995570868253708,-0.08986686170101166,0.03347545862197876,0.7862171632857136,-0.11685850952977121,-0.049274989938924936,0.6047962668053878
1728333413463087400,3.08108740234375,0.9778984189033508,0.32694047689437866,0.001605344470590353,0.06754077225923538,0.2330479621887207,-0.9701169729232788,0.09449243545532227,-0.1305241733789444,-0.02493917942047119,0.7866179409636022,-0.11379868083634848,-0.04462496021269684,0.6052195018604484
1728333413473117400,3.091117431640625,1.0837368965148926,0.32633620500564575,-0.061066556721925735,0.07052913308143616,0.22327761352062225,-0.9721999764442444,0.02685258537530899,-0.07574039697647095,-0.045179784297943115,0.7873768576296422,-0.11078001590329903,-0.040346171948808754,0.6050929774518533
1728333413483148300,3.101148193359375,1.2286617755889893,0.3808683753013611,0.01610412634909153,0.07389944791793823,0.21186412870883942,-0.9745011329650879,-0.04409891366958618,0.043705299496650696,-0.028657376766204834,0.788168597532523,-0.10721432671403938,-0.035419237051650225,0.6050129342628854
1728333413493179400,3.111179443359375,1.4032208919525146,0.4118329584598541,0.06726478040218353,0.07785956561565399,0.1990402340888977,-0.9768934845924377,-0.06627801805734634,0.11611476540565491,-0.07759565114974976,0.7887866285652778,-0.10325321113413687,-0.029866960087924433,0.6051961089570733
1728333413503210200,3.121210205078125,1.5264774560928345,0.3693022131919861,0.05719643458724022,0.08178156614303589,0.18445934355258942,-0.9794317483901978,-0.07789044082164764,0.1471904069185257,0.012863755226135254,0.7893991029921075,-0.09857697073572462,-0.023805762111465574,0.6054459687900882
1728333413513241300,3.131241455078125,1.4329969882965088,0.3100878894329071,0.039301324635744095,0.08518138527870178,0.1697605848312378,-0.9817970395088196,-0.056082747876644135,0.10128127038478851,0.056580424308776855,0.7900009606439122,-0.09370288174138981,-0.017923138288452236,0.6056376225636511
1728333413523271400,3.141271484375,1.3177903890609741,0.293280690908432,0.007162829395383596,0.08812568336725235,0.15617771446704865,-0.9837898015975952,-0.009008735418319702,0.03486230969429016,0.14248120784759521,0.790573709295432,-0.08914698252417506,-0.012566345631030531,0.6057127728430842
1728333413533302300,3.15130224609375,1.1039544343948364,0.3161417841911316,0.027866775169968605,0.09112697094678879,0.14419232308864594,-0.9853448271751404,0.03060777485370636,-0.012310639023780823,0.21363162994384766,0.7911014126995621,-0.08525633679332924,-0.00767709363259866,0.6056657563409783
1728333413543333400,3.16133349609375,1.0774086713790894,0.18124602735042572,0.08993520587682724,0.09372838586568832,0.13355232775211334,-0.9865996241569519,0.024603649973869324,-0.014304906129837036,0.2054564356803894,0.7913551572299157,-0.08178440899336402,-0.0033929893432659026,0.6058520709632242
1728333413553364200,3.1713642578125,1.1171506643295288,0.11388562619686127,0.028060121461749077,0.09516605734825134,0.12250582873821259,-0.987894594669342,0.039294518530368805,0.007026024162769318,-0.03014129400253296,0.7916073244590447,-0.07779717090221436,0.0005476329487455617,0.6060569866110385
1728333413563395300,3.181395263671875,1.1122196912765503,0.05308331549167633,-0.007311983499675989,0.09600289165973663,0.11153268814086914,-0.9891126751899719,0.024953655898571014,0.019692890346050262,-0.18198412656784058,0.7920042717688488,-0.07365899843022536,0.004243769061657246,0.606040873404842
1728333413573426200,3.19142626953125,1.1664303541183472,0.012929503805935383,0.015960847958922386,0.0963137224316597,0.10011813789606094,-0.9903029799461365,-0.01518261432647705,0.04212427884340286,-0.051796019077301025,0.79240158239092,-0.06918599833662928,0.007861262462937625,0.6060125816039684
1728333413583456300,3.201456298828125,1.0654045343399048,-0.02652682363986969,0.06523438543081284,0.09626545757055283,0.08896713703870773,-0.9913716912269592,-0.022214427590370178,0.03119581937789917,-0.008521497249603271,0.7926670999038201,-0.06471339111855727,0.01123995676665427,0.6061061772049567
1728333413593487400,3.2114873046875,1.2052780389785767,-0.13842566311359406,0.06826213002204895,0.09549214690923691,0.07764872908592224,-0.9923970699310303,-0.04448188841342926,0.025927923619747162,0.06029868125915527,0.7927865148961858,-0.05995928947510976,0.014365009209481243,0.6063728968769885
1728333413603518200,3.221518310546875,1.025866985321045,-0.027004756033420563,-0.03714577853679657,0.09444093704223633,0.06633052974939346,-0.9933182597160339,-0.08029592037200928,-0.00361691415309906,0.10171675682067871,0.7931023093132417,-0.05511924110278798,0.017399381578118666,0.6063396098531955
1728333413613549300,3.23154931640625,0.8223225474357605,0.2067081332206726,0.041420936584472656,0.09533083438873291,0.05714018642902374,-0.9938043355941772,-0.18282459676265717,0.009342353790998459,0.10357606410980225,0.7933471267410678,-0.051721950110942126,0.02055915688545665,0.6062197430671887
1728333413623580400,3.241580322265625,0.4899745285511017,0.4291324019432068,0.08906248956918716,0.09852518886327744,0.05037371441721916,-0.9938587546348572,-0.2439108043909073,-0.0007826536893844604,0.24893999099731445,0.7932584181391811,-0.05000401840407456,0.02387903730193817,0.6063582431494315
1728333413633610200,3.2516103515625,0.1259949654340744,0.520569384098053,0.07159268110990524,0.10336542129516602,0.047288089990615845,-0.9935187101364136,-0.16394269466400146,-0.08021655678749084,0.23544681072235107,0.7930196078478932,-0.05026020802979493,0.02673119399059761,0.606530507629463
1728333413643641300,3.261641357421875,-0.14567402005195618,0.43000268936157227,0.04805753380060196,0.10826096683740616,0.047337960451841354,-0.9929947853088379,-0.034255705773830414,-0.06990571320056915,0.19610458612442017,0.7927659975411301,-0.05178338435672663,0.02865447729493959,0.6066460793373203
1728333413653672400,3.27167236328125,-0.4700015187263489,0.2610242962837219,0.03134619817137718,0.11170019209384918,0.05032486096024513,-0.9924668669700623,0.11043738573789597,-0.03497452288866043,0.11418622732162476,0.7925195818521702,-0.05403230738983741,0.02910460378265552,0.6067504342242742
1728333413663703300,3.281703369140625,-0.7848114967346191,0.14041875302791595,-0.003123097587376833,0.11364030092954636,0.05657607689499855,-0.9919098019599915,0.1896740198135376,-0.01632339507341385,0.059155285358428955,0.7922654665365706,-0.057124176507917485,0.0279630795954249,0.606852843083416
1728333413673734100,3.291734130859375,-0.9702301025390625,0.1806601881980896,-0.07550302147865295,0.11509210616350174,0.06540917605161667,-0.9911990165710449,0.1513722538948059,-0.05840539187192917,0.08887052536010742,0.7920958821837564,-0.06109187441964728,0.025851213509681528,0.6067814079730453
1728333413683764200,3.30176416015625,-1.0139715671539307,0.3017355799674988,-0.16880206763744354,0.11739842593669891,0.07547473907470703,-0.9902126789093018,0.021166756749153137,-0.14200307428836823,0.13382846117019653,0.7921258313400864,-0.06580620711918177,0.023731783183443236,0.6063357285112687
1728333413693795300,3.31179541015625,-1.0688029527664185,0.29526302218437195,-0.06939026713371277,0.12032460421323776,0.0860176607966423,-0.9890009760856628,-0.11165749281644821,-0.1322060227394104,0.15263622999191284,0.7921405373830601,-0.07090631314147322,0.0217209843800125,0.6058167319758843
1728333413703826200,3.321826171875,-0.9869145154953003,0.1750306338071823,0.06529643386602402,0.12265615910291672,0.09618177264928818,-0.987777590751648,-0.14493386447429657,-0.044256120920181274,0.06210315227508545,0.79172010320453,-0.07569341959753173,0.019537662401354676,0.6058613716926263
1728333413713857300,3.331857177734375,-1.0844438076019287,-0.011158682405948639,0.025153545662760735,0.12357943505048752,0.10613761842250824,-0.9866422414779663,-0.05151204764842987,-0.012570731341838837,-0.1781526803970337,0.7911494279552194,-0.0799726002055859,0.016830264723592617,0.6061383775002986
1728333413723888000,3.34188818359375,-1.4791700839996338,-0.24960879981517792,-0.06367938965559006,0.12224031239748001,0.11874748021364212,-0.9853711724281311,0.00596415251493454,-0.029742978513240814,-0.22370469570159912,0.7907056587050248,-0.08461669598622165,0.012426997707870835,0.6061931104568882
1728333413733918200,3.351918212890625,-1.5008580684661865,-0.29694995284080505,-0.1446341574192047,0.11918620020151138,0.13408641517162323,-0.9837761521339417,0.052002280950546265,-0.042503178119659424,-0.13847726583480835,0.790341974157192,-0.08982974863417967,0.0065230174865280564,0.6060095611381316
1728333413743949000,3.361948974609375,-1.071439266204834,-0.09166960418224335,-0.39801129698753357,0.11675170063972473,0.14708256721496582,-0.9822096228599548,0.09812268614768982,-0.07327583432197571,-0.06515359878540039,0.7905614183526263,-0.09429957418023123,0.001666434104169307,0.6050762460215114
1728333413753980200,3.371980224609375,-0.6598618030548096,0.1341552585363388,-0.4762533903121948,0.11634932458400726,0.1561271995306015,-0.9808604121208191,0.008437179028987885,-0.057463884353637695,0.04229229688644409,0.791541429904193,-0.09781967391032366,-0.0010531097092154162,0.6032349043834472
1728333413764011300,3.38201123046875,-0.1399635374546051,0.24747543036937714,-0.2514077425003052,0.11763879656791687,0.16061006486415863,-0.9799824357032776,-0.12287244200706482,0.13969814777374268,0.11609083414077759,0.7924682237132719,-0.10002917973224708,-0.0017204079173360413,0.6016521077880657
1728333413774042000,3.3920419921875,0.30207034945487976,0.3473690152168274,-0.12394246459007263,0.12026315927505493,0.1597176343202591,-0.9798097014427185,-0.10436338186264038,0.2934378385543823,0.09527301788330078,0.7930438993943165,-0.1004741809068399,-0.00029689124089740866,0.6008213065226677
1728333413784072200,3.402072265625,0.22651931643486023,0.4240097999572754,-0.12102843075990677,0.12396004796028137,0.15700039267539978,-0.9797881245613098,-0.07053890824317932,0.24209322035312653,0.09956961870193481,0.7935654429009581,-0.10050640848539363,0.0020965965696513435,0.6001233032142268
1728333413794103000,3.41210302734375,-0.28636980056762695,0.30551111698150635,0.004613385070115328,0.12751132249832153,0.15722422301769257,-0.9792963862419128,-0.07212179899215698,0.10574573278427124,0.18280291557312012,0.7937570551126093,-0.10168355655801958,0.0035018426475802067,0.5996647590245698
1728333413804134100,3.422134033203125,-0.8522694110870361,0.09127315133810043,-0.014561640098690987,0.12945608794689178,0.16270890831947327,-0.978144645690918,0.03688010573387146,-0.02034442126750946,0.10586071014404297,0.7934318865588964,-0.10450310980809682,0.0026044100081627866,0.5996148687723102
1728333413814165000,3.4321650390625,-1.3939622640609741,-0.06938310712575912,-0.18320152163505554,0.12936294078826904,0.17407730221748352,-0.9761978983879089,0.1552746444940567,-0.13179521262645721,-0.09548789262771606,0.7931081387211559,-0.10908850707830439,-0.0008672232234032513,0.5992314904451942
1728333413824196000,3.442196044921875,-1.2618319988250732,-0.15755759179592133,-0.37099993228912354,0.12764328718185425,0.18782693147659302,-0.9738727807998657,0.099453404545784,-0.1760624200105667,-0.137501060962677,0.793168200476837,-0.11415738892065463,-0.005629496071732166,0.5981810097943394
1728333413834227200,3.452227294921875,-1.0017945766448975,-0.07857489585876465,-0.4969860911369324,0.12549105286598206,0.19931821525096893,-0.9718663692474365,0.013211444020271301,-0.17096741497516632,-0.1859857439994812,0.7938438213486001,-0.11820064628291134,-0.00976832079201716,0.5964438375021524
1728333413844257000,3.462257080078125,-0.7839613556861877,0.13911470770835876,-0.3534310460090637,0.12483736872673035,0.20871901512145996,-0.9699752330780029,-0.1140492781996727,-0.06551529467105865,-0.0911819338798523,0.7946220349194644,-0.12187084454266356,-0.012643956821097951,0.5946118873844707
1728333413854288100,3.4722880859375,-0.32924309372901917,0.24835065007209778,-0.12540799379348755,0.12629319727420807,0.21435807645320892,-0.9685559868812561,-0.17103184759616852,0.14588665962219238,0.051823198795318604,0.794984301651232,-0.1246447193365805,-0.013627688897456337,0.5935301300524513
1728333413864319000,3.482319091796875,-0.20074951648712158,0.3330496549606323,-0.09319919347763062,0.12892474234104156,0.21676917374134064,-0.9676722288131714,-0.10460211336612701,0.21484091877937317,0.029775500297546387,0.7951465392989903,-0.12644785302018421,-0.013222265798485514,0.5929401817036752
1728333413874350000,3.49235009765625,-0.24810105562210083,0.26615583896636963,-0.1770472228527069,0.13162431120872498,0.21915948390960693,-0.9667699337005615,-0.033845871686935425,0.14129887521266937,0.0654943585395813,0.7954132987080142,-0.1282664043653186,-0.01275737753339712,0.5922014172913712
1728333413884381200,3.502381103515625,-0.3217017352581024,0.0964336097240448,-0.26436561346054077,0.1328626126050949,0.22206854820251465,-0.9659363627433777,0.03130680322647095,0.05056019127368927,0.13982558250427246,0.7959130118155125,-0.12985803867264184,-0.012988617136303261,0.5911772131412806
1728333413894411000,3.512410888671875,-0.4849420487880707,-0.027239328250288963,-0.2665374279022217,0.13256099820137024,0.22639085352420807,-0.9649739861488342,0.087882861495018,-0.023250609636306763,0.10245567560195923,0.7964813267739588,-0.13156794918982642,-0.014243997438562646,0.5900036786868849
1728333413904442000,3.522442138671875,-0.588404655456543,-0.05600631982088089,-0.041498713195323944,0.13171027600765228,0.23200006783008575,-0.9637573957443237,0.07231511175632477,-0.019765600562095642,0.1372193694114685,0.7965566893997863,-0.13363639834257096,-0.016205115781595687,0.5893860748998696
1728333413914473200,3.53247314453125,-0.3370853066444397,-0.05895816534757614,-0.115509033203125,0.1309220939874649,0.23647545278072357,-0.9627766013145447,0.06863246858119965,0.004964351654052734,0.017189443111419678,0.7964096639108134,-0.13525052631609566,-0.01786058196843667,0.5891687754715524
1728333413924504300,3.54250439453125,-0.23026932775974274,0.07444703578948975,-0.26637017726898193,0.13051451742649078,0.2395145446062088,-0.9620804190635681,0.007821783423423767,0.009554654359817505,-0.13382107019424438,0.7968104221001882,-0.1364028796650264,-0.01881600001690134,0.5883310100531369
1728333413934535200,3.55253515625,0.08207471668720245,0.1545109748840332,-0.1826140284538269,0.13107049465179443,0.24066951870918274,-0.9617165327072144,-0.14881634712219238,0.07904785871505737,-0.02806001901626587,0.7974533619209342,-0.13707434026327278,-0.018771131778941647,0.5873042862682842
1728333413944565200,3.562565185546875,0.24554793536663055,0.2101607620716095,-0.07941067963838577,0.13247773051261902,0.23896817862987518,-0.9619479775428772,-0.14096148312091827,0.13655060529708862,0.007754862308502197,0.7979719864129888,-0.13681013278030799,-0.01757877822539344,0.5866980465358062
1728333413954596400,3.572596435546875,0.14737102389335632,0.24161988496780396,-0.06072354316711426,0.13458718359470367,0.23712721467018127,-0.962110698223114,-0.06801295280456543,0.11110885441303253,0.028471171855926514,0.7983160263347955,-0.1366950611600981,-0.01609715030666059,0.5862991728414659
1728333413964627200,3.582627197265625,0.07465655356645584,0.14212557673454285,-0.09626156836748123,0.13629628717899323,0.23615621030330658,-0.9621089100837708,-0.024678125977516174,0.07292579114437103,0.13915663957595825,0.7986286502688585,-0.13681881178020436,-0.015038571247706363,0.5858724968641279
1728333413974658300,3.592658203125,-0.09593808650970459,0.006069201044738293,-0.08329863101243973,0.13676373660564423,0.2362176924943924,-0.9620274901390076,0.019333794713020325,0.002658635377883911,0.18668264150619507,0.798915023749756,-0.13699390929436805,-0.014796125873586887,0.5854473054102768
1728333413984689200,3.602689208984375,-0.34125110507011414,-0.10401155054569244,0.03059331886470318,0.13620397448539734,0.23851636052131653,-0.961539626121521,0.035961076617240906,-0.030508562922477722,0.259177565574646,0.7988564089787139,-0.1377810991306177,-0.015702318889202795,0.5853189181921857
1728333413994720300,3.61272021484375,-0.30557912588119507,-0.2081107795238495,0.06500588357448578,0.13479749858379364,0.24160492420196533,-0.9609665274620056,0.049406737089157104,-0.016888752579689026,0.1766343116760254,0.7984202531720672,-0.13863010579610757,-0.017274903759113273,0.5856692014932378
1728333414004750300,3.622750244140625,-0.26009365916252136,-0.15270617604255676,-0.06364689767360687,0.13295486569404602,0.24433760344982147,-0.9605321884155273,0.05701717734336853,-0.029692232608795166,-0.11975950002670288,0.7982201320732789,-0.13920425050563612,-0.018869908040461847,0.5857563649442431
1728333414014781200,3.63278125,-0.09245513379573822,-0.1567632257938385,-0.08694636076688766,0.13133957982063293,0.2461772859096527,-0.9602846503257751,-0.040976911783218384,0.028862372040748596,-0.23994112014770508,0.7983140933522661,-0.1394843939727953,-0.02004411789769459,0.58552280175383
1728333414024812300,3.642812255859375,0.0795845314860344,-0.13247685134410858,-0.07134556025266647,0.12966835498809814,0.24641789495944977,-0.9604500532150269,-0.0907278060913086,0.12501151859760284,-0.25968843698501587,0.7985339216352606,-0.1390839356003144,-0.02075148247440736,0.5852936279239318
1728333414034843100,3.652843017578125,0.21369598805904388,-0.14603020250797272,-0.005666416138410568,0.1282707154750824,0.2448681741952896,-0.9610339403152466,-0.06897494196891785,0.160557821393013,-0.24241149425506592,0.7987591270476451,-0.13801866838597643,-0.020829928478441406,0.5852357335124777
1728333414044874200,3.662874267578125,0.027608683332800865,-0.17764033377170563,0.09312088042497635,0.12677493691444397,0.24349993467330933,-0.9615799188613892,-0.04871085286140442,0.13250713050365448,-0.14262235164642334,0.7987108580199372,-0.13699016752577917,-0.021065240379041457,0.5855347849138882
1728333414054904300,3.672904296875,-0.10636723041534424,-0.1623532623052597,0.12291712313890457,0.12535123527050018,0.24385486543178558,-0.9616765975952148,-0.016006633639335632,0.08147774636745453,-0.03530210256576538,0.798321839947184,-0.13669115262552797,-0.021845704386959527,0.5861061048501188
1728333414064935200,3.68293505859375,-0.1640864461660385,-0.13383591175079346,0.0866648405790329,0.12412634491920471,0.2449580430984497,-0.9615551233291626,0.0006601586937904358,0.0525730699300766,-0.0414661169052124,0.7979164003366834,-0.1367636003536455,-0.022763309574814802,0.586606294590969
1728333414074966300,3.69296630859375,-0.22495725750923157,-0.1787051260471344,0.08089777082204819,0.12287706136703491,0.24678270518779755,-0.9612489342689514,-0.024411968886852264,0.026868388056755066,0.02492392063140869,0.7975215634790638,-0.13712940708452415,-0.023896745124496948,0.5870126717387683
1728333414084997000,3.7029970703125,-0.34524965286254883,-0.2052537500858307,0.03809491544961929,0.12105932086706161,0.24934245645999908,-0.960818886756897,-0.01835227757692337,0.01678606867790222,0.12746018171310425,0.7971364572345888,-0.13762845311096022,-0.025474603684602786,0.5873523418007621
1728333414095028200,3.7130283203125,-0.5221868753433228,-0.17898379266262054,0.09488975256681442,0.1193758174777031,0.2534487843513489,-0.9599547386169434,-0.00998544692993164,0.014800667762756348,0.12731319665908813,0.7966403897185096,-0.1388091581413777,-0.027470787328058695,0.5876575374058636
1728333414105058300,3.723058349609375,-0.5241069197654724,-0.24173933267593384,0.13553358614444733,0.11763571202754974,0.25850003957748413,-0.9588219523429871,-0.023702479898929596,0.047575950622558594,0.15271544456481934,0.7958776512703734,-0.14035416536161724,-0.02982832208584421,0.5882087591664932
1728333414115089200,3.733089111328125,-0.3819127678871155,-0.25658857822418213,0.1509716659784317,0.11562428623437881,0.26275140047073364,-0.9579105973243713,0.002234719693660736,0.07498660683631897,0.08764082193374634,0.7950979527497047,-0.14147807823090325,-0.03207259155002973,0.5888756574634743
1728333414125120300,3.743120361328125,-0.20897036790847778,-0.32352954149246216,0.1503005474805832,0.1132175475358963,0.2653452157974243,-0.9574829936027527,-0.014111600816249847,0.09421283006668091,-0.06174302101135254,0.7943933293896717,-0.1417874932406334,-0.033982461357796506,0.5896445029293401
1728333414135151000,3.753151123046875,-0.26882943511009216,-0.343272864818573,0.10082007944583893,0.11030280590057373,0.2673221230506897,-0.9572733044624329,-0.008587591350078583,0.0813869833946228,-0.16993921995162964,0.7938072073596365,-0.1416863432637946,-0.03589330177875604,0.5903445716876803
1728333414145182200,3.76318212890625,-0.45025354623794556,-0.36464858055114746,0.09967997670173645,0.10718969255685806,0.2706619203090668,-0.9566882848739624,-0.0010494440793991089,0.05006253719329834,-0.16661792993545532,0.7931977029708083,-0.1420913579040819,-0.03828703306227372,0.5909158365488119
1728333414155212300,3.77321240234375,-0.6040023565292358,-0.4234786033630371,0.024995090439915657,0.1035577729344368,0.2756853401660919,-0.9556533694267273,0.007572107017040253,0.0023908019065856934,-0.08855128288269043,0.7925278015715158,-0.14303657975753736,-0.04139866547568628,0.591376546815814
1728333414165243100,3.7832431640625,-0.6296417117118835,-0.38980260491371155,-0.10059425979852676,0.09944696724414825,0.2817133069038391,-0.9543311595916748,0.022425107657909393,-0.0605219304561615,-0.044188737869262695,0.7921078934041959,-0.14427355808764755,-0.04493965936532469,0.5913803162336677
1728333414175274200,3.793274169921875,-0.608167290687561,-0.302460253238678,-0.14191533625125885,0.09576665610074997,0.2877253293991089,-0.9529128670692444,-0.018846966326236725,-0.06703749299049377,0.0018935799598693848,0.7919734044643891,-0.14566197547026283,-0.04823036997271931,0.5909606560037272
1728333414185305000,3.80330517578125,-0.4036048352718353,-0.26736095547676086,-0.05772136151790619,0.09273527562618256,0.29268988966941833,-0.95169997215271,-0.049491748213768005,-0.025508522987365723,0.04801344871520996,0.7918286596358708,-0.14681228928285528,-0.05095268642439572,0.5906415357873416
1728333414195336200,3.813336181640625,-0.2679769694805145,-0.22846442461013794,-0.0053803930059075356,0.09024441242218018,0.2959233820438385,-0.9509391784667969,-0.06157302111387253,0.03777104616165161,0.13546371459960938,0.7916094857778662,-0.14739326883901055,-0.052968311452241686,0.590613286848796
1728333414205366000,3.823365966796875,-0.12707796692848206,-0.19557039439678192,0.043095797300338745,0.08824363350868225,0.29778027534484863,-0.9505471587181091,-0.0702076181769371,0.08852648735046387,0.1620798110961914,0.7913538784504447,-0.1475396488280074,-0.05439170713553823,0.590789698198011
1728333414215397000,3.833397216796875,0.18313902616500854,-0.13795876502990723,0.09576619416475296,0.08685225993394852,0.29751676321029663,-0.9507578611373901,-0.046401090919971466,0.14311128854751587,0.07591044902801514,0.7911166205395102,-0.1469773606013789,-0.054943057885528314,0.5911964695474559
1728333414225428200,3.84342822265625,0.3262488842010498,-0.1436576545238495,0.039068300276994705,0.08577518910169601,0.29473358392715454,-0.9517219662666321,0.0002692490816116333,0.12836208939552307,-0.18885725736618042,0.791059406565998,-0.14546297945040543,-0.05458507230333658,0.5916806439819171
1728333414235459000,3.853458984375,-0.020764175802469254,-0.1776459813117981,-0.148946613073349,0.08405432850122452,0.2930617332458496,-0.9523915648460388,0.01697424054145813,-0.003449946641921997,-0.3475809693336487,0.791303523127031,-0.14424897767536463,-0.05473989300126394,0.5916370194744566
1728333414245490200,3.863490234375,-0.4647478759288788,-0.22371578216552734,-0.22104902565479279,0.08157126605510712,0.2956683039665222,-0.9518016576766968,0.0007500350475311279,-0.1125018298625946,-0.16318857669830322,0.7916604856620464,-0.14462034450116917,-0.056428144239589875,0.5909096957291142
1728333414255520000,3.87352001953125,-0.5592061877250671,-0.1984541118144989,-0.0951710045337677,0.07896305620670319,0.3009483218193054,-0.9503656625747681,-0.02148307114839554,-0.10363695025444031,0.11361950635910034,0.7916834388670764,-0.1460574395536265,-0.059028630302802816,0.5902713215970077
1728333414265551000,3.883551025390625,-0.28134769201278687,-0.06745098531246185,-0.07219617813825607,0.0773792713880539,0.30507683753967285,-0.9491788744926453,-0.012071527540683746,-0.02111080288887024,0.09850144386291504,0.7915379491208872,-0.14730861435670892,-0.06091571197518933,0.5899636771665087
1728333414275582000,3.89358203125,-0.10537932813167572,0.04022035002708435,-0.10165819525718689,0.07706114649772644,0.3068774342536926,-0.9486241340637207,-0.04669602960348129,0.055839210748672485,-0.02786201238632202,0.7916743823544865,-0.1479906104178139,-0.06153614883041769,0.5895452879405971
1728333414285613300,3.90361328125,0.33976465463638306,0.026034759357571602,-0.030015964061021805,0.07720109820365906,0.3059666156768799,-0.9489069581031799,-0.10263737291097641,0.13156387209892273,-0.0019292235374450684,0.7919638379801809,-0.14767626590719127,-0.061141165457742806,0.5892764246183028
1728333414295644200,3.91364404296875,0.6947413682937622,-0.01893617771565914,0.0015182592906057835,0.07718861103057861,0.30085527896881104,-0.9505409002304077,-0.047601692378520966,0.1766074299812317,-0.02681499719619751,0.7923833576696051,-0.14554327140902107,-0.059554169658964685,0.589405722493746
1728333414305675300,3.92367529296875,0.7534680962562561,-0.03010249324142933,0.0030700829811394215,0.07694761455059052,0.2937600910663605,-0.9527770280838013,-0.0054447948932647705,0.16115015745162964,-0.10126960277557373,0.7929203074274214,-0.1425145342738363,-0.057455111877765946,0.5896320159273031
1728333414315705000,3.933705078125,0.6368898153305054,-0.06114403158426285,0.06347376853227615,0.07654785364866257,0.28715795278549194,-0.9548197388648987,-0.026270009577274323,0.11777976155281067,-0.01644796133041382,0.7932904181461636,-0.13963583070941546,-0.05560541953340772,0.5900002282497077
1728333414325736200,3.943736083984375,0.42496976256370544,-0.01904856413602829,0.039977770298719406,0.07627610862255096,0.2818107008934021,-0.9564332962036133,0.004793956875801086,0.012577056884765625,-0.017413079738616943,0.7934885164470354,-0.13731532836946814,-0.054109543782400085,0.5904173787794144
1728333414335767300,3.953767333984375,0.20730534195899963,0.003133704885840416,-0.0464700385928154,0.07623033970594406,0.2789892554283142,-0.9572637677192688,0.022127948701381683,-0.11060851812362671,-0.0448266863822937,0.7936889917412646,-0.13613122533218408,-0.053257925771101375,0.590499338859335
1728333414345798100,3.963798095703125,0.3142339885234833,-0.0009347526356577873,-0.16914774477481842,0.07588420063257217,0.2766211926937103,-0.9579782485961914,-0.01277371495962143,-0.13251721858978271,0.015458106994628906,0.7941827993725039,-0.1350729725339628,-0.05259441862778633,0.5901379208262577
1728333414355829200,3.973829345703125,0.42365899682044983,0.09283594787120819,-0.22135315835475922,0.07567459344863892,0.2732466161251068,-0.9589627981185913,-0.05106204003095627,-0.0734328031539917,0.01567971706390381,0.7950519987403593,-0.13366598093048804,-0.051497655596016566,0.5893841426198383
1728333414365859300,3.983859375,0.6227567195892334,0.18007369339466095,-0.0852707028388977,0.07654275000095367,0.2683691382408142,-0.9602704048156738,-0.10591578483581543,0.05400329828262329,0.05380678176879883,0.7959241365416115,-0.13195470369792245,-0.049525383804036927,0.5887612912573295
1728333414375890200,3.99389013671875,0.7047120928764343,0.2078600525856018,0.06398216634988785,0.07843059301376343,0.26176950335502625,-0.9619383215904236,-0.09915190935134888,0.14339709281921387,0.07874441146850586,0.7964394978091686,-0.12980091691856574,-0.04671782045016352,0.5887725420486923
1728333414385921300,4.00392138671875,0.5096622705459595,0.2055630385875702,0.05250261351466179,0.08060596883296967,0.2557198107242584,-0.9633846879005432,-0.02362951636314392,0.10893473029136658,0.05669218301773071,0.796687882827645,-0.1279473482048832,-0.04401284369935774,0.5890507625051806
1728333414395952000,4.0139521484375,0.4898347854614258,0.16929610073566437,-0.06541656702756882,0.08238503336906433,0.2510811686515808,-0.9644536972045898,0.010464824736118317,0.03372412919998169,0.15665340423583984,0.7970479267562876,-0.12657459093384052,-0.04185710634032087,0.5890174099151964
1728333414405983200,4.023983154296875,0.4532204866409302,0.24464869499206543,-0.14105699956417084,0.0839739739894867,0.24649876356124878,-0.965498149394989,-0.008030854165554047,-0.03447791934013367,0.2426283359527588,0.7977322114349974,-0.12519042975859887,-0.03972742929113614,0.5885340871315381
1728333414416013300,4.034013427734375,0.32346969842910767,0.338558167219162,-0.01958622597157955,0.08657588064670563,0.24276737868785858,-0.9662135243415833,-0.05082441866397858,-0.03559882938861847,0.24938619136810303,0.7983194453659803,-0.12446062113834302,-0.0374537504811434,0.588041404265745
1728333414426044200,4.044044189453125,0.28206804394721985,0.3037128150463104,0.18099428713321686,0.08997870236635208,0.23994213342666626,-0.9666082859039307,-0.05686699599027634,0.039217397570610046,0.23324036598205566,0.7982980735969436,-0.12431264898410165,-0.03524510431785854,0.588238219331576
1728333414436075300,4.0540751953125,0.3591788113117218,0.19419404864311218,0.1865757405757904,0.09281240403652191,0.23651891946792603,-0.9671838879585266,0.026282571256160736,0.07692711055278778,0.08217412233352661,0.7979823808899306,-0.12372822572708006,-0.03315699677278093,0.5889108894474758
1728333414446106000,4.064106201171875,0.14151035249233246,0.13537296652793884,0.17563600838184357,0.09490344673395157,0.2338419407606125,-0.9676318168640137,0.045843757688999176,0.04255574941635132,-0.04498720169067383,0.7976334263534353,-0.12323071882959252,-0.03159576816147824,0.589573472799512
1728333414456137200,4.07413720703125,-0.03221190720796585,0.003464202396571636,0.1157020851969719,0.0958525761961937,0.23327656090259552,-0.9676746726036072,0.025531217455863953,0.004256993532180786,-0.11197614669799805,0.7972272138598782,-0.12326272299431491,-0.031127971233190943,0.5901407225415362
1728333414466167300,4.084167236328125,-0.21757836639881134,-0.006308586336672306,0.054460570216178894,0.09596461057662964,0.2343393862247467,-0.9674067497253418,0.02331347018480301,-0.03737896680831909,-0.0862889289855957,0.7969129377581801,-0.12372152825686095,-0.03145797385364918,0.5904515762973477
1728333414476198100,4.0941982421875,-0.34508785605430603,0.0016148509457707405,0.0714278295636177,0.09608318656682968,0.23716844618320465,-0.966705322265625,-0.027174361050128937,-0.059601932764053345,-0.0551910400390625,0.7965552411697387,-0.12491352923172784,-0.03231034969478146,0.5906371667330661
1728333414486229200,4.104229248046875,-0.17668738961219788,0.03236807882785797,0.05752081051468849,0.09639083594083786,0.23967118561267853,-0.9660571813583374,-0.05774020403623581,-0.03843829035758972,0.028801381587982178,0.7961779658550118,-0.12602660710013433,-0.032995294710285915,0.5908716076296222
