time,seconds_elapsed,rotationRateX,rotationRateY,rotationRateZ,gravityX,gravityY,gravityZ,accelerationX,accelerationY,accelerationZ,quaternionW,quaternionX,quaternionY,quaternionZ
1729786049111026000,0.07502587890625,-0.031133852899074554,0.009307298809289932,0.06602966040372849,0.18098047375679016,-0.23902446031570435,-0.9539986252784729,-0.003749638795852661,-0.008244216442108154,-0.0073813796043396,0.988432759270095,0.12091083214122159,0.09154920653034225,-3.564175675703187e-18
1729786049121056800,0.085056884765625,-0.05320845916867256,0.005955071654170752,0.07779230922460556,0.18085624277591705,-0.238754540681839,-0.9540897607803345,-0.002007991075515747,-0.009750112891197205,-0.0010493993759155273,0.9884557793358844,0.1207350574828431,0.0915322824672646,0.00039333550771153023
1729786049131086800,0.0950869140625,-0.0745433121919632,-0.00685553252696991,0.06130094826221466,0.18041227757930756,-0.23800888657569885,-0.9543600678443909,0.007972702383995056,-0.019254282116889954,0.0033408403396606445,0.9885238496541402,0.12031320405806956,0.09134927004919699,0.0007878711476346185
1729786049141117700,0.10511767578125,-0.08883989602327347,-0.020678989589214325,0.03995145484805107,0.17998868227005005,-0.23722440004348755,-0.9546353816986084,0.01961153745651245,-0.02411288022994995,0.0058133602142333984,0.9885932439173942,0.11988132203163844,0.09116353030394461,0.0010786603421706837
1729786049151148800,0.115148681640625,-0.07990258932113647,-0.01578383333981037,0.03579718992114067,0.17974452674388885,-0.2365856170654297,-0.9548398852348328,0.018299266695976257,-0.01994512975215912,0.0013639330863952637,0.9886447225150581,0.11953358446356831,0.09105928407817881,0.0012800907297169826
1729786049161179000,0.125178955078125,-0.044506315141916275,0.0025041471235454082,0.05463505908846855,0.1798190176486969,-0.23638376593589783,-0.9548758268356323,0.006734937429428101,-0.008794456720352173,-0.0030404329299926758,0.9886533958175046,0.11940775593807644,0.09112560975641996,0.0015253400703476602
1729786049171209700,0.135209716796875,-0.011175790801644325,0.014767205342650414,0.0678107813000679,0.18000075221061707,-0.23648439347743988,-0.9548166394233704,-0.008476734161376953,-0.0004540681838989258,-0.006166577339172363,0.9886379008202965,0.11943058956450833,0.0912578965398616,0.0018473982373988867
1729786049181240800,0.14524072265625,0.017162572592496872,0.01369943656027317,0.06322721391916275,0.18006682395935059,-0.23686344921588898,-0.9547102451324463,-0.01102997362613678,0.004563644528388977,-0.013444662094116211,0.9886103146467253,0.11959422993878138,0.09133509754936615,0.002185768632596745
1729786049191271000,0.15527099609375,0.018101604655385017,0.0010068113915622234,0.04522984102368355,0.179901123046875,-0.23738138377666473,-0.9546128511428833,-0.0042572021484375,0.009643957018852234,-0.0135725736618042,0.9885850095571345,0.11983311665614094,0.09128859457768855,0.0024698793059086312
1729786049201301800,0.1653017578125,-0.008592524565756321,-0.00408930703997612,0.03411673381924629,0.17975813150405884,-0.23777931928634644,-0.9545407295227051,0.003271043300628662,0.0041977763175964355,-0.016070842742919922,0.9885662313272512,0.12001775159315499,0.09124348101876979,0.0026759248630953154
1729786049211332900,0.175332763671875,-0.041328366845846176,-0.008524269796907902,0.042192503809928894,0.17979839444160461,-0.23808804154396057,-0.9544562101364136,0.002177909016609192,-0.006708711385726929,-0.017101407051086426,0.9885442398527743,0.12015752280439751,0.09129116391506953,0.0028808414081103392
1729786049221363000,0.185363037109375,-0.06414100527763367,-0.01250713225454092,0.0563056617975235,0.1800435185432434,-0.23820829391479492,-0.9543799757957458,-0.002278625965118408,-0.011608615517616272,-0.01223379373550415,0.9885241945239908,0.12019561114328745,0.09144957881623275,0.0031479024460674843
1729786049231393800,0.195393798828125,-0.06816370785236359,-0.012412589974701405,0.052705068141222,0.18018457293510437,-0.23807445168495178,-0.9543867707252502,-0.00434228777885437,-0.014702662825584412,-0.010884225368499756,0.9885249119346977,0.1201005053560757,0.09155594724594612,0.0034392160247961505
1729786049241425000,0.2054248046875,-0.024636805057525635,-0.012325026094913483,0.04506818577647209,0.1800883263349533,-0.23783431947231293,-0.9544647932052612,-0.003269478678703308,-0.014301910996437073,-0.0075103044509887695,0.9885437223305181,0.11995293499976131,0.09153633287447377,0.003697346650961571
1729786049251454700,0.215454833984375,0.029754264280200005,-0.011371348053216934,0.04620961844921112,0.17963723838329315,-0.2378884106874466,-0.9545363187789917,-0.002223297953605652,-0.00045387446880340576,-0.005043148994445801,0.9885609338238249,0.11995822315317867,0.09133384474462433,0.003921798047049279
1729786049261485800,0.22548583984375,0.06412889063358307,-0.005508718080818653,0.06380538642406464,0.17913618683815002,-0.23827752470970154,-0.9545333981513977,0.0024739056825637817,0.017772778868675232,-0.006846606731414795,0.9885592013177569,0.12013274692948571,0.09111209614291797,0.004175416197814985
1729786049271516700,0.2355166015625,0.0677446573972702,-0.02189408242702484,0.08186987787485123,0.17871782183647156,-0.2387758046388626,-0.9544873237609863,0.008766919374465942,0.018881410360336304,-0.009303569793701172,0.9885461023361328,0.12035725072928709,0.09094212147684459,0.004499689447876908
1729786049281546800,0.245546630859375,0.03990310803055763,-0.04332997649908066,0.08645877242088318,0.1782289743423462,-0.23926910758018494,-0.9544551968574524,0.01964700222015381,0.0033682286739349365,-0.017651736736297607,0.9885361613008024,0.1205748789994629,0.09074195495354026,0.0048701594491880745
1729786049291577900,0.255577880859375,0.024502312764525414,-0.07657022029161453,0.07173921167850494,0.17745615541934967,-0.23974277079105377,-0.9544803500175476,0.031467169523239136,-0.011722087860107422,-0.03251916170120239,0.9885408129679615,0.12078397627391935,0.09039392608443354,0.005215967330673621
1729786049301608700,0.265608642578125,0.04768592491745949,-0.0931180939078331,0.06706403195858002,0.17643755674362183,-0.24029958248138428,-0.9545291662216187,0.03407268226146698,-0.014247521758079529,-0.023559212684631348,0.9885516012036881,0.12104137137633159,0.08991337024889656,0.0054958533815721205
1729786049311638800,0.275638671875,0.09275886416435242,-0.0848923847079277,0.08566514402627945,0.17534098029136658,-0.24124908447265625,-0.9544916749000549,0.02526630461215973,-0.010337799787521362,-0.019003748893737793,0.9885404250197521,0.12149887461599047,0.08939895297349378,0.0057942003698293965
1729786049321670000,0.285669921875,0.117064468562603,-0.06562020629644394,0.1156960129737854,0.17438417673110962,-0.24256613850593567,-0.9543331861495972,0.01310056447982788,-0.010928124189376831,-0.020810246467590332,0.9884978233910084,0.12213537232570583,0.08897392962137164,0.0062099010934179265
1729786049331700700,0.29570068359375,0.10898124426603317,-0.056499674916267395,0.12772203981876373,0.17354485392570496,-0.24380375444889069,-0.9541707634925842,0.004921913146972656,-0.015259966254234314,-0.012748122215270996,0.9884533829720422,0.12272329698035718,0.08862051987879242,0.006720998846878342
1729786049341730800,0.305730712890625,0.08237706124782562,-0.0666862204670906,0.13415251672267914,0.17272984981536865,-0.2446666657924652,-0.9540978074073792,0.0012966394424438477,-0.02216377854347229,-0.01201242208480835,0.9884311055308642,0.12311582781326605,0.08828130920296265,0.007270121054484083
1729786049351762000,0.315761962890625,0.054353151470422745,-0.08911136537790298,0.1333032250404358,0.17182984948158264,-0.24523675441741943,-0.9541139602661133,0.0043938905000686646,-0.028841614723205566,-0.011843681335449219,0.9884309550139633,0.1233572279825698,0.08789775423701177,0.007830371247759874
1729786049361792800,0.325792724609375,0.026498017832636833,-0.10623212903738022,0.14069271087646484,0.17081013321876526,-0.24570579826831818,-0.9541763663291931,0.018124178051948547,-0.03412511944770813,-0.017762720584869385,0.9884419020466058,0.1235449628333466,0.08745544025211034,0.008414372585192002
1729786049371822800,0.33582275390625,0.01468556560575962,-0.12363296002149582,0.15146252512931824,0.16964320838451385,-0.2461085170507431,-0.9542807936668396,0.02986544370651245,-0.0322575569152832,-0.0175209641456604,0.9884627527909348,0.12369540328967212,0.08694288233524453,0.00903994434651296
1729786049381853700,0.345853759765625,0.023705892264842987,-0.12663225829601288,0.15593478083610535,0.16839101910591125,-0.24652284383773804,-0.954395592212677,0.033116549253463745,-0.028455793857574463,-0.015987098217010498,0.9884855543117227,0.12384905608441155,0.0863921987823706,0.009704805192997351
1729786049391884800,0.355884765625,0.08160141110420227,-0.11163121461868286,0.1531192809343338,0.16710835695266724,-0.24725161492824554,-0.9544325470924377,0.02847878634929657,-0.01759520173072815,-0.010441720485687256,0.9884882634166562,0.12416587509239545,0.08582873242205116,0.010361259651657939
1729786049401915000,0.365914794921875,0.17963257431983948,-0.09260585904121399,0.15085452795028687,0.16589553654193878,-0.24874946475028992,-0.9542548656463623,0.01696576178073883,0.005371794104576111,0.0006569027900695801,0.9884365901422556,0.12488239146738761,0.08530503979503136,0.01097714008040063
1729786049411945700,0.37594580078125,0.27804648876190186,-0.06697958707809448,0.14869177341461182,0.1648654192686081,-0.25125735998153687,-0.9537762403488159,0.005148008465766907,0.027746617794036865,-0.001240849494934082,0.9883087940613378,0.12612153490758246,0.08488367027804254,0.011564775700837844
1729786049421976800,0.385976806640625,0.34495654702186584,-0.06198345124721527,0.1486520916223526,0.16394087672233582,-0.25464481115341187,-0.9530369639396667,-0.0007634013891220093,0.045645177364349365,-0.002895653247833252,0.9881149329226094,0.12781583345242123,0.08452599581183003,0.012134318824589912
1729786049432007000,0.3960068359375,0.3125951588153839,-0.06197386234998703,0.15014825761318207,0.16308367252349854,-0.2582520842552185,-0.9522129893302917,0.004808768630027771,0.041806191205978394,-0.008480370044708252,0.98789955367436,0.1296264818926672,0.08420501242380661,0.012684569285833749
1729786049442037800,0.406037841796875,0.18273216485977173,-0.07802627235651016,0.1546391397714615,0.16227906942367554,-0.2610794007778168,-0.951579213142395,0.013364821672439575,0.01590120792388916,-0.007923901081085205,0.9877315317279026,0.1310337023147748,0.08390797255471048,0.013271488091120685
1729786049453322000,0.417322021484375,0.031972210854291916,-0.11070805788040161,0.1707906872034073,0.16121087968349457,-0.26262733340263367,-0.9513348340988159,0.01943790912628174,-0.010642319917678833,0.004450678825378418,0.9876591854664617,0.13176863424270974,0.08348422459345818,0.014028514676924122
1729786049472126000,0.4361259765625,-0.1959792673587799,-0.16501331329345703,0.21017271280288696,0.15859313309192657,-0.2614741623401642,-0.952092170715332,0.028845831751823425,-0.050232380628585815,0.010533332824707031,0.9878262817772508,0.13104253213382544,0.08235152129893618,0.015662333647900335
1729786049482155800,0.44615576171875,-0.20743736624717712,-0.18153232336044312,0.20898334681987762,0.15664313733577728,-0.2596281170845032,-0.9529198408126831,0.03541922569274902,-0.038711726665496826,0.0038841962814331055,0.9880195849744134,0.13001518146326704,0.08146252453506579,0.016651898058288074
1729786049492187100,0.456187255859375,-0.1342712789773941,-0.20141281187534332,0.2204224169254303,0.1544116884469986,-0.25792819261550903,-0.9537453055381775,0.03838309645652771,-0.003760039806365967,0.00889056921005249,0.9882110027189558,0.12906600148857242,0.08043211473011554,0.01765031518877612
1729786049502218000,0.466218017578125,-0.04082223027944565,-0.2157641053199768,0.2432563751935959,0.15192155539989471,-0.2569994628429413,-0.9543956518173218,0.04880779981613159,0.018214672803878784,0.0018047094345092773,0.9883567536699793,0.1285155387440266,0.07928378415778768,0.018673878722153297
1729786049512247800,0.476247802734375,0.0007614288479089737,-0.21802060306072235,0.25225600600242615,0.1492004245519638,-0.2572219669818878,-0.9547649621963501,0.057205215096473694,0.022190839052200317,0.006751656532287598,0.988428850191592,0.12855544732166735,0.07804501697302133,0.019771512253916546
1729786049522279000,0.48627880859375,-0.017017967998981476,-0.226041778922081,0.2642969489097595,0.14642173051834106,-0.2575674057006836,-0.9551019668579102,0.057222068309783936,0.013243675231933594,0.014687538146972656,0.988490657850619,0.12865894748746526,0.07678479850861256,0.02090947681259215
1729786049532310000,0.49631005859375,-0.09849178791046143,-0.25624656677246094,0.28382033109664917,0.14342334866523743,-0.2574485242366791,-0.9555888175964355,0.05826731026172638,-0.011441856622695923,0.018867015838623047,0.9885871499502178,0.12852200243447975,0.07541674050758483,0.02213119114992207
1729786049542339800,0.50633984375,-0.22672505676746368,-0.2932291328907013,0.3177487254142761,0.14000670611858368,-0.2563430666923523,-0.9563923478126526,0.07245667278766632,-0.040348827838897705,0.025621473789215088,0.9887585998443742,0.12787327809991295,0.07383930216681811,0.023506795741463662
1729786049552370700,0.51637060546875,-0.37143322825431824,-0.32782652974128723,0.37226495146751404,0.13614758849143982,-0.2539697587490082,-0.9575819373130798,0.09430588781833649,-0.06344357132911682,0.045701444149017334,0.9890195358025402,0.1265644422178786,0.07204488569678476,0.02512556041596452
1729786049562402000,0.526402099609375,-0.5178157091140747,-0.3784237802028656,0.41881063580513,0.13174718618392944,-0.25024864077568054,-0.9591758251190186,0.12077049911022186,-0.08632969856262207,0.05614548921585083,0.9893721588862563,0.1245563798663037,0.06998419193735544,0.027030501988280897
1729786049572432000,0.536431884765625,-0.6477348208427429,-0.4289085268974304,0.4385651648044586,0.12679123878479004,-0.2451455146074295,-0.9611595273017883,0.14698195457458496,-0.0902884304523468,0.07282334566116333,0.9898141018302343,0.121844524873747,0.06763240345580507,0.029118171404842262
1729786049582462700,0.546462646484375,-0.6984241008758545,-0.477344810962677,0.43329182267189026,0.12136807292699814,-0.2391280233860016,-0.9633730053901672,0.16304048895835876,-0.07367712259292603,0.07654750347137451,0.990308188872387,0.11868273335887121,0.06502230097550266,0.031243624972834002
1729786049592494000,0.556494140625,-0.7200031876564026,-0.5001132488250732,0.44525420665740967,0.1155984178185463,-0.2327873259782791,-0.965632975101471,0.16493439674377441,-0.062424436211586,0.06498301029205322,0.990809623595157,0.11537855052568233,0.06221975408204429,0.033357348744649636
1729786049602524000,0.56652392578125,-0.7351015210151672,-0.5024610757827759,0.4771200120449066,0.10967748612165451,-0.22625286877155304,-0.9678742289543152,0.1510341763496399,-0.04987017810344696,0.06612557172775269,0.9912977355019299,0.11198975346267763,0.05933961310506911,0.0355789926625954
1729786049612554800,0.5765546875,-0.7815526723861694,-0.5128657817840576,0.5323774218559265,0.10360971838235855,-0.21946164965629578,-0.970103919506073,0.13895924389362335,-0.046911031007766724,0.072032630443573,0.9917695698785184,0.1084798597696209,0.05639290914710333,0.03801545289430936
1729786049622586000,0.586586181640625,-0.9140455722808838,-0.48899129033088684,0.5851607322692871,0.09752912074327469,-0.21182280778884888,-0.9724295139312744,0.13499955832958221,-0.07247895002365112,0.08044648170471191,0.9922464015972243,0.1045435348655771,0.05344054374214565,0.0407641180250801
1729786049632615700,0.59661572265625,-1.133290410041809,-0.48233312368392944,0.6201562285423279,0.09151855111122131,-0.20242469012737274,-0.9750121235847473,0.1309851109981537,-0.10200339555740356,0.09006339311599731,0.9927679838993385,0.09972231579819933,0.05049165748436282,0.04379386755564331
1729786049642645200,0.606645263671875,-1.4153040647506714,-0.4887818992137909,0.6439334750175476,0.08552446216344833,-0.19053049385547638,-0.9779487252235413,0.12915143370628357,-0.12720327079296112,0.10084301233291626,0.993359552714609,0.09365438964307993,0.04748151859375318,0.04702382197806129
1729786049652676400,0.61667626953125,-1.7259637117385864,-0.5073108077049255,0.6413872241973877,0.07944971323013306,-0.1756497174501419,-0.9812415242195129,0.13371556997299194,-0.1510104387998581,0.11222296953201294,0.9940238675584611,0.08610662650534104,0.044327075969725536,0.050371445803823044
1729786049662706400,0.62670654296875,-2.0363073348999023,-0.5198549032211304,0.6152715086936951,0.0733262225985527,-0.15760605037212372,-0.9847759008407593,0.1401900053024292,-0.16819961369037628,0.12425649166107178,0.9947379652013233,0.07700549587645361,0.04101459177576906,0.05370604224030365
1729786049672737300,0.6367373046875,-2.3223631381988525,-0.5226397514343262,0.5785827040672302,0.06731876730918884,-0.13644300401210785,-0.9883579611778259,0.13923946022987366,-0.17422594130039215,0.12464946508407593,0.995458962973274,0.06638206348446929,0.03760894780661664,0.05692472574395172
1729786049682768400,0.646768310546875,-2.57010817527771,-0.5227969884872437,0.5464490056037903,0.06139465793967247,-0.1124756783246994,-0.9917559623718262,0.12209226936101913,-0.1677824854850769,0.11075931787490845,0.996130426987562,0.05440206932216307,0.034094376056032556,0.06001822762665149
1729786049692798500,0.656798583984375,-2.745215654373169,-0.48977166414260864,0.5101314783096313,0.05581013113260269,-0.08624698966741562,-0.9947093725204468,0.09668619930744171,-0.15200373530387878,0.10321462154388428,0.9966890607742732,0.04133278534229665,0.030609264437410823,0.06297309670352176
1729786049702829300,0.666829345703125,-2.862903356552124,-0.44934162497520447,0.47767049074172974,0.05076858028769493,-0.05845515429973602,-0.9969982504844666,0.07008102536201477,-0.13749821484088898,0.09830141067504883,0.997082899981873,0.027514250218131153,0.02727328336795977,0.0657635518585611
1729786049712860400,0.6768603515625,-2.9090898036956787,-0.4407782256603241,0.4531877636909485,0.04612669348716736,-0.029750917106866837,-0.9984924793243408,0.05322327837347984,-0.10220709443092346,0.07654118537902832,0.9972793463421129,0.013267180973737525,0.024036372998907485,0.06841184825968068
1729786049722890500,0.686890380859375,-2.8525426387786865,-0.4446032643318176,0.4237222969532013,0.04163607582449913,-0.0010135952616110444,-0.9991323351860046,0.05232754349708557,-0.05214802548289299,0.05424708127975464,0.9972649228322168,-0.000971314939519144,0.020806063867288383,0.07091470783745957
1729786049732921300,0.69692138671875,-2.6934964656829834,-0.4252532720565796,0.401817262172699,0.03731875121593475,0.026657186448574066,-0.99894779920578,0.05507321283221245,-0.019500812515616417,0.04869145154953003,0.9970486564405823,-0.014664072896265366,0.01763704645171114,0.0732662636711316
1729786049742952400,0.706952392578125,-2.5226011276245117,-0.39834728837013245,0.3806576430797577,0.033350445330142975,0.05262060835957527,-0.9980575442314148,0.05919410288333893,-0.015831664204597473,0.021464526653289795,0.9966605545819841,-0.027507736006618703,0.014647961986502365,0.07547613490439573
1729786049752982300,0.716982177734375,-2.3852298259735107,-0.383475661277771,0.36992910504341125,0.029700936749577522,0.07701101899147034,-0.9965877532958984,0.05829649418592453,-0.01161184161901474,0.0077571868896484375,0.996130608975467,-0.03957604400917638,0.011826161664202,0.0775738633425238
1729786049763013400,0.727013427734375,-2.275790214538574,-0.39621081948280334,0.3782613277435303,0.02616898901760578,0.10018228739500046,-0.9946249127388,0.05828840285539627,0.010627038776874542,0.002742588520050049,0.9954752488044594,-0.05104363886009475,0.009060714944829292,0.07963336811304499
1729786049773044200,0.737044189453125,-2.1625444889068604,-0.4393782615661621,0.40386176109313965,0.022421620786190033,0.12221833318471909,-0.9922499656677246,0.05371973291039467,0.03390960395336151,-0.01333475112915039,0.99470406079393,-0.06194244116163406,0.006177586900587899,0.08178462965914104
1729786049783074300,0.74707421875,-2.030378818511963,-0.4395254850387573,0.42626720666885376,0.018596230074763298,0.14295834302902222,-0.9895539879798889,0.04321712255477905,0.04232914745807648,-0.038888394832611084,0.9938364944102726,-0.0721972899667144,0.003249291594728459,0.0840592537989201
1729786049793105400,0.75710546875,-1.8933345079421997,-0.4420323073863983,0.42493537068367004,0.014893664047122002,0.1623663604259491,-0.986618161201477,0.03262220323085785,0.0507684051990509,-0.08785998821258545,0.9928981966993973,-0.08179722605241387,0.00038356932523731695,0.08638418750925457
1729786049803136300,0.76713623046875,-1.7164108753204346,-0.4593428075313568,0.3903036117553711,0.011148879304528236,0.18014904856681824,-0.9835761189460754,0.026601359248161316,0.05437853932380676,-0.11690300703048706,0.9919361800401706,-0.09058599198620051,-0.002471729856537267,0.08860352132911785
1729786049813166300,0.777166259765625,-1.5986675024032593,-0.5301668643951416,0.3646581768989563,0.007019383367151022,0.19640490412712097,-0.9804977774620056,0.030212055891752243,0.05237439274787903,-0.14946132898330688,0.9909722281509444,-0.0985955729734027,-0.005480506510674224,0.09068075854233519
1729786049823197400,0.787197509765625,-1.4995520114898682,-0.5844471454620361,0.36919140815734863,0.0022793225944042206,0.21163015067577362,-0.977347195148468,0.04113192483782768,0.05358287692070007,-0.15700644254684448,0.9899875348123353,-0.10606258795944133,-0.008783130572019826,0.09272686362327331
1729786049833228300,0.797228271484375,-1.3842121362686157,-0.643405556678772,0.3790171444416046,-0.0029104684945195913,0.22576819360256195,-0.9741767048835754,0.05105194076895714,0.03744593262672424,-0.14793938398361206,0.9889846528656027,-0.1129610975709286,-0.01230592866460194,0.09485690704968744
1729786049843258400,0.80725830078125,-1.3028587102890015,-0.6882195472717285,0.3730516731739044,-0.008513526059687138,0.23886018991470337,-0.9710166454315186,0.04664523899555206,-0.0007162690162658691,-0.14685750007629395,0.9879758334693529,-0.11931007172646561,-0.0160244370264313,0.09701606452968614
1729786049853289500,0.81728955078125,-1.2586758136749268,-0.749234139919281,0.3679637014865875,-0.014579147100448608,0.25136271119117737,-0.9677831530570984,0.03534635528922081,-0.015431344509124756,-0.1516626477241516,0.9869422642889889,-0.12533622914822462,-0.01998130335986926,0.09917977816039308
1729786049863320300,0.8273203125,-1.2079212665557861,-0.8210628032684326,0.3747084140777588,-0.021224943920969963,0.263427734375,-0.9644455909729004,0.027648894116282463,0.008483856916427612,-0.15049880743026733,0.9858730104065789,-0.13110801370975694,-0.024246341997688953,0.10137703911368785
1729786049873350400,0.837350341796875,-1.1039050817489624,-0.9224269390106201,0.38848522305488586,-0.02863483503460884,0.27463898062705994,-0.9611209630966187,0.03574542701244354,0.027881771326065063,-0.15602076053619385,0.9847883507891749,-0.13639751795978322,-0.02890059876101681,0.10369363941437498
1729786049883381200,0.84738134765625,-1.0237653255462646,-1.020390272140503,0.4185373783111572,-0.03679220750927925,0.285150945186615,-0.9577761888504028,0.04957907646894455,0.03813698887825012,-0.1877468228340149,0.9836729570014311,-0.14127683914687222,-0.03395214438447143,0.10618656276677227
1729786049893412400,0.857412353515625,-0.9017858505249023,-1.109290361404419,0.42546719312667847,-0.04580162093043327,0.29455482959747314,-0.9545363783836365,0.058359600603580475,0.051941752433776855,-0.18230444192886353,0.9825549441062658,-0.14552283433889487,-0.039432561353791,0.10887534224236688
1729786049903442400,0.8674423828125,-0.8012703657150269,-1.1757761240005493,0.40517178177833557,-0.055449653416872025,0.3028395473957062,-0.9514271020889282,0.05227581784129143,0.05475017428398132,-0.20653188228607178,0.9814606936629134,-0.1491413564864668,-0.045202916310602984,0.1115723979687824
1729786049913473300,0.877473388671875,-0.699566125869751,-1.2548941373825073,0.43804851174354553,-0.06573686003684998,0.310187965631485,-0.9483997821807861,0.02617081254720688,0.031853049993515015,-0.18572497367858887,0.9803675736941028,-0.15221733834855164,-0.05128356826259113,0.11436488676963844
1729786049923504400,0.88750439453125,-0.6481575965881348,-1.3094426393508911,0.4609319865703583,-0.0765606015920639,0.3168359398841858,-0.9453853368759155,0.019462212920188904,0.004926115274429321,-0.1825748085975647,0.9792427587602386,-0.1548655329473077,-0.05765404403611207,0.11737283151886088
1729786049933535200,0.89753515625,-0.674583375453949,-1.3537198305130005,0.4567015469074249,-0.08765965700149536,0.32352277636528015,-0.9421511292457581,0.005628399550914764,-0.001409769058227539,-0.18498510122299194,0.9780410410625829,-0.15748457793601622,-0.0642108517876317,0.12046271926218828
1729786049943565300,0.9075654296875,-0.6484969258308411,-1.4284934997558594,0.4542844593524933,-0.09922661632299423,0.33031216263771057,-0.9386415481567383,-0.012132026255130768,0.012842744588851929,-0.16475200653076172,0.9767551001340765,-0.1600978875236052,-0.07104853373391214,0.1235725747829086
1729786049953596400,0.917596435546875,-0.5538972020149231,-1.5127215385437012,0.44209596514701843,-0.11158589273691177,0.3363863527774811,-0.9350897073745728,-0.0030381232500076294,0.022378265857696533,-0.14167720079421997,0.9754395613802904,-0.16225727089927566,-0.07827969785422888,0.1267380323387594
1729786049963626500,0.92762646484375,-0.47704410552978516,-1.6040412187576294,0.4344026446342468,-0.12465725094079971,0.3417321443557739,-0.9314932823181152,0.011406518518924713,0.040393710136413574,-0.16544580459594727,0.9740943889917831,-0.16395622935140622,-0.08585873874460197,0.1299486365139955
1729786049973657300,0.9376572265625,-0.3726244568824768,-1.6524434089660645,0.42231133580207825,-0.1383901834487915,0.3462887704372406,-0.9278643131256104,0.020882263779640198,0.07187831401824951,-0.14516419172286987,0.9727234754497832,-0.16516217419691498,-0.09375120825278234,0.13319578867858944
1729786049983688400,0.9476884765625,-0.2540191113948822,-1.721204161643982,0.4099891781806946,-0.1526106297969818,0.34981071949005127,-0.9243064522743225,0.029350146651268005,0.08796390891075134,-0.12249219417572021,0.9713553964026006,-0.16575580037300822,-0.10184193304598585,0.13646216225974733
1729786049993718300,0.95771826171875,-0.1934380829334259,-1.7657170295715332,0.4034271538257599,-0.16730859875679016,0.3525150716304779,-0.9207285046577454,0.03565575182437897,0.0884028971195221,-0.09800928831100464,0.9699620682096147,-0.16584341557491558,-0.11014405304527689,0.13977797606316564
1729786050003749400,0.967749267578125,-0.15473689138889313,-1.8135015964508057,0.39276278018951416,-0.18238891661167145,0.3548000454902649,-0.9169794321060181,0.039124131202697754,0.09301489591598511,-0.056104063987731934,0.9685072884517124,-0.16563704324997727,-0.11863669904446168,0.14312046402917927
1729786050013780500,0.977780517578125,-0.15222659707069397,-1.8503786325454712,0.37441518902778625,-0.19784493744373322,0.35693085193634033,-0.9129390716552734,0.042907193303108215,0.11291781067848206,-0.011178970336914062,0.9669721187985092,-0.16528309916006323,-0.1273261641224077,0.14640566070497515
1729786050023811300,0.987811279296875,-0.17126700282096863,-1.8726650476455688,0.37569430470466614,-0.21351705491542816,0.35917723178863525,-0.9085164666175842,0.054596781730651855,0.12644898891448975,0.018517136573791504,0.9653305040455487,-0.16493009380545248,-0.13616102486574214,0.14965044705236089
1729786050033841400,0.99784130859375,-0.18506616353988647,-1.889634132385254,0.4043826758861542,-0.22921228408813477,0.361667275428772,-0.9036915898323059,0.07436609268188477,0.10834920406341553,0.04358416795730591,0.9635610171283631,-0.16464269215994096,-0.14507580187996966,0.15295695909489906
1729786050043872300,1.007872314453125,-0.20900031924247742,-1.9044272899627686,0.4364039897918701,-0.2448371946811676,0.36445388197898865,-0.89845871925354,0.0948890745639801,0.07780686020851135,0.05806565284729004,0.9616473303895204,-0.1644393428915316,-0.15404652035017596,0.15640920083942617
1729786050053903400,1.0179033203125,-0.24962365627288818,-1.9111930131912231,0.44615888595581055,-0.2603535056114197,0.36764615774154663,-0.8927778601646423,0.10355418920516968,0.04478365182876587,0.06958150863647461,0.9595883711750817,-0.16438769222670038,-0.16305748501355383,0.15993477246068574
1729786050063933400,1.027933349609375,-0.26205116510391235,-1.9023101329803467,0.45657879114151,-0.27569469809532166,0.37117239832878113,-0.886692464351654,0.09239086508750916,0.016858607530593872,0.09441035985946655,0.9574050281672097,-0.1644651018944916,-0.1720610657857617,0.1634680053802764
1729786050073964300,1.03796435546875,-0.2620287835597992,-1.8678678274154663,0.4610867202281952,-0.29069840908050537,0.37483057379722595,-0.8803388476371765,0.06871354579925537,-0.0019667744636535645,0.10919016599655151,0.9551348604667683,-0.16458151484490294,-0.18095165614772987,0.16699343254514742
1729786050083995400,1.047995361328125,-0.22569207847118378,-1.8198221921920776,0.4422807991504669,-0.3052041232585907,0.3783224821090698,-0.8739122152328491,0.04534691572189331,-0.004039645195007324,0.10375535488128662,0.9528374749768339,-0.16460458027981228,-0.18960281535712092,0.17046069549970008
1729786050094025500,1.058025390625,-0.18129505217075348,-1.7716195583343506,0.40569108724594116,-0.31926229596138,0.38144969940185547,-0.8675065636634827,0.018587857484817505,0.006093055009841919,0.09492361545562744,0.9505555921588124,-0.16444911280841495,-0.1979979626406244,0.17377362517376482
1729786050104056300,1.068056396484375,-0.10535548627376556,-1.7064731121063232,0.3504936099052429,-0.3329235911369324,0.38395461440086365,-0.861243724822998,-0.003471672534942627,0.01678699254989624,0.10456037521362305,0.9483365839074229,-0.1639964477292982,-0.20611481523173827,0.1768600496452094
1729786050114086400,1.07808642578125,-0.0037686743307858706,-1.6104224920272827,0.3162858486175537,-0.3459315001964569,0.38554251194000244,-0.855387806892395,-0.015655994415283203,0.014710754156112671,0.1248885989189148,0.9462504706917088,-0.16311664705811552,-0.21377336243699843,0.17973265699337942
1729786050124117200,1.0881171875,0.05088598281145096,-1.5175065994262695,0.32272404432296753,-0.35805565118789673,0.3864213228225708,-0.8499851226806641,-0.02373450994491577,0.005454897880554199,0.13970375061035156,0.9442829084731924,-0.16190957387465413,-0.2208907926685985,0.18254367556861933
1729786050134148400,1.0981484375,0.07161229848861694,-1.4496062994003296,0.35079243779182434,-0.3693453073501587,0.38712450861930847,-0.8448187112808228,-0.01877725124359131,0.013632327318191528,0.13324034214019775,0.9423554447381902,-0.16062820461277824,-0.22757247077940573,0.1854064172290106
1729786050144179500,1.108179443359375,0.1269119679927826,-1.40109121799469,0.3435630202293396,-0.38003644347190857,0.38764676451683044,-0.8398227691650391,-0.01953020691871643,0.027087122201919556,0.12865638732910156,0.9404513913594128,-0.1592524764280253,-0.233938593777419,0.18831511569872555
1729786050154209300,1.118209228515625,0.23874317109584808,-1.341471552848816,0.28889843821525574,-0.39031386375427246,0.38734790682792664,-0.835234522819519,-0.03339219093322754,0.038997918367385864,0.12577712535858154,0.9386635036540001,-0.15746828991570075,-0.23997183317606083,0.19112334861306896
1729786050164240400,1.128240478515625,0.3440416157245636,-1.2804007530212402,0.23792605102062225,-0.4002436101436615,0.3859591484069824,-0.8311682343482971,-0.053476482629776,0.05167818069458008,0.10137087106704712,0.9370425015319412,-0.15515589904494068,-0.2456471809867647,0.19374088768978448
1729786050174271200,1.138271240234375,0.47038623690605164,-1.2187983989715576,0.21749401092529297,-0.40978044271469116,0.38349172472953796,-0.8276557922363281,-0.06583604216575623,0.062400639057159424,0.10162734985351562,0.9355773725434116,-0.1523030428483327,-0.2509499709202261,0.19627250442316116
1729786050184301300,1.14830126953125,0.5687357187271118,-1.1622778177261353,0.2326394021511078,-0.4187735617160797,0.3800967037677765,-0.8247151970863342,-0.05929955840110779,0.06207248568534851,0.114662766456604,0.9342372597554567,-0.14895993714701405,-0.25583848251949093,0.1988928069910173
1729786050194332400,1.15833251953125,0.6047406196594238,-1.1177587509155273,0.25743237137794495,-0.4272477626800537,0.3762688934803009,-0.8221198916435242,-0.05082538723945618,0.043897151947021484,0.11072462797164917,0.9329524667549364,-0.1453745171674447,-0.2603964596728995,0.20164225241543665
1729786050204362500,1.168362548828125,0.5819715261459351,-1.0781450271606445,0.2637706995010376,-0.4352785050868988,0.3724980652332306,-0.8196205496788025,-0.050332456827163696,0.02067515254020691,0.12003558874130249,0.9316715868382852,-0.14181789431426559,-0.26472139236121744,0.20444635939352998
1729786050214393300,1.178393310546875,0.534694254398346,-1.042845606803894,0.22895465791225433,-0.4430631399154663,0.36900418996810913,-0.8170256614685059,-0.05614340305328369,0.004744589328765869,0.11646413803100586,0.9303901470568525,-0.1384478612066338,-0.2689225994156629,0.2070914656123169
1729786050224424400,1.188424560546875,0.505328893661499,-1.0069339275360107,0.1816481202840805,-0.45070934295654297,0.36567044258117676,-0.8143379092216492,-0.07349109649658203,-0.00760766863822937,0.10671162605285645,0.9291406809267159,-0.13523445005486429,-0.27302504808450256,0.20944374666356275
1729786050234455300,1.198455322265625,0.4726386070251465,-0.9637004733085632,0.15561413764953613,-0.4581604599952698,0.3624272346496582,-0.8116252422332764,-0.09130853414535522,-0.016876697540283203,0.09359240531921387,0.9279315591754506,-0.13213619340656416,-0.27699711976243596,0.21155553957694065
1729786050244485400,1.2084853515625,0.44269976019859314,-0.8943568468093872,0.14797618985176086,-0.46508243680000305,0.35945674777030945,-0.809005081653595,-0.09856197237968445,-0.013799399137496948,0.10243159532546997,0.92677516695951,-0.12925971267721853,-0.28069446350008703,0.2135192840073416
1729786050254516500,1.2185166015625,0.4379124641418457,-0.8505481481552124,0.117078997194767,-0.4717099964618683,0.35652482509613037,-0.8064612150192261,-0.08387777209281921,-0.002749800682067871,0.12201297283172607,0.92566922210268,-0.1264630849674069,-0.2842120217570861,0.21533018780624147
1729786050264547300,1.22854736328125,0.4377383589744568,-0.8160203695297241,0.05545664578676224,-0.4781077802181244,0.35338884592056274,-0.8040704131126404,-0.08681836724281311,-0.006800711154937744,0.10889524221420288,0.9246632165205746,-0.12365254145392164,-0.28753232623860264,0.21687114525609405
1729786050274577400,1.238577392578125,0.40583768486976624,-0.8060268759727478,0.03183227404952049,-0.48448002338409424,0.3501717746257782,-0.8016600608825684,-0.08600032329559326,-0.017652273178100586,0.10831594467163086,0.923705093332657,-0.12086385433338998,-0.29079529985485425,0.2181718041818366
1729786050284608300,1.248608154296875,0.32401978969573975,-0.8001831769943237,0.020589206367731094,-0.490835964679718,0.347368985414505,-0.7990086674690247,-0.07178613543510437,-0.014666318893432617,0.11590319871902466,0.9227175285496093,-0.11833102621312999,-0.2940976749380824,0.21930938109094886
1729786050294639400,1.258639404296875,0.23707741498947144,-0.7863547205924988,0.01832818239927292,-0.4971202313899994,0.3452407717704773,-0.7960403561592102,-0.06499829888343811,-0.006327837705612183,0.12593543529510498,0.9216802416891385,-0.1161963457622831,-0.2974529035820936,0.2202853443854667
1729786050304669400,1.26866943359375,0.2003529667854309,-0.7408820986747742,0.011285188607871532,-0.5031642913818359,0.34360232949256897,-0.7929458618164062,-0.06911659240722656,-0.00887027382850647,0.12722015380859375,0.9206422905236511,-0.11438108125253366,-0.300739170550844,0.2211121922981172
1729786050314700300,1.2787001953125,0.22502875328063965,-0.6883832216262817,0.006896298378705978,-0.5088008046150208,0.34197819232940674,-0.790045976638794,-0.08339279890060425,-0.01859867572784424,0.10427021980285645,0.9196713580584791,-0.11263316090663858,-0.3037939965851273,0.22187275423279748
1729786050324731400,1.2887314453125,0.27576157450675964,-0.6566181778907776,0.009071036241948605,-0.5140798687934875,0.3400585651397705,-0.7874529361724854,-0.09637850522994995,-0.02365228533744812,0.06108880043029785,0.9187724563131406,-0.11075209496007225,-0.3066064386952023,0.2226740852803769
1729786050334761500,1.298761474609375,0.3491002321243286,-0.6376956105232239,0.008400185965001583,-0.5191491842269897,0.3376571834087372,-0.7851571440696716,-0.10260069370269775,-0.019938647747039795,0.033463478088378906,0.9179330009276839,-0.10861076423977628,-0.3092331137053474,0.2235568631071091
1729786050344792300,1.308792236328125,0.4475686252117157,-0.6328712701797485,0.012464701198041439,-0.5241208076477051,0.3345681428909302,-0.7831740379333496,-0.09987211227416992,-0.020572781562805176,0.01963949203491211,0.9171481345776521,-0.10607655652427087,-0.3117062001878216,0.22455811294584005
1729786050354823400,1.318823486328125,0.510791540145874,-0.6156827211380005,0.03189992159605026,-0.5289592742919922,0.33087465167045593,-0.781488299369812,-0.09541505575180054,-0.02321171760559082,0.012231767177581787,0.9163973771953046,-0.10317432859948406,-0.3140237363974358,0.22574296033980332
1729786050364853500,1.328853515625,0.5258672833442688,-0.57523512840271,0.05257750302553177,-0.5334872603416443,0.32701659202575684,-0.7800329923629761,-0.08368498086929321,-0.022039145231246948,0.026309847831726074,0.915672772856432,-0.10016801537370093,-0.3161484974298729,0.22706787232453393
1729786050374884400,1.33888427734375,0.5071316361427307,-0.5158994197845459,0.06362269818782806,-0.5375723242759705,0.32325443625450134,-0.778795599937439,-0.07422882318496704,-0.02612006664276123,0.047426581382751465,0.9149979320631293,-0.09724776329097766,-0.31803315206866484,0.2284218553975651
1729786050384915500,1.34891552734375,0.44003239274024963,-0.47886744141578674,0.07004065066576004,-0.5412342548370361,0.3198896050453186,-0.7776477932929993,-0.07284039258956909,-0.04179820418357849,0.04302871227264404,0.9143602922963785,-0.09459940250600975,-0.3197296476981521,0.22971554872711855
1729786050394945300,1.3589453125,0.3326422870159149,-0.4596303701400757,0.08269146084785461,-0.5446285009384155,0.3172941207885742,-0.7763403058052063,-0.07283365726470947,-0.04831215739250183,0.0235479474067688,0.9136999215161498,-0.09240775820778435,-0.3213886417808977,0.2309169795295892
1729786050404976400,1.368976318359375,0.22754544019699097,-0.42029014229774475,0.06384134292602539,-0.5478132963180542,0.315550833940506,-0.7748085260391235,-0.0707932710647583,-0.03425505757331848,0.007993340492248535,0.9130259172158968,-0.09074551222125783,-0.32304949363520535,0.23192240837507405
1729786050415007200,1.37900732421875,0.1727251410484314,-0.38658881187438965,0.004202244803309441,-0.5508100986480713,0.3142131567001343,-0.7732259035110474,-0.07603615522384644,-0.012180715799331665,-0.013990223407745361,0.9124255308455677,-0.089435692930238,-0.324635627200832,0.23257821617036095
1729786050425037300,1.389037353515625,0.17803847789764404,-0.37544527649879456,-0.057812388986349106,-0.5538358688354492,0.3127375841140747,-0.7716612219810486,-0.08915424346923828,0.011435359716415405,-0.061209261417388916,0.9119124158477138,-0.08816372792097533,-0.326184834553669,0.23290843515311574
1729786050435068400,1.399068359375,0.23640377819538116,-0.3786011338233948,-0.10754532366991043,-0.5570187568664551,0.3106912076473236,-0.770195484161377,-0.09193754196166992,0.04169526696205139,-0.09892988204956055,0.9114784043776499,-0.08664809032292993,-0.32771079748063253,0.23303395823500994
1729786050445099300,1.409099365234375,0.3230646550655365,-0.3805029094219208,-0.14756891131401062,-0.5603529214859009,0.3078113794326782,-0.7689322829246521,-0.08311021327972412,0.07059133052825928,-0.10432827472686768,0.9111208150883635,-0.08471087330171058,-0.32917767448834157,0.23307730754929606
1729786050455129300,1.41912939453125,0.40060532093048096,-0.37093430757522583,-0.1759595423936844,-0.563737154006958,0.3040872812271118,-0.7679396867752075,-0.07348513603210449,0.08508813381195068,-0.10466468334197998,0.910843955879419,-0.08233986426066968,-0.3305303374499054,0.233094724031002
1729786050465160400,1.429160400390625,0.44572678208351135,-0.36894690990448,-0.1999996304512024,-0.5671716332435608,0.2997443377971649,-0.7671177387237549,-0.06612914800643921,0.08758476376533508,-0.10432696342468262,0.9106186029068866,-0.07964875945161641,-0.3318089676410361,0.23309355359149242
1729786050475191300,1.43919140625,0.4438212811946869,-0.3861660957336426,-0.24211885035037994,-0.5707294344902039,0.2950572669506073,-0.7662956714630127,-0.06196093559265137,0.09263801574707031,-0.10585087537765503,0.9104224592270912,-0.07680441350699632,-0.3330964382648193,0.23297810503036495
1729786050485221400,1.449221435546875,0.4534885585308075,-0.4050996005535126,-0.3067622780799866,-0.5745890736579895,0.2900281846523285,-0.7653306722640991,-0.0574299693107605,0.09885731339454651,-0.10190260410308838,0.9102476046930297,-0.07382937633083454,-0.33449046925948617,0.23262570359786597
1729786050495252500,1.45925244140625,0.45731091499328613,-0.40910637378692627,-0.36833855509757996,-0.5786918997764587,0.28457707166671753,-0.7642850875854492,-0.05125194787979126,0.09936457872390747,-0.10480976104736328,0.9101194676041697,-0.07070347757697011,-0.3359441757779709,0.23200260807747786
1729786050505283300,1.469283447265625,0.4537491500377655,-0.4072874188423157,-0.42434030771255493,-0.5829426646232605,0.27876871824264526,-0.7631945013999939,-0.0434306263923645,0.10340291261672974,-0.1108594536781311,0.910048953385057,-0.06747642313080303,-0.33741619498322867,0.23110187237571095
1729786050515313400,1.4793134765625,0.45852261781692505,-0.4243074059486389,-0.4703293740749359,-0.5873475074768066,0.2726413607597351,-0.7620298862457275,-0.030480802059173584,0.11677813529968262,-0.11252754926681519,0.9100166255625948,-0.06415207074775275,-0.33892412540009753,0.2299666203758312
1729786050525344300,1.48934423828125,0.4753125011920929,-0.469051718711853,-0.5202641487121582,-0.5920954346656799,0.2661469578742981,-0.7606502175331116,-0.014212489128112793,0.13227525353431702,-0.12339824438095093,0.9099719592977782,-0.06066499486521613,-0.3405798905447873,0.22863956628745563
1729786050535375400,1.499375244140625,0.5033100247383118,-0.5264979600906372,-0.5718719959259033,-0.5973331332206726,0.25917375087738037,-0.7589612007141113,-0.0034816861152648926,0.14201033115386963,-0.13814878463745117,0.9098864045147048,-0.05693549784183908,-0.3424583990869375,0.2271284387042937
1729786050545405400,1.509405517578125,0.5112245082855225,-0.5819045901298523,-0.6037960648536682,-0.6030638217926025,0.2517564296722412,-0.7569231986999512,0.001363992691040039,0.1412031352519989,-0.15776491165161133,0.9097387618075465,-0.05296731597844301,-0.3445763632683934,0.22547048804874067
1729786050555436300,1.519436279296875,0.5083134174346924,-0.6206469535827637,-0.6311156153678894,-0.6091523170471191,0.24413476884365082,-0.7545406818389893,0.004385471343994141,0.13310827314853668,-0.17226290702819824,0.9095226565624006,-0.04889179383935645,-0.34689949511189294,0.22369358349606694
1729786050565467400,1.52946728515625,0.4770851731300354,-0.6688007116317749,-0.6794543862342834,-0.6155934929847717,0.23640504479408264,-0.751769483089447,0.003243088722229004,0.12747131288051605,-0.18313652276992798,0.9092418552643187,-0.044785559017057545,-0.34944173336984324,0.22172971886587345
1729786050575497500,1.53949755859375,0.43198347091674805,-0.7199200987815857,-0.7376641631126404,-0.6224640011787415,0.22860661149024963,-0.7485169768333435,-0.0005218386650085449,0.12561091780662537,-0.193179190158844,0.9088986496794963,-0.04070618893966941,-0.35225633422867536,0.21945810700130494
1729786050585528300,1.5495283203125,0.4024621248245239,-0.7618013620376587,-0.7963775396347046,-0.629749596118927,0.2206798940896988,-0.7447924613952637,0.00047713518142700195,0.12633547186851501,-0.18913698196411133,0.9085028846070601,-0.03664305213225481,-0.3553323080443207,0.21683823320747136
1729786050595559400,1.559559326171875,0.4231431484222412,-0.7934712171554565,-0.8572392463684082,-0.6373286247253418,0.21237918734550476,-0.7407478094100952,0.010802745819091797,0.12986019253730774,-0.19083178043365479,0.9080767293416725,-0.03246082775322933,-0.35856991450789144,0.21394062243373715
1729786050605589500,1.569589599609375,0.50436931848526,-0.8532612323760986,-0.900950014591217,-0.6452568769454956,0.203307643532753,-0.7364166975021362,0.022545695304870605,0.137451633810997,-0.21295464038848877,0.9075974485475686,-0.027897861088572236,-0.361957662754237,0.2108915030196272
1729786050615620400,1.579620361328125,0.6316422820091248,-0.9186054468154907,-0.9269176721572876,-0.653597354888916,0.19319432973861694,-0.731769323348999,0.03911072015762329,0.15282922983169556,-0.2374536395072937,0.9070138878005007,-0.02273162271738014,-0.36551142509725776,0.2078711127523673
1729786050625651500,1.5896513671875,0.7965272068977356,-0.9855334162712097,-0.9469398856163025,-0.6623201370239258,0.18180254101753235,-0.7268286347389221,0.05402851104736328,0.17600080370903015,-0.2605065703392029,0.9063006322821334,-0.016781248078216238,-0.36919380668499036,0.20502080465601327
1729786050635681300,1.599681396484375,1.0114238262176514,-1.0424410104751587,-0.985386848449707,-0.6713690161705017,0.16881991922855377,-0.7216393947601318,0.056455135345458984,0.20097680389881134,-0.2882329821586609,0.9054598453480391,-0.009863071894621898,-0.37293836065247066,0.20239094037645686
1729786050645712000,1.6097119140625,1.2213797569274902,-1.086395263671875,-1.008365511894226,-0.6806634664535522,0.15400469303131104,-0.7162261009216309,0.055220961570739746,0.20331037044525146,-0.30258798599243164,0.9044951617126912,-0.0018419563493818915,-0.3766743540665887,0.2000038164647343
1729786050655743000,1.619742919921875,1.3824371099472046,-1.1257799863815308,-0.9972491264343262,-0.6900344491004944,0.13779042661190033,-0.7105394005775452,0.06306606531143188,0.17992809414863586,-0.29280221462249756,0.9033821800332127,0.007068357149161044,-0.38036866903287736,0.19791492812929998
1729786050665772800,1.629772705078125,1.4767863750457764,-1.187204360961914,-0.9648762345314026,-0.6994844675064087,0.12081009894609451,-0.7043623924255371,0.08447897434234619,0.1469053477048874,-0.2594895362854004,0.9020518399578797,0.016570781806538856,-0.3841148353077362,0.1961724599044483
1729786050675804000,1.639803955078125,1.5038044452667236,-1.230097770690918,-0.9522027969360352,-0.7090654969215393,0.10361851751804352,-0.6974878311157227,0.1001177430152893,0.10858546942472458,-0.23374080657958984,0.900482638551582,0.026325908651202864,-0.38802451747292027,0.19461471715648823
1729786050685835000,1.6498349609375,1.4775813817977905,-1.2900248765945435,-0.9468482732772827,-0.7187058925628662,0.086476169526577,-0.6899157166481018,0.07928633689880371,0.07863917946815491,-0.22844970226287842,0.8987139220516428,0.03611668904504269,-0.3920940111551481,0.19305741818704458
1729786050695864800,1.65986474609375,1.423843502998352,-1.3640443086624146,-0.9295238852500916,-0.7285188436508179,0.06975839287042618,-0.681464672088623,0.04349076747894287,0.055333152413368225,-0.25159502029418945,0.8967035483103593,0.04574949469241427,-0.3964525934028744,0.19145525105456584
1729786050705896000,1.66989599609375,1.3742443323135376,-1.4083012342453003,-0.9176884889602661,-0.7384292483329773,0.05356676131486893,-0.6722000241279602,0.01870274543762207,0.03469008952379227,-0.2516281008720398,0.8944736417404479,0.055152412487547625,-0.40107132464924067,0.18978110849186866
1729786050715926800,1.6799267578125,1.3013837337493896,-1.4164124727249146,-0.8980903029441833,-0.7482371926307678,0.037953201681375504,-0.6623448729515076,0.00022083520889282227,0.019572436809539795,-0.2210932970046997,0.892086244769326,0.06426591793028053,-0.40582935627623,0.18802814585660932
1729786050725956900,1.689956787109375,1.239325761795044,-1.4014592170715332,-0.8775296211242676,-0.7577309012413025,0.022957460954785347,-0.6521631479263306,-0.016194820404052734,0.009513234719634056,-0.18873339891433716,0.8896171538915288,0.07302586406669653,-0.4105918106263204,0.18617953439013316
1729786050735988000,1.699988037109375,1.221972942352295,-1.352168083190918,-0.8442973494529724,-0.7667774558067322,0.008446283638477325,-0.6418574452400208,-0.027701914310455322,-0.00888877734541893,-0.1462436318397522,0.8870953190445002,0.08153845484092154,-0.4152381844706636,0.18436532685413706
1729786050746018800,1.710018798828125,1.202255368232727,-1.2932413816452026,-0.805993378162384,-0.7752156257629395,-0.0056497943587601185,-0.6316714286804199,-0.04349470138549805,-0.022792596369981766,-0.12461519241333008,0.884567081670381,0.08986127704980755,-0.41962989280693425,0.18269296754876907
1729786050756049000,1.720048828125,1.1925724744796753,-1.2243638038635254,-0.7471367120742798,-0.783012330532074,-0.019194485619664192,-0.6217100024223328,-0.07706457376480103,-0.030427096411585808,-0.13353902101516724,0.882057270908426,0.09792442598332218,-0.42374026955951294,0.18119049503185702
1729786050766080000,1.730080078125,1.2630054950714111,-1.213344693183899,-0.6855466365814209,-0.7903247475624084,-0.03237679973244667,-0.6118321418762207,-0.11189693212509155,-0.03038259968161583,-0.1413569450378418,0.8794910232944894,0.10594105932432178,-0.4276218151641135,0.1800324690826595
1729786050776110800,1.74011083984375,1.4161211252212524,-1.2433736324310303,-0.6547351479530334,-0.7975144386291504,-0.04582889750599861,-0.6015567779541016,-0.1362471580505371,-0.01691523566842079,-0.16220664978027344,0.8767187401517965,0.11436415049718993,-0.431442280780359,0.1792841098624186
1729786050786141000,1.750140869140625,1.5922983884811401,-1.2390557527542114,-0.6301296949386597,-0.8046133518218994,-0.0599965825676918,-0.5907604098320007,-0.16180205345153809,-0.016358401626348495,-0.14630013704299927,0.8736956076087502,0.12348420401270484,-0.43516830846299986,0.17898664545959062
1729786050796171800,1.760171875,1.7076585292816162,-1.141405701637268,-0.5730720162391663,-0.81122225522995,-0.07459598034620285,-0.5799604058265686,-0.1835440993309021,-0.03343624621629715,-0.09492063522338867,0.8705530951136301,0.13311860646978052,-0.43851936794527613,0.17921402981415316
1729786050806203000,1.770202880859375,1.679965853691101,-0.9972497820854187,-0.5235012769699097,-0.8169277310371399,-0.08890604972839355,-0.5698462724685669,-0.2068759799003601,-0.061286211013793945,-0.039498209953308105,0.8675116141567494,0.14272301476145483,-0.4412561569618642,0.1798521029761153
1729786050816233000,1.78023291015625,1.4659150838851929,-0.9210458397865295,-0.4857131242752075,-0.8218408823013306,-0.10201910138130188,-0.5605083703994751,-0.24987542629241943,-0.08673210442066193,-0.014686942100524902,0.8646879363715747,0.15157323017694943,-0.44358918469323105,0.18046876679953386
1729786050826263800,1.790263916015625,1.1931344270706177,-0.9127436876296997,-0.4403744041919708,-0.8264501094818115,-0.11325445026159286,-0.5515012741088867,-0.2939417362213135,-0.09359368681907654,0.004931509494781494,0.8620276958016082,0.15918940876428261,-0.44599113828665243,0.1807176123351842
1729786050836295000,1.800294921875,0.9046756625175476,-0.9182673692703247,-0.38745126128196716,-0.830984890460968,-0.1224743202328682,-0.5426453948020935,-0.3124935030937195,-0.09841189533472061,0.03445148468017578,0.8594928858058871,0.1654895327838892,-0.44865410208910794,0.18053978923726666
1729786050846325000,1.810324951171875,0.5962166786193848,-0.8943407535552979,-0.2882186770439148,-0.8354629278182983,-0.12933669984340668,-0.5341101288795471,-0.3182692527770996,-0.12014450132846832,0.05420595407485962,0.8571217930467288,0.1702838690178274,-0.45160640836170096,0.17999227155507636
1729786050856355800,1.82035595703125,0.36904823780059814,-0.7600135803222656,-0.15308299660682678,-0.8396070599555969,-0.13371308147907257,-0.5264796614646912,-0.3079759478569031,-0.13717620074748993,0.10510814189910889,0.855014066171473,0.1735804547220888,-0.4545657366748256,0.17941781222114894
1729786050866387000,1.830386962890625,0.2997531294822693,-0.6460602879524231,-0.04964553937315941,-0.8431204557418823,-0.13625045120716095,-0.5201765298843384,-0.2794838547706604,-0.11966994404792786,0.14290302991867065,0.8532332312199871,0.17581292313989785,-0.4571668701138809,0.17911227772175353
1729786050876417000,1.8404169921875,0.4571709632873535,-0.648832380771637,0.06671223044395447,-0.8464788794517517,-0.1380920708179474,-0.5142024159431458,-0.2564569115638733,-0.08435055613517761,0.12318074703216553,0.8514182175199174,0.17794295695978304,-0.4596031793161713,0.17941094642733935
1729786050886447900,1.85044775390625,0.7381615042686462,-0.6531356573104858,0.20473825931549072,-0.849994957447052,-0.1399867832660675,-0.5078507661819458,-0.2044636607170105,-0.030987948179244995,0.0952225923538208,0.8492609294407132,0.18075218826003528,-0.46195590247438617,0.18077998191601993
1729786050896479000,1.86047900390625,1.0755765438079834,-0.6187062859535217,0.33596208691596985,-0.8536198139190674,-0.1422426402568817,-0.5010990500450134,-0.1454952359199524,0.031021326780319214,0.09063762426376343,0.8466960485844945,0.18455565849685673,-0.46410093229999605,0.1834541191381545
1729786050906508800,1.8705087890625,1.4259299039840698,-0.560927152633667,0.45677000284194946,-0.8571378588676453,-0.14508236944675446,-0.49423256516456604,-0.10967427492141724,0.06889522075653076,0.08386266231536865,0.8437751303509535,0.18948758297953927,-0.4658091582229626,0.1875096850012685
1729786050916540000,1.880539794921875,1.659331202507019,-0.5624355673789978,0.5607786774635315,-0.8606217503547668,-0.14836817979812622,-0.487152099609375,-0.09175556898117065,0.07044154405593872,0.0717010498046875,0.8404909207196811,0.19539608749459195,-0.46716626194787436,0.19274625975246612
1729786050926571000,1.890571044921875,1.6913392543792725,-0.5704887509346008,0.6884077191352844,-0.8643031716346741,-0.15117232501506805,-0.4797157049179077,-0.07756096124649048,0.04326215386390686,0.08315497636795044,0.836866528454045,0.2016027982414908,-0.4685066313795273,0.19877728242005008
1729786050936600800,1.900600830078125,1.5019071102142334,-0.5106030106544495,0.7928329706192017,-0.8680555820465088,-0.15236793458461761,-0.4725078046321869,-0.049196064472198486,-0.0028902292251586914,0.1635478138923645,0.8331768790757168,0.20712731648173166,-0.4699408221392294,0.20511034127999947
1729786050946632000,1.9106318359375,1.2669275999069214,-0.4159652888774872,0.8726603984832764,-0.8714828491210938,-0.15162935853004456,-0.4663969874382019,-0.04532623291015625,-0.04697902500629425,0.2604796290397644,0.8297714992596068,0.21141890849751963,-0.4712786338601919,0.2113711412909539
1729786050956662800,1.920662841796875,0.9941884875297546,-0.3713725209236145,0.9549006819725037,-0.8746927976608276,-0.14887769520282745,-0.4612460434436798,-0.06886494159698486,-0.06857530772686005,0.2783237099647522,0.8266480518266576,0.2143748087315111,-0.47267368562730955,0.21743049235192127
1729786050966692900,1.93069287109375,0.7598657608032227,-0.3286103904247284,1.0451279878616333,-0.8777743577957153,-0.1440996676683426,-0.45688900351524353,-0.04529088735580444,-0.054081469774246216,0.2940777540206909,0.823769437190796,0.21599691473286484,-0.4742371070799619,0.22326768146899728
1729786050976724000,1.940723876953125,0.59501051902771,-0.2905349135398865,1.1386339664459229,-0.8807339668273926,-0.1375560611486435,-0.4531954824924469,0.019131064414978027,-0.051774993538856506,0.3397005796432495,0.8210615947143634,0.2165285600966654,-0.4759386975907631,0.2290321350020837
1729786050986754800,1.9507548828125,0.4761180579662323,-0.25113946199417114,1.238153100013733,-0.8835573792457581,-0.12945346534252167,-0.45007583498954773,0.07326990365982056,-0.07304590940475464,0.3810298442840576,0.8184495317479425,0.21619517840532043,-0.4777255743773598,0.2349007754381221
1729786050996785000,1.960784912109375,0.3366357982158661,-0.2098061442375183,1.3645544052124023,-0.8862283825874329,-0.11978695541620255,-0.4474935829639435,0.08784276247024536,-0.11017825454473495,0.4056234359741211,0.8158964853889118,0.21504470971574613,-0.47959251789744667,0.24095610300690995
1729786051006816000,1.97081591796875,0.044040124863386154,-0.0900626927614212,1.5224242210388184,-0.8885695338249207,-0.1078529804944992,-0.44588348269462585,0.055241286754608154,-0.1485251784324646,0.44481539726257324,0.8135421847689155,0.21258073382453527,-0.4815264148382061,0.24716588957212327
1729786051016846800,1.980846923828125,-0.2524714171886444,0.0706138014793396,1.5753968954086304,-0.8901898264884949,-0.09342458844184875,-0.4459081292152405,-0.008003592491149902,-0.12503547966480255,0.5204777717590332,0.811683981216904,0.2083467531115321,-0.48336070366065115,0.25322585325951324
1729786051026877000,1.990876953125,-0.2110908329486847,0.2707726061344147,1.5738261938095093,-0.8907938003540039,-0.07822219282388687,-0.44762447476387024,-0.0864400863647461,-0.04178818315267563,0.5173113942146301,0.8103351646508208,0.20326634113333777,-0.4846344624410057,0.25917011254330585
1729786051036908000,2.000907958984375,0.06155480444431305,0.3712904453277588,1.677384853363037,-0.8904225826263428,-0.06344166398048401,-0.4506915211677551,-0.1018107533454895,-0.009602151811122894,0.4186328053474426,0.8090989772742263,0.19859286115587357,-0.4849898114775329,0.26590341914797677
1729786051046939000,2.01093896484375,0.2546536922454834,0.3918071389198303,1.8284856081008911,-0.8896820545196533,-0.048482075333595276,-0.45399925112724304,0.0029633045196533203,0.00627627968788147,0.32101893424987793,0.8074838057956897,0.1944625736066676,-0.484958426426296,0.2738056156867113
1729786051056969000,2.020968994140625,0.450856477022171,0.3998839855194092,1.8855273723602295,-0.888637125492096,-0.03347466140985489,-0.45738792419433594,0.14492368698120117,0.03539728373289108,0.33937644958496094,0.8055111062312735,0.19079793732930084,-0.4846670804097156,0.28257031028146884
1729786051066999800,2.030999755859375,0.6650705933570862,0.450816810131073,1.9611397981643677,-0.8872026801109314,-0.01896803081035614,-0.46098989248275757,0.22495603561401367,0.00042860209941864014,0.35869497060775757,0.8032340320867395,0.18779664672261975,-0.48398086237825977,0.2920789915083578
1729786051077031000,2.041031005859375,0.8681989312171936,0.48740464448928833,2.088165521621704,-0.8852638602256775,-0.004561017733067274,-0.4650668501853943,0.2606147527694702,-0.07017652690410614,0.3508548140525818,0.8006410759590148,0.18527863813034554,-0.48284408055112377,0.3025017499389426
1729786051087061000,2.05106103515625,0.988064706325531,0.5273240208625793,2.233875274658203,-0.8828533291816711,0.010203243233263493,-0.46953803300857544,0.27524834871292114,-0.13358581066131592,0.31685858964920044,0.7976456742868994,0.18304067379976596,-0.4813804099696048,0.3138956635756714
1729786051097091800,2.061091796875,1.0638777017593384,0.6078087687492371,2.3689944744110107,-0.8798008561134338,0.02571968175470829,-0.4746462404727936,0.29506874084472656,-0.18341927230358124,0.33502835035324097,0.7943668528826278,0.18066885050160286,-0.4796203081453035,0.3260437150202456
1729786051107123000,2.071123046875,1.2770535945892334,0.7084265351295471,2.5795602798461914,-0.8758747577667236,0.041906699538230896,-0.48071539402008057,0.32805371284484863,-0.2246917337179184,0.39776861667633057,0.7907415586532807,0.1782899345655017,-0.4773415976876621,0.3392426117049911
1729786051117153000,2.081153076171875,1.4159358739852905,0.8478712439537048,2.7942187786102295,-0.8707740306854248,0.05886257439851761,-0.48814740777015686,0.3740546703338623,-0.277765154838562,0.378146767616272,0.7867018027796667,0.17590468566436873,-0.4743246076865214,0.353799524330517
1729786051127184000,2.091183837890625,1.4862663745880127,1.0783464908599854,2.907188653945923,-0.8641000986099243,0.07660562545061111,-0.4974561035633087,0.4096171259880066,-0.263846218585968,0.3635297417640686,0.7825159245726705,0.1730828170889266,-0.4704405183755983,0.3693195348680343
1729786051137215000,2.101215087890625,1.7343862056732178,1.2547303438186646,2.862780809402466,-0.8557026982307434,0.0935034528374672,-0.5089500546455383,0.42003363370895386,-0.1726050227880478,0.31211161613464355,0.778416849614851,0.17032593739863686,-0.4653107065634976,0.3854119509842358
1729786051147245000,2.1112451171875,2.0643625259399414,1.289778232574463,2.6954903602600098,-0.8462722301483154,0.10747439414262772,-0.5217972993850708,0.4463547468185425,-0.061163969337940216,0.11269396543502808,0.7742708742525516,0.16873189896721913,-0.458945406683087,0.4017501640782833
1729786051157276000,2.12127587890625,2.4038703441619873,1.1870592832565308,2.428307294845581,-0.836770236492157,0.11729693412780762,-0.5348429679870605,0.5395137667655945,0.08230327069759369,-0.03586620092391968,0.7699591394289788,0.1689529998569264,-0.4517005713155456,0.4178329269234259
1729786051167307000,2.13130712890625,2.7471704483032227,0.9926843643188477,2.141834020614624,-0.8280680775642395,0.12235181778669357,-0.5471135973930359,0.6640208959579468,0.20331653952598572,-0.09007823467254639,0.7653495750031113,0.1714197244985271,-0.44391270648124126,0.4333552917669319
1729786051177336800,2.1413369140625,2.844958782196045,0.7498184442520142,1.9442154169082642,-0.8207473754882812,0.12357833981513977,-0.5577654242515564,0.7443771362304688,0.21721145510673523,-0.1651349663734436,0.7603025188544893,0.17579460054707477,-0.43613478135930983,0.44813268190412175
1729786051187368000,2.151367919921875,2.439826011657715,0.6458280086517334,1.78022038936615,-0.8145865797996521,0.1238059550523758,-0.5666753053665161,0.7450980544090271,0.1476326584815979,-0.1503504514694214,0.7551461309211562,0.1803417717476335,-0.4291144415947817,0.4616189714020375
1729786051197398800,2.161398681640625,1.7360047101974487,0.6910974979400635,1.5509581565856934,-0.808654248714447,0.12543728947639465,-0.5747554898262024,0.6426844000816345,0.03897617757320404,-0.011197209358215332,0.7507484235931833,0.1831036662234967,-0.4231965155382877,0.47302712270419117
1729786051207428900,2.171428955078125,0.9768151044845581,0.5824282169342041,1.1929759979248047,-0.803207278251648,0.1286775916814804,-0.5816356539726257,0.4656371474266052,-0.09005759656429291,-0.029265165328979492,0.7475464302111531,0.18378241248379432,-0.418815231216126,0.4816555611742548
1729786051217460000,2.1814599609375,0.024629011750221252,0.5070011615753174,0.8449448943138123,-0.7986738681793213,0.13385909795761108,-0.5866871476173401,0.3406965732574463,-0.1768278330564499,-0.06188762187957764,0.7457513950141205,0.18223677858217727,-0.416468688745272,0.48703032260053153
1729786051227490800,2.19149072265625,-0.7708570957183838,0.3627537786960602,0.5350919365882874,-0.795166552066803,0.14168395102024078,-0.5896064043045044,0.31314146518707275,-0.17951048910617828,0.02614516019821167,0.7453274641396939,0.17826613919646261,-0.416434839641725,0.4891728676425588
1729786051237521000,2.20152099609375,-1.7025402784347534,0.2848550081253052,0.2429703325033188,-0.7927740216255188,0.15181824564933777,-0.590305507183075,0.313647985458374,-0.16530700027942657,-0.05532431602478027,0.7460891257626976,0.17222847725380808,-0.41855057845354754,0.4883685001024116
1729786051247552000,2.211552001953125,-3.835020065307617,0.5968509316444397,-0.013507509604096413,-0.7898657917976379,0.16906437277793884,-0.5895161032676697,0.3227027654647827,-0.23214422166347504,-0.23833417892456055,0.748975516299306,0.16061026296659905,-0.42361100288057707,0.4835222403465293
1729786051257582800,2.221582763671875,-3.795814275741577,-1.3325258493423462,-0.061710190027952194,-0.7914603352546692,0.19221535325050354,-0.5802101492881775,0.28538739681243896,-0.5316776037216187,-0.8281150460243225,0.7517955304119486,0.1460816150416807,-0.43422931390913416,0.4742452397905744
1729786051267613000,2.231613037109375,-2.574286937713623,-2.6102185249328613,0.3726133108139038,-0.8030890226364136,0.21095910668373108,-0.5572649836540222,0.4541968107223511,-1.3621584177017212,-1.5913403034210205,0.7489582322103494,0.13915635316801794,-0.4494474445850043,0.46657702665039186
1729786051277644000,2.24164404296875,-3.6590402126312256,-2.3050296306610107,0.6244106292724609,-0.8155922293663025,0.23169752955436707,-0.5302127003669739,1.0105996131896973,-1.166283130645752,-0.5735927820205688,0.7440357898668851,0.13247023519414725,-0.4662030381993127,0.45990983725736845
1729786051287675000,2.2516748046875,-3.9836173057556152,-1.1177960634231567,0.2265106737613678,-0.8236125111579895,0.25612950325012207,-0.5060237050056458,0.6791270971298218,0.22435447573661804,0.3079036474227905,0.7413265138967335,0.1205926845699007,-0.4821260850169929,0.45105069108641815
1729786051297705000,2.261705078125,-2.268036127090454,-0.27130764722824097,-0.19824567437171936,-0.8267468810081482,0.27189406752586365,-0.49250710010528564,-0.1030169129371643,0.7352622747421265,0.20378032326698303,0.7417482713460147,0.11014911552828428,-0.49154208720856285,0.44279006884581595
1729786051307735800,2.27173583984375,-1.1735519170761108,-0.25330105423927307,-0.09376533329486847,-0.8284102082252502,0.2783770263195038,-0.48604816198349,-0.5589494109153748,0.13328984379768372,-0.4471946358680725,0.7423053178047428,0.10521662716144607,-0.4958884771093387,0.4381859877211768
1729786051317767000,2.281766845703125,-2.2760066986083984,-0.6559292078018188,0.03809256851673126,-0.8305972814559937,0.2862524092197418,-0.47766897082328796,-0.2588039040565491,-0.21334591507911682,-0.4979475140571594,0.7420250921034768,0.1001274590217035,-0.501138715593198,0.43385851225900346
1729786051327797000,2.291796875,-3.3766186237335205,-0.7593608498573303,-0.29976269602775574,-0.8343808054924011,0.2989512085914612,-0.4630732536315918,0.2183682918548584,0.06446737051010132,0.23165848851203918,0.74182470031765,0.09120425455846384,-0.5100442737823453,0.42571435780524525
1729786051337827800,2.301827880859375,-2.945154905319214,-0.6384557485580444,-0.3018468916416168,-0.8386445045471191,0.31093791127204895,-0.44720569252967834,0.2891297936439514,0.17618364095687866,0.537476658821106,0.7421112833307636,0.08149614059367552,-0.5193799548838332,0.41578068870025214
1729786051347859000,2.31185888671875,-1.7542972564697266,-0.42052480578422546,0.15654170513153076,-0.841371476650238,0.32064512372016907,-0.4350641369819641,0.20538514852523804,0.07564085721969604,0.3067224621772766,0.7418141814817822,0.07402014615809682,-0.5262973950499262,0.4089546328419265
1729786051357889000,2.321888916015625,-0.6035717129707336,0.06120026856660843,0.5613102316856384,-0.8407297134399414,0.3291131556034088,-0.42995116114616394,0.08302408456802368,0.1697271168231964,0.11441472172737122,0.7409571744101088,0.06897942553196412,-0.5294017881482305,0.4073794012165153
1729786051367919900,2.331919921875,-0.3544187545776367,0.5864893198013306,-0.18107999861240387,-0.8385431170463562,0.3330385386943817,-0.43119680881500244,-0.11302542686462402,0.2677152454853058,0.20193353295326233,0.7414172933268159,0.06611509813493995,-0.529178971186821,0.4073067188158125
1729786051377951000,2.341950927734375,-0.09205612540245056,0.5958548784255981,-0.8956828117370605,-0.8378803133964539,0.329471230506897,-0.4352070987224579,-0.34002190828323364,0.36993059515953064,0.3958547115325928,0.7443646967318037,0.06520095192460586,-0.5273948081138601,0.4043818842837957
1729786051387981000,2.35198095703125,1.2513285875320435,0.5472713708877563,-0.6507009863853455,-0.8380317091941833,0.32006463408470154,-0.44188401103019714,-0.37923818826675415,0.5369147658348083,0.28984546661376953,0.7473183450882,0.06837361100983104,-0.5238158478816833,0.4030599053888735
1729786051398012000,2.362011962890625,1.8337723016738892,0.5913189649581909,-0.35013824701309204,-0.8370453119277954,0.308768093585968,-0.4516828656196594,-0.05534970760345459,0.469491183757782,0.022605717182159424,0.7491613677392508,0.07458827729310274,-0.5182616637958964,0.4057076193712204
1729786051408043000,2.37204296875,1.2648634910583496,0.7819584012031555,-0.372856080532074,-0.8349746465682983,0.2985650300979614,-0.4622511565685272,0.08334201574325562,0.2293432652950287,0.129029780626297,0.7510171585852502,0.08007591166439772,-0.5123107094885597,0.4087771304977577
1729786051418072800,2.38207275390625,0.3886069059371948,0.8571980595588684,-0.42085662484169006,-0.8322211503982544,0.29129716753959656,-0.47175610065460205,-0.02762681245803833,-0.08574604988098145,0.34252944588661194,0.7536490567515237,0.08252911161370817,-0.5072582166976082,0.4097451134809523
1729786051428104000,2.39210400390625,-0.45569026470184326,0.6872428059577942,-0.3350008428096771,-0.8296469449996948,0.2883782684803009,-0.4780418276786804,-0.050006985664367676,-0.3606438636779785,0.3433677554130554,0.7564377353665395,0.0816759576930042,-0.5042897156034362,0.4084396346902514
1729786051438134800,2.402134765625,-0.6414188146591187,0.573233962059021,-0.24937596917152405,-0.8274581432342529,0.28890565037727356,-0.4815044403076172,0.034642040729522705,-0.38518860936164856,0.2938060760498047,0.7588226618182115,0.07885647953643804,-0.5030203171171594,0.40612854823608635
1729786051448164900,2.412164794921875,-0.2476358711719513,0.463819295167923,-0.27662596106529236,-0.82569819688797,0.28902602195739746,-0.4844445288181305,0.07495057582855225,-0.20289012789726257,0.1561974287033081,0.7608492896293894,0.07665764057640011,-0.5018977406992725,0.4041419179927729
1729786051458196000,2.422196044921875,0.3194936215877533,0.3706187903881073,-0.31696832180023193,-0.8245129585266113,0.286381334066391,-0.48802074790000916,0.010685384273529053,-0.041248857975006104,-0.06379812955856323,0.7624778264655043,0.07671505203314892,-0.5001044123964132,0.4032841610729065
1729786051468226800,2.432226806640625,0.7083314061164856,0.24451570212841034,-0.36390945315361023,-0.82396000623703,0.2809521555900574,-0.4920932352542877,-0.032744646072387695,0.05814385414123535,-0.17764553427696228,0.7637416755294518,0.07896595170708466,-0.4977125338306754,0.4034169324948894
1729786051478257000,2.4422568359375,0.7509616613388062,0.13199102878570557,-0.35335615277290344,-0.8240296840667725,0.2741691768169403,-0.49578869342803955,-0.015051126480102539,0.06774976849555969,-0.14393603801727295,0.7646391706456735,0.08241331683625756,-0.49529153462545455,0.4040065802509209
1729786051488288000,2.4522880859375,0.4577522873878479,0.06624126434326172,-0.3003225028514862,-0.8244642019271851,0.2683996558189392,-0.4982171654701233,0.041367948055267334,-0.02761596441268921,-0.06004086136817932,0.765279740282551,0.08538616526955382,-0.4935591278019193,0.40429629037451287
1729786051498318000,2.462318115234375,0.1493208110332489,0.1089491993188858,-0.22545120120048523,-0.824758768081665,0.2646771967411041,-0.49971893429756165,0.06726670265197754,-0.14776435494422913,0.03327298164367676,0.7658902681793749,0.087046685941352,-0.4925072701348012,0.40406876576143885
1729786051508349000,2.472348876953125,-0.1595139354467392,0.13140977919101715,-0.12490593641996384,-0.824614942073822,0.2632717788219452,-0.5006977319717407,0.05938667058944702,-0.23521089553833008,0.10973703861236572,0.7665422783282989,0.08720722624278747,-0.4919817348068233,0.4034375701650119
1729786051518380000,2.482380126953125,-0.4168485105037689,0.1732882559299469,-0.0854962170124054,-0.8241057991981506,0.2639411389827728,-0.501183271408081,0.039514124393463135,-0.21467050909996033,0.11721110343933105,0.7672451257999623,0.08600775229126795,-0.4919461519672201,0.4024009565917191
1729786051528409900,2.492409912109375,-0.41028690338134766,0.1688992977142334,-0.13941778242588043,-0.8235183954238892,0.26521724462509155,-0.5014751553535461,0.01089632511138916,-0.10130736231803894,0.11779290437698364,0.7680884568118982,0.08424823577700939,-0.4921022928662853,0.4009709539793394
1729786051538441000,2.50244091796875,-0.10328806936740875,0.13246673345565796,-0.18591603636741638,-0.8231683373451233,0.2652587294578552,-0.5020276308059692,-0.01949828863143921,0.04725649952888489,0.05634891986846924,0.7689036113447262,0.0832901958584025,-0.49198467602727625,0.39975126620681195
1729786051548471800,2.512471923828125,0.33970820903778076,0.1345326453447342,-0.31228089332580566,-0.8231824040412903,0.26265600323677063,-0.5033712387084961,-0.008070647716522217,0.18663904070854187,-0.007584571838378906,0.7696546664439173,0.08408792785152089,-0.4911655674197192,0.3991457795053247
1729786051558502000,2.522501953125,0.7949718236923218,0.25105020403862,-0.4236612021923065,-0.8231908679008484,0.25667476654052734,-0.5064335465431213,0.013147532939910889,0.26479434967041016,0.027505874633789062,0.7706331912158737,0.0868247627498541,-0.48912646625562495,0.39917575141833106
1729786051568533000,2.532532958984375,1.0712345838546753,0.36745139956474304,-0.42921656370162964,-0.8227143287658691,0.24818532168865204,-0.5114148855209351,0.02597665786743164,0.23680001497268677,0.05758798122406006,0.7718414917876201,0.09096991320869273,-0.48581585069663963,0.3999602146147235
1729786051578563800,2.542563720703125,0.9172807931900024,0.43833303451538086,-0.30101677775382996,-0.8215258717536926,0.2398776262998581,-0.5172562003135681,0.0497211217880249,0.0749569684267044,0.07925266027450562,0.7730925435894108,0.09500243226000785,-0.4820232897744669,0.4011932330092409
1729786051588594000,2.552593994140625,0.424460232257843,0.508496105670929,-0.2667224407196045,-0.8197764158248901,0.23392921686172485,-0.5227272510528564,0.06902873516082764,-0.12084633111953735,0.18006068468093872,0.7744611440335257,0.09742389093079197,-0.47869088427339823,0.4019621767629472
1729786051598625000,2.562625,-0.252665251493454,0.47094422578811646,-0.18981756269931793,-0.8175567984580994,0.23178035020828247,-0.5271419882774353,0.039755284786224365,-0.22216729819774628,0.2673001289367676,0.7760877499034826,0.09719115724471172,-0.47642720811692435,0.4015703442058579
1729786051608656000,2.57265576171875,-0.3119107186794281,0.3638473153114319,-0.3307352662086487,-0.8160802125930786,0.2313583344221115,-0.5296096801757812,0.012308299541473389,-0.14978483319282532,0.2591782212257385,0.7777202217687111,0.09574679467553471,-0.4754237192409721,0.39994509430458325
1729786051618686000,2.58268603515625,-0.2125316709280014,0.407060831785202,-0.2735827565193176,-0.8146916031837463,0.2301117479801178,-0.5322839021682739,-0.09732615947723389,-0.1044098287820816,-0.014087498188018799,0.7794052472914847,0.09473991816366957,-0.4742176614074695,0.3983332525315105
1729786051628717000,2.592717041015625,-0.14704732596874237,0.2849445641040802,-0.16982442140579224,-0.8133291006088257,0.2293241024017334,-0.534701943397522,-0.09957373142242432,-0.046401724219322205,-0.14463454484939575,0.780755381238669,0.09383741483644273,-0.47312110283551845,0.39720510497646533
1729786051638749000,2.6027490234375,-0.034269124269485474,0.06976382434368134,-0.1364600658416748,-0.8126949071884155,0.22859616577625275,-0.5359764099121094,0.012630879878997803,0.03638792037963867,-0.20210641622543335,0.7815308525260968,0.09346733463813042,-0.47252053130379446,0.39648158958224733
1729786051648778800,2.61277880859375,0.05354940891265869,-0.07246974855661392,-0.17382395267486572,-0.8131174445152283,0.2273191213607788,-0.5358786582946777,0.09960126876831055,0.005484238266944885,-0.1916298270225525,0.7817893598075495,0.09389130078969118,-0.4724881838216751,0.3959099709532229
1729786051658809600,2.6228095703125,0.07064450532197952,0.0692804604768753,-0.24904361367225647,-0.8136919736862183,0.2251531481742859,-0.5359211564064026,0.12332332134246826,-0.007929041981697083,-0.04720872640609741,0.7821255944630651,0.09475211115608988,-0.4722938351872161,0.3952722112918984
1729786051668841000,2.632841064453125,-0.08008161932229996,0.25533363223075867,-0.30271559953689575,-0.8133825659751892,0.22294676303863525,-0.537311315536499,0.058820247650146484,-0.019318222999572754,0.1101720929145813,0.7830884671893193,0.09502555304503539,-0.47150237817305124,0.39424360046507667
1729786051678870800,2.642870849609375,-0.2591373920440674,0.3258219063282013,-0.3301869034767151,-0.8124666213989258,0.22121602296829224,-0.5394083857536316,-0.026781976222991943,-0.07076437771320343,0.1392924189567566,0.7844900508750039,0.09457030185985121,-0.47048089562602996,0.392784224518124
1729786051688901600,2.652901611328125,-0.5093042254447937,0.26500678062438965,-0.3776811957359314,-0.811675488948822,0.2204948216676712,-0.5408926010131836,-0.0592656135559082,-0.0648551732301712,0.10688692331314087,0.7860486915532978,0.0932746931739148,-0.4699505519263194,0.3906067552433001
1729786051698933000,2.66293310546875,-0.4966787099838257,0.3243768811225891,-0.45571446418762207,-0.8108956813812256,0.22004444897174835,-0.5422441363334656,-0.03323584794998169,0.04231517016887665,0.11904168128967285,0.7878246946002347,0.09154024365798046,-0.4695724785853947,0.38788451201532753
1729786051708962600,2.672962646484375,-0.28753456473350525,0.2239554226398468,-0.6702355742454529,-0.810710072517395,0.21760521829128265,-0.5435045957565308,0.00794517993927002,0.12168923020362854,0.04292476177215576,0.7897242880033837,0.0907874774736659,-0.4690472682202067,0.3848219480739132
1729786051718993700,2.68299365234375,0.11550825089216232,-0.00017009302973747253,-0.7167245149612427,-0.8115804195404053,0.2122902125120163,-0.5443070530891418,0.0043752193450927734,0.13010174036026,-0.14337611198425293,0.7914149264638738,0.09188539527532436,-0.46840533383633365,0.38185855346137937
1729786051729024800,2.693024658203125,0.3217166066169739,-0.16157452762126923,-0.6247037649154663,-0.8134965300559998,0.20555871725082397,-0.5440304279327393,0.022938668727874756,0.11075598001480103,-0.23395419120788574,0.7923593559420414,0.09456992092400548,-0.4680184866242022,0.37971303813046814
1729786051739054600,2.7030546875,0.3971298635005951,-0.13421188294887543,-0.6322420835494995,-0.8155741691589355,0.1985766738653183,-0.5435126423835754,0.07379871606826782,0.135178804397583,-0.12088549137115479,0.7930151994236297,0.0977068876018405,-0.46765055414187245,0.37799887723320336
1729786051749085700,2.713085693359375,0.3910049498081207,-0.11796053498983383,-0.660963237285614,-0.8175368905067444,0.190981924533844,-0.5432855486869812,0.01063692569732666,0.08039562404155731,-0.025714635848999023,0.7937517910814466,0.10111277491789565,-0.4670475667786723,0.3762987413008085
1729786051759116800,2.72311669921875,0.30062711238861084,-0.04999533295631409,-0.5989992022514343,-0.8192567229270935,0.18393634259700775,-0.5431258678436279,-0.05586522817611694,-0.0015480369329452515,-0.025813281536102295,0.7945365529505038,0.10413541431225685,-0.466468522005056,0.3745323759602563
1729786051769146600,2.733146728515625,0.304904967546463,0.022855225950479507,-0.6084177494049072,-0.8203611373901367,0.17737692594528198,-0.5436403751373291,-0.03855597972869873,0.014792263507843018,0.07733184099197388,0.7955017419869228,0.10672559003451106,-0.4656065488968052,0.37282305170827
1729786051779177700,2.743177734375,0.36485058069229126,-0.02708863466978073,-0.593874454498291,-0.821410059928894,0.170653834939003,-0.5442084670066833,-0.04707443714141846,0.0577244758605957,0.01050180196762085,0.7964511142743126,0.10942070904465939,-0.4646750208973185,0.37117372937692233
1729786051789208800,2.753208740234375,0.820127546787262,-0.05557401850819588,-0.5818907618522644,-0.8226149678230286,0.16274122893810272,-0.5448118448257446,-0.035142600536346436,0.12331530451774597,-0.07193315029144287,0.7971265822005417,0.11311922652633233,-0.4634631831248243,0.3701285515752461
1729786051799238700,2.76323876953125,1.3331948518753052,-0.1389480084180832,-0.5820077061653137,-0.8240581750869751,0.15196768939495087,-0.5457416772842407,-0.015083670616149902,0.16776499152183533,-0.22574269771575928,0.7973534740491647,0.11900456960928704,-0.4614835568397533,0.3702679024896798
1729786051809269800,2.773269775390625,1.6537178754806519,-0.16263756155967712,-0.5750182271003723,-0.825753390789032,0.1389499455690384,-0.5466481447219849,-0.0004947185516357422,0.1994442194700241,-0.30071818828582764,0.7971466090461357,0.1266340790644996,-0.45895506348823817,0.3713237195910125
1729786051819300900,2.78330078125,1.9066481590270996,-0.2515075206756592,-0.6234228014945984,-0.8276254534721375,0.12425021082162857,-0.5473554730415344,0.03657931089401245,0.23462127149105072,-0.18509691953659058,0.7966330101247348,0.13548197868148693,-0.4560338847361978,0.37289887053191123
1729786051829330700,2.79333056640625,1.9241899251937866,-0.27898648381233215,-0.7239262461662292,-0.8299001455307007,0.10803110152482986,-0.5473528504371643,0.053273558616638184,0.20022696256637573,-0.1432294249534607,0.7959271493191657,0.14523577807482463,-0.4530233391688458,0.37440156884280784
1729786051839361800,2.80336181640625,1.7452471256256104,-0.30257225036621094,-0.6944990754127502,-0.8322045207023621,0.09187144786119461,-0.5468047261238098,0.03610771894454956,0.09692555665969849,-0.049417197704315186,0.7952360359613493,0.15479354137786078,-0.4501517430362074,0.37550254319844106
1729786051849393000,2.813392822265625,1.4992390871047974,-0.28417688608169556,-0.5405430793762207,-0.8343824744224548,0.07787185907363892,-0.5456574559211731,-0.013212919235229492,-0.05040602385997772,-0.03773164749145508,0.7944512696336002,0.1631636528002475,-0.4478268723619849,0.3763988083293985
1729786051859422700,2.823422607421875,1.198661208152771,-0.2791994512081146,-0.4112415611743927,-0.8362242579460144,0.06649807840585709,-0.5443407893180847,-0.02099919319152832,-0.170547753572464,-0.030381441116333008,0.7935878015540008,0.17015181371750485,-0.4459573566540446,0.3773442465213936
1729786051869453600,2.83345361328125,1.1129510402679443,-0.2690739333629608,-0.4611542522907257,-0.8380177617073059,0.05677158012986183,-0.5426814556121826,0.014806151390075684,-0.15911227464675903,0.0037716031074523926,0.7927833682053578,0.1761277865087997,-0.44456524939215386,0.37793545601837053
1729786051879485000,2.84348486328125,1.3173418045043945,-0.2126053422689438,-0.5295426249504089,-0.839557409286499,0.045982424169778824,-0.5413214564323425,0.0649755597114563,-0.010383661836385727,-0.032134294509887695,0.7921127406670668,0.1825058522836482,-0.4427537586261562,0.37844156052745936
1729786051889514800,2.8535146484375,1.6037160158157349,-0.2033405601978302,-0.579677164554596,-0.8409838080406189,0.03332102298736572,-0.5400332808494568,0.0857500433921814,0.14633597433567047,-0.1349545121192932,0.7913336256666846,0.1899632476275661,-0.4403377354269483,0.37921986412361514
1729786051899545600,2.863545654296875,1.8602827787399292,-0.15377114713191986,-0.5128829479217529,-0.8420290946960449,0.019344160333275795,-0.5390850901603699,0.08766508102416992,0.23082368075847626,-0.11307549476623535,0.7903234890930081,0.19834580035468052,-0.4371686023365553,0.3806984854519033
1729786051909577000,2.873576904296875,2.159909248352051,-0.22414109110832214,-0.5016148686408997,-0.8430953621864319,0.004212746862322092,-0.5377476215362549,0.06309652328491211,0.16734181344509125,-0.13041949272155762,0.788832732692299,0.20777325596509708,-0.433539447505514,0.3829056843091317
1729786051919606800,2.883606689453125,2.124004602432251,-0.15407145023345947,-0.4096418023109436,-0.8442208766937256,-0.011478106491267681,-0.5358725786209106,0.007749319076538086,0.04188887029886246,-0.19183433055877686,0.7869683444637977,0.2177834257990922,-0.4296906866847865,0.385508957963027
1729786051929637600,2.8936376953125,1.797420859336853,-0.08762585371732712,-0.20282764732837677,-0.8447464108467102,-0.024615151807665825,-0.5346003770828247,-0.057292163372039795,-0.0016147121787071228,-0.05887496471405029,0.7851361149547638,0.226399831828508,-0.4259611831586131,0.3884088851240861
1729786051939669000,2.9036689453125,1.3966079950332642,-0.11646335572004318,-0.0709628090262413,-0.8451921343803406,-0.03428824245929718,-0.5333616733551025,-0.0720595121383667,-0.09858528524637222,0.000982522964477539,0.7833343232112511,0.23316844414443438,-0.42302677156361695,0.39123936083294186
1729786051949698600,2.913698486328125,1.0260295867919922,-0.1938951462507248,-0.03015812486410141,-0.8460325002670288,-0.04107666015625,-0.5315465927124023,-0.04967373609542847,-0.2219390720129013,-0.023491859436035156,0.7816757282923521,0.23827554297380185,-0.4212498823704644,0.3933909211385502
1729786051959729700,2.923729736328125,0.948079526424408,-0.18334050476551056,0.038354355841875076,-0.8470078110694885,-0.046170834451913834,-0.5295715928077698,-0.011085450649261475,-0.19590982794761658,0.010589599609375,0.780118308582142,0.24240492282559653,-0.4200643643350541,0.3952230073887675
1729786051969760800,2.9337607421875,1.128548502922058,-0.10942228138446808,0.03735913336277008,-0.8479388952255249,-0.051302384585142136,-0.5276055335998535,0.019249320030212402,-0.09617380052804947,-0.040204524993896484,0.7784249478620443,0.24668142267644266,-0.41874277594362597,0.39731260152634523
1729786051979790600,2.94379052734375,1.4423115253448486,-0.04626435041427612,0.036960989236831665,-0.8482903838157654,-0.05784329026937485,-0.5263626575469971,-0.0010901093482971191,0.04102812334895134,-0.01686549186706543,0.7766246445785824,0.2517595207650958,-0.4164562754800199,0.400044407121929
1729786051989821700,2.95382177734375,1.715471625328064,0.027116550132632256,0.1542990654706955,-0.8483695983886719,-0.06529247015714645,-0.5253626704216003,-0.032184600830078125,0.08514415472745895,-0.020764589309692383,0.7743831976409288,0.2577016476302847,-0.41341083059910316,0.40374750301350826
1729786051999852800,2.963852783203125,1.8631620407104492,0.03869890421628952,0.12544476985931396,-0.8483079671859741,-0.07357822358608246,-0.5243660807609558,-0.02109205722808838,0.03767430782318115,-0.04393225908279419,0.7718026641812997,0.26433203065943195,-0.40981157391844053,0.40804863678201186
1729786052009882600,2.973882568359375,1.940285325050354,0.15902189910411835,0.13709025084972382,-0.8479025363922119,-0.08244378864765167,-0.5237025022506714,-0.032254934310913086,0.0011602193117141724,-0.0016728639602661133,0.7692027919612503,0.27118051957886535,-0.40572143570774366,0.41252668659342073
1729786052019913700,2.983913818359375,2.0544676780700684,0.23495501279830933,0.1736181676387787,-0.8469861745834351,-0.09164869785308838,-0.5236552953720093,-0.029387056827545166,-0.021495215594768524,0.08253902196884155,0.7665130682630137,0.278176707163582,-0.40098637434664675,0.4174748664960648
1729786052029944800,2.99394482421875,2.0755362510681152,0.26220062375068665,0.20365728437900543,-0.8457600474357605,-0.10086144506931305,-0.5239436626434326,-0.048450767993927,-0.016890622675418854,0.07058978080749512,0.7637218305630477,0.2851538596044692,-0.39587301970889954,0.42273026362304783
1729786052039974700,3.003974609375,1.9608945846557617,0.21327145397663116,0.1794576793909073,-0.8447741270065308,-0.11000323295593262,-0.5236944556236267,-0.04371458292007446,0.04262044280767441,0.12034368515014648,0.7607979070565899,0.29212236476650183,-0.39091854264760073,0.427824334683489
1729786052050005800,3.014005859375,1.282289981842041,0.2241729348897934,0.1437646597623825,-0.8437691330909729,-0.1172640323638916,-0.5237392783164978,-0.0408439040184021,-0.0044553205370903015,0.15665864944458008,0.758434774549847,0.2976015603314917,-0.38673461680962273,0.4320258602325146
1729786052060036900,3.024036865234375,0.3903063237667084,0.19466005265712738,0.04704851284623146,-0.8427755832672119,-0.120843805372715,-0.5245246291160583,-0.07050871849060059,-0.0795803889632225,0.23123550415039062,0.7573621307270807,0.30015057961819186,-0.3842490193094103,0.43435577084840615
1729786052070066700,3.034066650390625,-0.2921653687953949,0.28159570693969727,0.05377086251974106,-0.8416244387626648,-0.12062126398086548,-0.5264207720756531,-0.1167343258857727,-0.15585272014141083,0.31172966957092285,0.7576947815273443,0.29964770711149596,-0.38340691855972836,0.43486662347209826
1729786052080097800,3.044097900390625,-0.40954500436782837,0.29344063997268677,0.024587146937847137,-0.8400953412055969,-0.11814355850219727,-0.5294166207313538,-0.15999621152877808,-0.09862279146909714,0.30227428674697876,0.7587479673019261,0.29741722513513913,-0.3831901456345619,0.4347526616371453
1729786052090129000,3.05412890625,-0.05186409875750542,0.3644428253173828,-0.05895701423287392,-0.8383378982543945,-0.11705326288938522,-0.5324360132217407,-0.18227672576904297,0.14337468147277832,0.08594858646392822,0.7598008686582629,0.295817086474148,-0.382458170974177,0.43465000682658866
1729786052100158700,3.06415869140625,0.6100632548332214,0.32481470704078674,-0.055039506405591965,-0.83636873960495,-0.11886855214834213,-0.5351237654685974,-0.21796774864196777,0.41684219241142273,-0.05755805969238281,0.7602170770119933,0.2961176331803538,-0.3804634861594497,0.4354672912609134
1729786052110189600,3.074189453125,1.4407833814620972,0.3135964572429657,-0.15115272998809814,-0.834570050239563,-0.12520404160022736,-0.5364855527877808,-0.135431170463562,0.5483760237693787,-0.21684086322784424,0.759489789415523,0.29953213483463037,-0.3768789153736324,0.4375133992464865
1729786052120220700,3.084220703125,2.016134738922119,0.35738733410835266,-0.2817125916481018,-0.8324871063232422,-0.13641010224819183,-0.5369893312454224,-0.05984687805175781,0.502376914024353,-0.26547038555145264,0.7579681040699479,0.3058233378979958,-0.37145311232732076,0.4404305074865054
1729786052130250800,3.094250732421875,2.4929919242858887,0.37384217977523804,-0.3518988788127899,-0.8299622535705566,-0.15124791860580444,-0.5369234085083008,-0.004830837249755859,0.37602514028549194,-0.15252965688705444,0.7558376450136358,0.3141698373999351,-0.36446618118310586,0.4440396407449718
1729786052140281600,3.104281494140625,2.717139720916748,0.3278166353702545,-0.3911288380622864,-0.8275361061096191,-0.16854235529899597,-0.5355162024497986,0.03403329849243164,0.16936632990837097,-0.1867128610610962,0.7530969095455509,0.32404202841761554,-0.35670530364119857,0.44788756728307516
1729786052150312700,3.114312744140625,2.62046480178833,0.25789713859558105,-0.30888989567756653,-0.8253105282783508,-0.18588806688785553,-0.5332056283950806,0.01856309175491333,0.017644673585891724,-0.09158074855804443,0.7499948722897251,0.3341226925257328,-0.3489401247176685,0.45178602011425156
1729786052160342800,3.1243427734375,2.154597759246826,0.24667777121067047,-0.24988490343093872,-0.8234712481498718,-0.2010299414396286,-0.5305489301681519,0.03729259967803955,-0.0526169091463089,0.034195780754089355,0.7469489928147475,0.34309584615232436,-0.34206837413101543,0.4553479354149868
1729786052170373600,3.13437353515625,1.416475534439087,0.2674199640750885,-0.17077010869979858,-0.8216085433959961,-0.21230179071426392,-0.5290437340736389,0.00822359323501587,-0.19558089971542358,0.1445528268814087,0.744785796687695,0.3495404965736738,-0.33659999924847595,0.45805676100821585
1729786052180404700,3.14440478515625,0.7083854675292969,0.27307358384132385,-0.05962333828210831,-0.8199498653411865,-0.21888820827007294,-0.5289329886436462,-0.03924202919006348,-0.31942659616470337,0.26347583532333374,0.7436536175983105,0.35306744952768127,-0.3329818144589988,0.45983226868658034
1729786052190434800,3.154434814453125,0.5005525946617126,0.17576520144939423,-0.02228635549545288,-0.8186978101730347,-0.22204004228115082,-0.5295584201812744,-0.03259003162384033,-0.2756558656692505,0.2698996067047119,0.7431033468509385,0.35465646198367473,-0.3308165249618515,0.4610603406332628
1729786052200465700,3.164465576171875,0.7130046486854553,0.16290666162967682,-0.13664010167121887,-0.8176712989807129,-0.22585834562778473,-0.5295295715332031,0.017347872257232666,-0.13308940827846527,0.15092849731445312,0.742472246961268,0.35665019277142235,-0.3286880765777651,0.46206026173023856
1729786052210496800,3.174496826171875,1.2348301410675049,0.06285621970891953,-0.24805477261543274,-0.8165850639343262,-0.23245255649089813,-0.528350830078125,0.04182010889053345,0.08694477379322052,-0.029586732387542725,0.7414249851912785,0.3601981396826178,-0.32570214363830274,0.4631029354158458
1729786052220526600,3.184526611328125,1.7215145826339722,0.03682808578014374,-0.33907148241996765,-0.8156394958496094,-0.2429017722606659,-0.5251007676124573,0.07323849201202393,0.23663043975830078,-0.12547296285629272,0.7394156555770345,0.36621701894861325,-0.3214571877364519,0.46455863316912394
1729786052230557700,3.1945576171875,1.6792646646499634,0.05611853301525116,-0.3657481074333191,-0.8145232796669006,-0.254768043756485,-0.5211958289146423,0.09078371524810791,0.21625486016273499,-0.14068466424942017,0.7371447409809198,0.3730097224615993,-0.31664780883282845,0.4660639504371632
1729786052240588500,3.204588623046875,1.5859272480010986,0.01580599695444107,-0.38137686252593994,-0.8133640885353088,-0.266387939453125,-0.5171812772750854,0.08742719888687134,0.1525116264820099,-0.007187008857727051,0.7349698246561088,0.3795904953562847,-0.3119622277085853,0.4673437059906151
1729786052250618600,3.21461865234375,1.1768499612808228,0.05330916494131088,-0.3969406485557556,-0.8121431469917297,-0.2768195569515228,-0.5136091709136963,0.11452656984329224,0.024500250816345215,0.09107804298400879,0.733244879305491,0.38528736781494066,-0.30781334773103036,0.46814150642252034
1729786052260649700,3.224649658203125,0.7165158987045288,0.053210627287626266,-0.35029351711273193,-0.8107600212097168,-0.28467828035354614,-0.5114944577217102,0.1338801383972168,-0.02971377968788147,0.13771510124206543,0.7324166637305117,0.3891440814671846,-0.30466319780488543,0.46830882341611074
1729786052270680600,3.2346806640625,0.47983095049858093,-0.02805732935667038,-0.4014243483543396,-0.8096393346786499,-0.29070714116096497,-0.509876012802124,0.1838001012802124,-0.044986218214035034,0.16688895225524902,0.7321564261079042,0.39184279052616977,-0.3025247248709671,0.4678514908215482
1729786052280710700,3.244710693359375,0.3767642080783844,-0.08614487200975418,-0.5088501572608948,-0.8086056113243103,-0.29651644825935364,-0.5081681609153748,0.2067531943321228,-0.07309716939926147,0.11597156524658203,0.7323007620211548,0.3942032737101193,-0.3008648964623666,0.4667115638343677
1729786052290741800,3.25474169921875,0.34440067410469055,0.0003620600327849388,-0.5792316198348999,-0.8072166442871094,-0.3027901351451874,-0.5066748857498169,0.15693289041519165,-0.03301003575325012,0.0639258623123169,0.7327889024406026,0.396470609482464,-0.299121412238736,0.4651428760557204
1729786052300772600,3.264772705078125,0.4230707287788391,0.05529508367180824,-0.6293549537658691,-0.8051866292953491,-0.3095979392528534,-0.5057899951934814,0.0902513861656189,0.08413413166999817,0.07443934679031372,0.733513866282155,0.39867172984810734,-0.2969273615558583,0.46352166760938585
1729786052310802700,3.274802734375,0.6678162813186646,0.02524637058377266,-0.580792248249054,-0.802973210811615,-0.31721869111061096,-0.5045855045318604,0.0061438679695129395,0.14447391033172607,0.046714961528778076,0.7338759212453413,0.4014471711190384,-0.294189441947714,0.4622975728593815
1729786052320833800,3.284833740234375,0.8475018739700317,-0.1880722939968109,-0.6309531331062317,-0.8014596700668335,-0.3260006904602051,-0.501383900642395,-0.04393821954727173,0.12821629643440247,-0.0916488766670227,0.7336292051753468,0.40536002631902557,-0.2915326698516779,0.4609555813348266
1729786052330864600,3.29486474609375,0.7829043865203857,-0.3340925872325897,-0.5692093372344971,-0.8007499575614929,-0.33507010340690613,-0.49651551246643066,-0.07096940279006958,0.08070608973503113,-0.09987425804138184,0.7329341306929021,0.4099279997689007,-0.28931172957671036,0.4594185446587314
1729786052340894700,3.304894775390625,0.5101372003555298,-0.30206209421157837,-0.4439307749271393,-0.8006340861320496,-0.34235695004463196,-0.4917081296443939,-0.08729010820388794,-0.014240950345993042,-0.10585653781890869,0.7323012649117356,0.4137845432899812,-0.2879727123983155,0.45780892030186304
1729786052350925600,3.314925537109375,0.4933309257030487,-0.31110769510269165,-0.35832855105400085,-0.8007547855377197,-0.3478633463382721,-0.48762980103492737,-0.10717368125915527,-0.051459163427352905,-0.018366873264312744,0.731772057508205,0.41679848902481875,-0.28716566397585613,0.4564258125062973
1729786052360956700,3.324956787109375,0.7401670813560486,-0.2865738570690155,-0.35859963297843933,-0.8010058999061584,-0.35368669033050537,-0.4830065965652466,-0.09888118505477905,-0.04786360263824463,0.003422856330871582,0.730858899273793,0.4202526485715667,-0.2861545223503568,0.4553555229113964
1729786052370986800,3.33498681640625,1.0796364545822144,-0.11253344267606735,-0.28537923097610474,-0.80079585313797,-0.36076870560646057,-0.47809189558029175,-0.09715330600738525,0.014226347208023071,0.03338974714279175,0.7293831259101752,0.42454693092330703,-0.28410202308053717,0.45502322744525947
1729786052381017600,3.345017578125,1.168803334236145,0.08187971264123917,-0.12072797119617462,-0.800189197063446,-0.3678511381149292,-0.47369062900543213,-0.11550599336624146,0.0713728666305542,0.13621199131011963,0.7273863729276228,0.42905667632909333,-0.28118508168003115,0.4558008914270688
1729786052391048700,3.355048583984375,1.1684637069702148,0.33419689536094666,0.04825092852115631,-0.7989973425865173,-0.3736651539802551,-0.47114506363868713,-0.12554794549942017,0.06147032976150513,0.27984559535980225,0.7252253576154543,0.4328650133518332,-0.2775884481910619,0.45784366439774227
1729786052401078800,3.365078857421875,1.1626404523849487,0.4093417227268219,0.09569834172725677,-0.7975655794143677,-0.3785071074962616,-0.4697035551071167,-0.10451871156692505,-0.042376041412353516,0.4184035360813141,0.7230159615136021,0.43612862385539,-0.27375179096600316,0.46054275385327115
1729786052411109600,3.375109619140625,1.058376669883728,0.589289128780365,0.00892349611967802,-0.7954765558242798,-0.383318156003952,-0.46934443712234497,-0.051416754722595215,-0.13036897778511047,0.49711543321609497,0.7210909365126326,0.43896936228034145,-0.2695063531890361,0.4633573733304427
1729786052421140700,3.385140625,0.8197970986366272,0.7000986933708191,-0.07623054832220078,-0.7922176718711853,-0.38811445236206055,-0.4709120988845825,-0.029178082942962646,-0.16921278834342957,0.4567519724369049,0.7199704273157912,0.440920719187281,-0.2648261221888844,0.4659383541275913
1729786052431170800,3.3951708984375,0.39407801628112793,0.4978485703468323,-0.05043889582157135,-0.7889657020568848,-0.3915884792804718,-0.4734886884689331,-0.04521697759628296,-0.1889168620109558,0.239312082529068,0.7196005274740837,0.44176454411059163,-0.26095928378596756,0.467888174382691
1729786052441201700,3.40520166015625,0.17119675874710083,0.16417555510997772,0.07918647676706314,-0.7875317335128784,-0.39269840717315674,-0.4749545753002167,0.004801571369171143,-0.10783571004867554,0.03275477886199951,0.719417071614696,0.44193146639565767,-0.25926683339199486,0.46895254161035826
1729786052451232800,3.415232666015625,-0.0008577730040997267,0.2504655718803406,0.35597148537635803,-0.787388026714325,-0.39172032475471497,-0.4759991466999054,0.08595681190490723,0.026547014713287354,-0.008894592523574829,0.7189970468076021,0.44162473941894426,-0.2587817826654847,0.4701518155233459
1729786052461262600,3.4252626953125,-0.1903744488954544,0.22715947031974792,0.6992915272712708,-0.7883730530738831,-0.3867437243461609,-0.47843214869499207,0.09258753061294556,0.07384699583053589,-0.017341196537017822,0.7182243318846719,0.43990507779359744,-0.2593596966336413,0.472620339952012
1729786052471293700,3.435293701171875,0.2717697024345398,0.007024596910923719,0.35729479789733887,-0.7897121906280518,-0.3822806477546692,-0.4798085689544678,0.15786093473434448,0.17172455787658691,-0.135731041431427,0.717114625138312,0.43875530622767406,-0.2599797956419864,0.4750274024015177
1729786052481324800,3.44532470703125,0.6003510355949402,-0.4402887225151062,-0.02884012833237648,-0.7915082573890686,-0.3835034668445587,-0.47585684061050415,0.0682416558265686,0.08623173832893372,-0.38896554708480835,0.715363248694874,0.4409479361388553,-0.26007018825410727,0.4755878376114012
1729786052491354600,3.455354736328125,0.37053269147872925,-0.3602277338504791,-0.06345056742429733,-0.7932179570198059,-0.38627657294273376,-0.470739483833313,0.04199725389480591,-0.06953394412994385,-0.3784731328487396,0.7138904664251083,0.4437396762565439,-0.2602409551363708,0.4751106068216483
1729786052501385700,3.4653857421875,0.3823526203632355,-0.1508347988128662,0.011123267002403736,-0.7943252921104431,-0.38819169998168945,-0.46728429198265076,0.06358188390731812,-0.006049633026123047,-0.01966947317123413,0.7127938308510274,0.4456919096809989,-0.2602240936775761,0.47493908198210016
1729786052511416600,3.47541650390625,0.3661865293979645,-0.11271421611309052,0.11009352654218674,-0.7951387166976929,-0.3895535171031952,-0.46476051211357117,-0.057720720767974854,-0.13716459274291992,0.03200605511665344,0.7116474262350225,0.44729339787711697,-0.2599006610738379,0.4753294700020459
1729786052521446700,3.48544677734375,0.32435840368270874,0.014141201972961426,0.2906886041164398,-0.7961951494216919,-0.3895437717437744,-0.4629567563533783,-0.1791008710861206,-0.2500130832195282,-0.033655792474746704,0.7103109012072082,0.4483985619247459,-0.25973131711082065,0.4763788134227404
1729786052531477800,3.495477783203125,0.22279801964759827,0.14228014647960663,0.35327714681625366,-0.7970735430717468,-0.3881694972515106,-0.4625995457172394,-0.14253216981887817,-0.13812139630317688,0.03687936067581177,0.7090197369150586,0.44872843265586126,-0.2595053427668878,0.4781118049045029
1729786052541508600,3.505508544921875,0.30644097924232483,0.06564396619796753,0.3235187232494354,-0.7979215979576111,-0.38658764958381653,-0.46246206760406494,-0.10339981317520142,-0.01744982600212097,-0.012742400169372559,0.707750598456426,0.44893034479054855,-0.2592884785767008,0.4799167900870527
1729786052551538700,3.51553857421875,0.19213499128818512,0.05510546639561653,0.1885627657175064,-0.7986451387405396,-0.38578325510025024,-0.46188440918922424,-0.05775439739227295,0.022090017795562744,-0.10769569873809814,0.7065837950072545,0.4494216686321924,-0.2589941378537638,0.4813330728819488
1729786052561569800,3.52556982421875,0.18921056389808655,0.21486051380634308,0.11636313796043396,-0.7985833287239075,-0.3852452337741852,-0.4624401032924652,-0.007477521896362305,0.09772387146949768,-0.0914691686630249,0.7060971067279476,0.449389419662809,-0.2585132316593095,0.4823349204183658
1729786052571600600,3.5356005859375,0.6890105605125427,-0.22307321429252625,0.11001815646886826,-0.7989522814750671,-0.38645270466804504,-0.4607923626899719,0.0037099719047546387,0.05014902353286743,-0.08239001035690308,0.7048142594799699,0.45082093184348637,-0.2576126969926961,0.483356074476086
1729786052581630700,3.545630615234375,0.337542325258255,-0.08670791238546371,0.09622325003147125,-0.8002908229827881,-0.3882226347923279,-0.45696598291397095,0.016401052474975586,-0.24539858102798462,-0.31901973485946655,0.7030054679189035,0.45318278894749514,-0.25718157374736095,0.4840107971722273
1729786052591661600,3.55566162109375,0.01498463936150074,0.18049256503582,0.07726633548736572,-0.8003557324409485,-0.388118714094162,-0.45694059133529663,0.011369526386260986,-0.11339190602302551,0.04434293508529663,0.7025937801726335,0.4533734158349213,-0.2568701154812923,0.4845950555468282
1729786052601692700,3.565692626953125,0.3403709828853607,0.2781195342540741,0.11526511609554291,-0.799619734287262,-0.38814616203308105,-0.4582039415836334,-0.08159059286117554,0.11882856488227844,0.2715126872062683,0.7022868028397119,0.45326828618409354,-0.2558239348354763,0.4856904740699639
1729786052611722800,3.57572265625,0.352298766374588,0.2599892318248749,0.13534986972808838,-0.7988324761390686,-0.38882872462272644,-0.4589976668357849,-0.1056475043296814,0.08177611231803894,0.003278672695159912,0.7014771355310084,0.45373533218004514,-0.25421529893215833,0.4872664839001093
1729786052621753600,3.585753662109375,0.19155141711235046,0.11580567061901093,0.0618562176823616,-0.798376739025116,-0.3892315626144409,-0.4594489336013794,-0.03611117601394653,0.0912884771823883,-0.026390880346298218,0.7008441510650412,0.45409186544922825,-0.25313260378060926,0.48840746573339705
1729786052631784700,3.59578466796875,-0.04054573178291321,0.1270246058702469,-0.018048997968435287,-0.7979804277420044,-0.3894907832145691,-0.45991751551628113,0.032965779304504395,0.05980941653251648,0.08450549840927124,0.7007312931982558,0.4541274029347817,-0.25260550752120997,0.48880915278727183
1729786052641815300,3.605815185546875,-0.4622114598751068,0.21634410321712494,-0.06800138205289841,-0.7969831228256226,-0.3886905312538147,-0.4623175263404846,0.038529813289642334,0.011508584022521973,0.12963014841079712,0.7016185881781555,0.45287637367235345,-0.2524762017036687,0.4887637651498002
1729786052651846100,3.61584619140625,-0.7199490070343018,0.33126047253608704,-0.07974512130022049,-0.7954790592193604,-0.38643136620521545,-0.4667802155017853,-0.008659064769744873,0.04822033643722534,0.15595874190330505,0.7035310096744054,0.4501674475884566,-0.2529014787822489,0.4882971930299904
1729786052661877200,3.625877197265625,-0.5617687106132507,0.33468207716941833,-0.02938740700483322,-0.7935620546340942,-0.38379624485969543,-0.47218623757362366,-0.03215205669403076,0.034965068101882935,0.13138121366500854,0.7056240233866188,0.4470288877111051,-0.2531245698090716,0.48804508337643215
1729786052671907000,3.635906982421875,-0.5560198426246643,0.08310918509960175,0.04638032615184784,-0.7926074266433716,-0.3812541961669922,-0.47583481669425964,-0.008616387844085693,-0.1566638946533203,-0.04607677459716797,0.7070443434794851,0.4446593266120708,-0.25369404331322726,0.4878583502031522
1729786052681938200,3.645938232421875,-0.737003743648529,-0.005855303257703781,0.07787513732910156,-0.792748749256134,-0.37742239236831665,-0.4786459505558014,0.06681180000305176,-0.28171151876449585,-0.150046706199646,0.7084070251285038,0.4420884853526106,-0.25541104552072447,0.48732186244052117
1729786052691969300,3.65596923828125,-0.79813152551651,-0.1423262357711792,-0.0709385797381401,-0.7932885885238647,-0.3736776113510132,-0.4806850552558899,0.13352912664413452,-0.13350924849510193,0.00459560751914978,0.7099260074792562,0.43962449129874626,-0.2576582641408259,0.4861558056888305
1729786052701999000,3.6659990234375,-0.5407564043998718,-0.06700323522090912,-0.19619743525981903,-0.7931095361709595,-0.371486097574234,-0.48267513513565063,0.08894699811935425,0.024989545345306396,-0.06294861435890198,0.7116430711494581,0.4375599236184036,-0.25923684769081795,0.4846665694833987
1729786052712030200,3.6760302734375,-0.44916224479675293,-0.15205293893814087,-0.28406521677970886,-0.7928774952888489,-0.37114349007606506,-0.48331955075263977,0.04089385271072388,0.07298675179481506,-0.06183117628097534,0.7130934549328747,0.4365289107030889,-0.2603511746574582,0.4828638405951078
1729786052722060300,3.686060302734375,-0.7424237132072449,-0.22638095915317535,-0.3418411612510681,-0.792522668838501,-0.37085020542144775,-0.4841257929801941,0.026287436485290527,0.06851258873939514,-0.11617022752761841,0.7148780165754363,0.4352924191866082,-0.2616440646248431,0.4806372497722367
1729786052732091100,3.696091064453125,-1.2886862754821777,-0.44122323393821716,-0.39803174138069153,-0.792816162109375,-0.36883676052093506,-0.485182523727417,0.0204010009765625,-0.006621003150939941,-0.04875296354293823,0.7175256145268473,0.4329469750258554,-0.2645102047556318,0.47722987256829713
1729786052742122200,3.706122314453125,-1.7758116722106934,-0.5537146329879761,-0.4595385193824768,-0.7937206625938416,-0.3647662103176117,-0.48677846789360046,0.018955647945404053,-0.16630065441131592,0.008384943008422852,0.7212251829019241,0.42917224331898374,-0.2691132659139465,0.4724654468999518
1729786052752152300,3.71615234375,-1.7324894666671753,-0.4291824400424957,-0.3016548752784729,-0.794709324836731,-0.3591017723083496,-0.4893702566623688,-0.008910179138183594,-0.22817853093147278,0.11598765850067139,0.7252945484127432,0.42437153402023314,-0.2742693569999799,0.4675822165236834
1729786052762183200,3.72618310546875,-1.3236396312713623,-0.20434266328811646,-0.038968395441770554,-0.795745313167572,-0.3529987335205078,-0.49211931228637695,-0.031174302101135254,-0.11575126647949219,0.14801836013793945,0.7285198302383612,0.41981341189816707,-0.2787418883260658,0.46402436340290537
1729786052772214300,3.73621435546875,-0.7381249666213989,0.016078704968094826,0.03350953385233879,-0.7962220311164856,-0.34763067960739136,-0.4951598644256592,-0.05532515048980713,0.10742685198783875,0.09396055340766907,0.7305390802983339,0.41614193184477744,-0.2815065977872904,0.46248510375069946
1729786052782244000,3.746244140625,-0.15235449373722076,0.1960649937391281,-0.07593892514705658,-0.7955731153488159,-0.3456938862800598,-0.49755311012268066,-0.07483398914337158,0.2982237935066223,0.08376526832580566,0.7316414950152463,0.4143475257422556,-0.2820276075890626,0.4620359788115323
1729786052792275200,3.756275146484375,0.02077481895685196,0.2882634997367859,-0.15314556658267975,-0.7939385771751404,-0.34646162390708923,-0.49962571263313293,-0.12489992380142212,0.32184919714927673,0.007743418216705322,0.7323207265083641,0.4138267728676588,-0.28095291240568715,0.46208137670508465
1729786052802306000,3.76630615234375,-0.4842899739742279,0.10459861159324646,-0.14513930678367615,-0.7922175526618958,-0.34672969579696655,-0.5021650791168213,-0.06660807132720947,0.17744871973991394,-0.025682151317596436,0.7334084964498193,0.4127942020074253,-0.28021134823752397,0.4617298085699908
1729786052812336000,3.776336181640625,-1.5447009801864624,-0.2781677544116974,-0.07623720169067383,-0.7923632264137268,-0.34262293577194214,-0.5047473311424255,-0.0006664395332336426,-0.07084441184997559,-0.06606864929199219,0.7355468809592542,0.40955857253399247,-0.28264485070028683,0.4597220018856245
1729786052822367200,3.7863671875,-2.8057098388671875,-0.5230360627174377,0.0012123137712478638,-0.794299840927124,-0.3318498432636261,-0.5088844895362854,0.06483817100524902,-0.2917921245098114,0.0192604660987854,0.7394957042819836,0.40248233434895625,-0.2890773860074124,0.45561860634720514
1729786052832398000,3.796398193359375,-3.582667112350464,-0.573453426361084,0.11557004600763321,-0.7973665595054626,-0.31472888588905334,-0.5149294137954712,0.06093168258666992,-0.40624889731407166,0.1421266794204712,0.7449902783988996,0.391598664779417,-0.2986398899697305,0.449949121889898
1729786052842428200,3.80642822265625,-3.4751362800598145,-0.49720868468284607,0.1385057121515274,-0.8006170392036438,-0.29496484994888306,-0.5215439796447754,0.0400426983833313,-0.33996859192848206,0.17230087518692017,0.7507911640847867,0.3791442408279166,-0.3089945811653361,0.44394216344730364
1729786052852459300,3.816459228515625,-2.588327169418335,-0.3953961133956909,0.08100435137748718,-0.8032540678977966,-0.2779830992221832,-0.5267906188964844,-0.0015860199928283691,-0.09628447890281677,0.08005905151367188,0.7555983595781915,0.3683800191160719,-0.3176489240637668,0.4387100915278584
1729786052862490000,3.826489990234375,-1.6001155376434326,-0.2992008924484253,0.08406245708465576,-0.8053271174430847,-0.26634517312049866,-0.5296304821968079,-0.06013613939285278,0.15558165311813354,-0.06288349628448486,0.7586618268034677,0.3611356076250776,-0.32367548664479,0.43502586315835867
1729786052872520200,3.836520263671875,-1.1949446201324463,-0.1228555366396904,0.11314870417118073,-0.80671626329422,-0.25832095742225647,-0.531487762928009,-0.06597965955734253,0.29538455605506897,-0.11012905836105347,0.7605307471732405,0.3562728052625567,-0.32760618945661396,0.4328243752045201
1729786052882551300,3.84655126953125,-1.4128857851028442,-0.13834980130195618,0.13415171205997467,-0.8076412081718445,-0.25054940581321716,-0.5337983965873718,-0.04793435335159302,0.24908459186553955,-0.050826847553253174,0.7623282812397296,0.35147281526124713,-0.33101007357349466,0.43099280043915283
1729786052892582100,3.85658203125,-1.9875831604003906,-0.31688356399536133,0.17499448359012604,-0.8092132210731506,-0.24017661809921265,-0.5361800789833069,-0.01813352108001709,-0.01116614043712616,-0.02538907527923584,0.7645808406168698,0.3451952768832287,-0.3357829473156272,0.4283760913884114
1729786052902612200,3.8666123046875,-2.343229055404663,-0.491863876581192,0.15877823531627655,-0.8118531703948975,-0.22698985040187836,-0.5379312634468079,0.04494643211364746,-0.23846423625946045,0.009595692157745361,0.7672701776376353,0.3373709814272885,-0.3423670239022083,0.4245729138694257
1729786052912643000,3.87664306640625,-2.4128503799438477,-0.48159003257751465,0.16234633326530457,-0.8148771524429321,-0.21278902888298035,-0.5391623973846436,0.06306135654449463,-0.29476404190063477,0.036309003829956055,0.7700642146930116,0.32893634675697997,-0.3495993125519507,0.42021705060259107
1729786052922674200,3.886674072265625,-2.32155704498291,-0.4027594029903412,0.1881995052099228,-0.8176120519638062,-0.198471799492836,-0.5404808521270752,0.016922354698181152,-0.1502983421087265,-0.013840436935424805,0.7728006706861792,0.32033500609292137,-0.35657403721547465,0.4159562822364874
1729786052932704300,3.896704345703125,-1.7647682428359985,-0.3854101896286011,0.18724529445171356,-0.8201004266738892,-0.18561825156211853,-0.5412774085998535,-0.04260098934173584,0.04545101523399353,-0.050046443939208984,0.7750032971210811,0.31272722199170677,-0.36271613057695956,0.4123210667397442
1729786052942735000,3.906735107421875,-1.0461235046386719,-0.269265741109848,0.18424656987190247,-0.8222874999046326,-0.1765611618757248,-0.5409892797470093,-0.06775766611099243,0.08038501441478729,-0.12148630619049072,0.7761509481587142,0.3076986299589818,-0.3671878466692786,0.40998089731077786
1729786052952766200,3.91676611328125,-0.38555970788002014,-0.1286577731370926,0.10252375900745392,-0.8235536217689514,-0.1713687777519226,-0.5407329797744751,-0.058190762996673584,0.2462894320487976,-0.1310504674911499,0.7766247604751746,0.30495988178635863,-0.3696389749983155,0.40892605741104404
1729786052962796300,3.92679638671875,0.2907913327217102,0.0031199767254292965,-0.045883823186159134,-0.8239694237709045,-0.17089760303497314,-0.5402485132217407,-0.04269927740097046,0.5274192094802856,-0.10875356197357178,0.7764881169217269,0.30489384871557396,-0.3700209113360769,0.40888944970632174
1729786052972827100,3.9368271484375,0.6154434084892273,-0.0050488971173763275,-0.18537089228630066,-0.8236770629882812,-0.17450672388076782,-0.53954017162323,-0.00925445556640625,0.5808330178260803,-0.10680687427520752,0.7760269822552474,0.3069610524017462,-0.368788317617078,0.4093315653978559
1729786052982858200,3.946858154296875,0.2995065152645111,-0.1880277693271637,-0.14194218814373016,-0.823864221572876,-0.17869985103607178,-0.5378794074058533,0.028530359268188477,0.3268321752548218,-0.0825430154800415,0.7754335847291709,0.3094483219407997,-0.36783426351870785,0.4094417320675961
1729786052992888300,3.956888427734375,-0.6212512850761414,-0.33496665954589844,0.0055431462824344635,-0.8252063393592834,-0.1785281002521515,-0.5358752012252808,0.08394962549209595,-0.06779451668262482,0.011857867240905762,0.7752791218103279,0.30960436272000297,-0.36906303870955964,0.4085094666945606
1729786053002919200,3.966919189453125,-1.6239639520645142,-0.44802236557006836,0.028621569275856018,-0.8273176550865173,-0.17223933339118958,-0.534676730632782,0.11844009160995483,-0.35333436727523804,0.16735190153121948,0.7762669083702283,0.3059309261927037,-0.37291808447670083,0.40589177980904073
1729786053012950300,3.9769501953125,-2.3110756874084473,-0.5890246629714966,0.026665743440389633,-0.8301610350608826,-0.16134868562221527,-0.5336659550666809,0.07457631826400757,-0.44289934635162354,0.1904194951057434,0.7782500785588444,0.299175600547027,-0.3790263687159798,0.4014472378582372
1729786053022980000,3.98697998046875,-2.414487361907959,-0.6127464771270752,-0.0005312575958669186,-0.8334437012672424,-0.14834891259670258,-0.5323197841644287,0.04990476369857788,-0.28524482250213623,0.15867775678634644,0.7806199926454132,0.2909464449780733,-0.38625155408994083,0.3959703312059954
1729786053033011200,3.99701123046875,-1.9409174919128418,-0.4386807978153229,-0.00177442142739892,-0.8363029956817627,-0.13663098216056824,-0.5309702754020691,0.010481953620910645,-0.05895619094371796,0.12012737989425659,0.7827561800968856,0.28337126750681624,-0.3927029237839667,0.3908682966688536
1729786053043042300,4.007042236328125,-1.1432511806488037,-0.2711237668991089,0.12229426950216293,-0.838241696357727,-0.12790629267692566,-0.5300856232643127,-0.07325726747512817,0.05690717697143555,0.0063277482986450195,0.7841585147528836,0.27782623560225106,-0.39720242874858874,0.38747664341462296
1729786053053072100,4.017072021484375,-0.3527526259422302,0.0592312328517437,0.13433414697647095,-0.8389630913734436,-0.12276619672775269,-0.5301598906517029,-0.1233629584312439,0.19854134321212769,-0.1289283037185669,0.7846787169060007,0.27485122167812087,-0.39922033172126364,0.38647030841586866
1729786053063103200,4.027103271484375,0.30621543526649475,-0.09911685436964035,-0.04146617278456688,-0.8390103578567505,-0.12225352972745895,-0.5302034020423889,-0.11039143800735474,0.43864452838897705,-0.1831754446029663,0.7846099887229582,0.2746788547314291,-0.39931167721923727,0.3866378492418593
1729786053073134000,4.037134033203125,0.6669081449508667,-0.3381911516189575,-0.21663692593574524,-0.8400281667709351,-0.12609761953353882,-0.5276854634284973,-0.061247408390045166,0.5048360824584961,-0.2973877191543579,0.7837191224908443,0.27738819198560455,-0.39901510954354674,0.38681647958506843
1729786053083164200,4.0471640625,0.5712417960166931,-0.5659028887748718,-0.2547012269496918,-0.8420696258544922,-0.13162901997566223,-0.5230606198310852,0.05598264932632446,0.3226690888404846,-0.29145342111587524,0.7823835183004095,0.2813220104049554,-0.3991586175515637,0.38653103056050603
1729786053093195300,4.0571953125,-0.008010291494429111,-0.6849783658981323,-0.180805966258049,-0.8451030850410461,-0.13511233031749725,-0.5172479152679443,0.09272271394729614,-0.0002941638231277466,-0.20499634742736816,0.7810995469580657,0.2842058371753392,-0.4007531613198081,0.3853665971546378
1729786053103226000,4.06722607421875,-0.9193634390830994,-0.637787938117981,-0.09538426250219345,-0.8483720421791077,-0.1339350789785385,-0.5121780037879944,0.035292208194732666,-0.2208622843027115,-0.010923802852630615,0.7806495738716263,0.2840060181324648,-0.40404402984936283,0.3829821214164242
1729786053113256200,4.077256103515625,-1.6181519031524658,-0.5217770934104919,-0.13414151966571808,-0.851201057434082,-0.1281583458185196,-0.5089520215988159,-0.0746564269065857,-0.2410127818584442,0.2382916808128357,0.7815189457507918,0.2802171368734074,-0.408659213729587,0.37908316591998875
1729786053123287300,4.087287353515625,-1.8170710802078247,-0.429499089717865,-0.2552594244480133,-0.853377640247345,-0.12093929946422577,-0.5070701837539673,-0.19000303745269775,-0.14396852254867554,0.29114311933517456,0.783339044888161,0.27466814716059573,-0.4135484301521836,0.37405203842592727
1729786053133318100,4.097318115234375,-1.620223045349121,-0.18874165415763855,-0.25656116008758545,-0.854688823223114,-0.11430743336677551,-0.5063998699188232,-0.2582719922065735,0.0011787936091423035,0.18547701835632324,0.7855461632984927,0.26893466657670534,-0.41770109439282105,0.368940567250739
1729786053143348200,4.10734814453125,-0.9525347352027893,0.005453917663544416,-0.19869334995746613,-0.8548069596290588,-0.10953547805547714,-0.5072543621063232,-0.2147730588912964,0.10549189895391464,0.17346841096878052,0.7875736068559851,0.2643375818934693,-0.42011718292200184,0.3651780275478782
